"trial_type","trial_index","time_elapsed","internal_node_id","subject_id","task","startTime","totalTime","labels","view_history","rt","event","trial","time","trialtype","success","stimulus","key_press","aground","name","faceID","outcome","agenttype","agentswpt","agentcurrpshare","face","avgRating","point_total","round"
"pavlovia","0","5","0.0-0.0","fertuck1","bdp_trlrn","Mon Feb 27 2023 01:52:51 GMT-0500 (Eastern Standard Time)","467667","Untrustworthy,Trustworthy","","","","","","","","","","","","","","","","","","","",""
"instructions","1","2184","0.0-1.0","fertuck1","bdp_trlrn","Mon Feb 27 2023 01:52:51 GMT-0500 (Eastern Standard Time)","467667","Untrustworthy,Trustworthy","[{""page_index"":0,""viewing_time"":2178}]","2178","","","","","","","","","","","","","","","","","",""
"","","","","fertuck1","bdp_trlrn","Mon Feb 27 2023 01:52:51 GMT-0500 (Eastern Standard Time)","467667","Untrustworthy,Trustworthy","","","fullscreenenter","2","4867","fullscreenenter","","","","","","","","","","","","","",""
"fullscreen","2","5866","0.0-2.0","fertuck1","bdp_trlrn","Mon Feb 27 2023 01:52:51 GMT-0500 (Eastern Standard Time)","467667","Untrustworthy,Trustworthy","","","","","","","true","","","","","","","","","","","","",""
"instructions","3","12046","0.0-4.0","fertuck1","bdp_trlrn","Mon Feb 27 2023 01:52:51 GMT-0500 (Eastern Standard Time)","467667","Untrustworthy,Trustworthy","[{""page_index"":0,""viewing_time"":3180},{""page_index"":1,""viewing_time"":2999}]","6179","","","","","","","","","","","","","","","","","",""
"instructions","4","13105","0.0-5.0","fertuck1","bdp_trlrn","Mon Feb 27 2023 01:52:51 GMT-0500 (Eastern Standard Time)","467667","Untrustworthy,Trustworthy","[{""page_index"":0,""viewing_time"":1058}]","1058","","","","","","","","","","","","","","","","","",""
"image-keyboard-response","5","31624","0.0-6.0-1.0","fertuck1","bdp_trlrn","Mon Feb 27 2023 01:52:51 GMT-0500 (Eastern Standard Time)","467667","Untrustworthy,Trustworthy","","18404","","","","rating","","trustrating_stim/white_mw071.bmp","2","","","","","","","","","","",""
"image-keyboard-response","6","31831","0.0-6.0-2.0","fertuck1","bdp_trlrn","Mon Feb 27 2023 01:52:51 GMT-0500 (Eastern Standard Time)","467667","Untrustworthy,Trustworthy","","null","","","","ratingFB","","trustrating_stim/white_mw071.bmp","null","","","","","","","","","","",""
"image-keyboard-response","7","36145","0.0-6.0-1.1","fertuck1","bdp_trlrn","Mon Feb 27 2023 01:52:51 GMT-0500 (Eastern Standard Time)","467667","Untrustworthy,Trustworthy","","4202","","","","rating","","trustrating_stim/white_mw060.bmp","2","","","","","","","","","","",""
"image-keyboard-response","8","36353","0.0-6.0-2.1","fertuck1","bdp_trlrn","Mon Feb 27 2023 01:52:51 GMT-0500 (Eastern Standard Time)","467667","Untrustworthy,Trustworthy","","null","","","","ratingFB","","trustrating_stim/white_mw060.bmp","null","","","","","","","","","","",""
"image-keyboard-response","9","38546","0.0-6.0-1.2","fertuck1","bdp_trlrn","Mon Feb 27 2023 01:52:51 GMT-0500 (Eastern Standard Time)","467667","Untrustworthy,Trustworthy","","2082","","","","rating","","trustrating_stim/white_00519_940519_fb_edt.bmp","6","","","","","","","","","","",""
"image-keyboard-response","10","38753","0.0-6.0-2.2","fertuck1","bdp_trlrn","Mon Feb 27 2023 01:52:51 GMT-0500 (Eastern Standard Time)","467667","Untrustworthy,Trustworthy","","null","","","","ratingFB","","trustrating_stim/white_00519_940519_fb_edt.bmp","null","","","","","","","","","","",""
"image-keyboard-response","11","40942","0.0-6.0-1.3","fertuck1","bdp_trlrn","Mon Feb 27 2023 01:52:51 GMT-0500 (Eastern Standard Time)","467667","Untrustworthy,Trustworthy","","2078","","","","rating","","trustrating_stim/white_mw099.bmp","5","","","","","","","","","","",""
"image-keyboard-response","12","41151","0.0-6.0-2.3","fertuck1","bdp_trlrn","Mon Feb 27 2023 01:52:51 GMT-0500 (Eastern Standard Time)","467667","Untrustworthy,Trustworthy","","null","","","","ratingFB","","trustrating_stim/white_mw099.bmp","null","","","","","","","","","","",""
"image-keyboard-response","13","42173","0.0-6.0-1.4","fertuck1","bdp_trlrn","Mon Feb 27 2023 01:52:51 GMT-0500 (Eastern Standard Time)","467667","Untrustworthy,Trustworthy","","916","","","","rating","","trustrating_stim/white_00659_941121_fa_edt.bmp","1","","","","","","","","","","",""
"image-keyboard-response","14","42384","0.0-6.0-2.4","fertuck1","bdp_trlrn","Mon Feb 27 2023 01:52:51 GMT-0500 (Eastern Standard Time)","467667","Untrustworthy,Trustworthy","","null","","","","ratingFB","","trustrating_stim/white_00659_941121_fa_edt.bmp","null","","","","","","","","","","",""
"image-keyboard-response","15","44327","0.0-6.0-1.5","fertuck1","bdp_trlrn","Mon Feb 27 2023 01:52:51 GMT-0500 (Eastern Standard Time)","467667","Untrustworthy,Trustworthy","","1831","","","","rating","","trustrating_stim/white_mw049.bmp","2","","","","","","","","","","",""
"image-keyboard-response","16","44534","0.0-6.0-2.5","fertuck1","bdp_trlrn","Mon Feb 27 2023 01:52:51 GMT-0500 (Eastern Standard Time)","467667","Untrustworthy,Trustworthy","","null","","","","ratingFB","","trustrating_stim/white_mw049.bmp","null","","","","","","","","","","",""
"image-keyboard-response","17","52842","0.0-6.0-1.6","fertuck1","bdp_trlrn","Mon Feb 27 2023 01:52:51 GMT-0500 (Eastern Standard Time)","467667","Untrustworthy,Trustworthy","","8202","","","","rating","","trustrating_stim/white_00898_960530_fa_edt.bmp","5","","","","","","","","","","",""
"image-keyboard-response","18","53056","0.0-6.0-2.6","fertuck1","bdp_trlrn","Mon Feb 27 2023 01:52:51 GMT-0500 (Eastern Standard Time)","467667","Untrustworthy,Trustworthy","","null","","","","ratingFB","","trustrating_stim/white_00898_960530_fa_edt.bmp","null","","","","","","","","","","",""
"image-keyboard-response","19","61896","0.0-6.0-1.7","fertuck1","bdp_trlrn","Mon Feb 27 2023 01:52:51 GMT-0500 (Eastern Standard Time)","467667","Untrustworthy,Trustworthy","","8729","","","","rating","","trustrating_stim/white_mw046.bmp","4","","","","","","","","","","",""
"image-keyboard-response","20","62103","0.0-6.0-2.7","fertuck1","bdp_trlrn","Mon Feb 27 2023 01:52:51 GMT-0500 (Eastern Standard Time)","467667","Untrustworthy,Trustworthy","","null","","","","ratingFB","","trustrating_stim/white_mw046.bmp","null","","","","","","","","","","",""
"image-keyboard-response","21","63674","0.0-6.0-1.8","fertuck1","bdp_trlrn","Mon Feb 27 2023 01:52:51 GMT-0500 (Eastern Standard Time)","467667","Untrustworthy,Trustworthy","","1459","","","","rating","","trustrating_stim/white_00109_931230_fa_edt.bmp","1","","","","","","","","","","",""
"image-keyboard-response","22","63879","0.0-6.0-2.8","fertuck1","bdp_trlrn","Mon Feb 27 2023 01:52:51 GMT-0500 (Eastern Standard Time)","467667","Untrustworthy,Trustworthy","","null","","","","ratingFB","","trustrating_stim/white_00109_931230_fa_edt.bmp","null","","","","","","","","","","",""
"image-keyboard-response","23","66742","0.0-6.0-1.9","fertuck1","bdp_trlrn","Mon Feb 27 2023 01:52:51 GMT-0500 (Eastern Standard Time)","467667","Untrustworthy,Trustworthy","","2747","","","","rating","","trustrating_stim/white_00761_941201_fb_edt.bmp","1","","","","","","","","","","",""
"image-keyboard-response","24","66950","0.0-6.0-2.9","fertuck1","bdp_trlrn","Mon Feb 27 2023 01:52:51 GMT-0500 (Eastern Standard Time)","467667","Untrustworthy,Trustworthy","","null","","","","ratingFB","","trustrating_stim/white_00761_941201_fb_edt.bmp","null","","","","","","","","","","",""
"image-keyboard-response","25","67909","0.0-6.0-1.10","fertuck1","bdp_trlrn","Mon Feb 27 2023 01:52:51 GMT-0500 (Eastern Standard Time)","467667","Untrustworthy,Trustworthy","","854","","","","rating","","trustrating_stim/white_00223_940128_fb_edt.bmp","1","","","","","","","","","","",""
"image-keyboard-response","26","68117","0.0-6.0-2.10","fertuck1","bdp_trlrn","Mon Feb 27 2023 01:52:51 GMT-0500 (Eastern Standard Time)","467667","Untrustworthy,Trustworthy","","null","","","","ratingFB","","trustrating_stim/white_00223_940128_fb_edt.bmp","null","","","","","","","","","","",""
"image-keyboard-response","27","70160","0.0-6.0-1.11","fertuck1","bdp_trlrn","Mon Feb 27 2023 01:52:51 GMT-0500 (Eastern Standard Time)","467667","Untrustworthy,Trustworthy","","1934","","","","rating","","trustrating_stim/white_00807_941205_fb_edt.bmp","1","","","","","","","","","","",""
"image-keyboard-response","28","70366","0.0-6.0-2.11","fertuck1","bdp_trlrn","Mon Feb 27 2023 01:52:51 GMT-0500 (Eastern Standard Time)","467667","Untrustworthy,Trustworthy","","null","","","","ratingFB","","trustrating_stim/white_00807_941205_fb_edt.bmp","null","","","","","","","","","","",""
"image-keyboard-response","29","73805","0.0-6.0-1.12","fertuck1","bdp_trlrn","Mon Feb 27 2023 01:52:51 GMT-0500 (Eastern Standard Time)","467667","Untrustworthy,Trustworthy","","3334","","","","rating","","trustrating_stim/white_mw033.bmp","3","","","","","","","","","","",""
"image-keyboard-response","30","74014","0.0-6.0-2.12","fertuck1","bdp_trlrn","Mon Feb 27 2023 01:52:51 GMT-0500 (Eastern Standard Time)","467667","Untrustworthy,Trustworthy","","null","","","","ratingFB","","trustrating_stim/white_mw033.bmp","null","","","","","","","","","","",""
"image-keyboard-response","31","75860","0.0-6.0-1.13","fertuck1","bdp_trlrn","Mon Feb 27 2023 01:52:51 GMT-0500 (Eastern Standard Time)","467667","Untrustworthy,Trustworthy","","1739","","","","rating","","trustrating_stim/white_00120_931230_fa_edt.bmp","6","","","","","","","","","","",""
"image-keyboard-response","32","76070","0.0-6.0-2.13","fertuck1","bdp_trlrn","Mon Feb 27 2023 01:52:51 GMT-0500 (Eastern Standard Time)","467667","Untrustworthy,Trustworthy","","null","","","","ratingFB","","trustrating_stim/white_00120_931230_fa_edt.bmp","null","","","","","","","","","","",""
"image-keyboard-response","33","80958","0.0-6.0-1.14","fertuck1","bdp_trlrn","Mon Feb 27 2023 01:52:51 GMT-0500 (Eastern Standard Time)","467667","Untrustworthy,Trustworthy","","4783","","","","rating","","trustrating_stim/white_00757_941201_fa_edt.bmp","1","","","","","","","","","","",""
"image-keyboard-response","34","81164","0.0-6.0-2.14","fertuck1","bdp_trlrn","Mon Feb 27 2023 01:52:51 GMT-0500 (Eastern Standard Time)","467667","Untrustworthy,Trustworthy","","null","","","","ratingFB","","trustrating_stim/white_00757_941201_fa_edt.bmp","null","","","","","","","","","","",""
"image-keyboard-response","35","82394","0.0-6.0-1.15","fertuck1","bdp_trlrn","Mon Feb 27 2023 01:52:51 GMT-0500 (Eastern Standard Time)","467667","Untrustworthy,Trustworthy","","1123","","","","rating","","trustrating_stim/white_00129_931230_fb_edt.bmp","1","","","","","","","","","","",""
"image-keyboard-response","36","82605","0.0-6.0-2.15","fertuck1","bdp_trlrn","Mon Feb 27 2023 01:52:51 GMT-0500 (Eastern Standard Time)","467667","Untrustworthy,Trustworthy","","null","","","","ratingFB","","trustrating_stim/white_00129_931230_fb_edt.bmp","null","","","","","","","","","","",""
"image-keyboard-response","37","84674","0.0-6.0-1.16","fertuck1","bdp_trlrn","Mon Feb 27 2023 01:52:51 GMT-0500 (Eastern Standard Time)","467667","Untrustworthy,Trustworthy","","1966","","","","rating","","trustrating_stim/white_00299_940422_fa_edt.bmp","1","","","","","","","","","","",""
"image-keyboard-response","38","84887","0.0-6.0-2.16","fertuck1","bdp_trlrn","Mon Feb 27 2023 01:52:51 GMT-0500 (Eastern Standard Time)","467667","Untrustworthy,Trustworthy","","null","","","","ratingFB","","trustrating_stim/white_00299_940422_fa_edt.bmp","null","","","","","","","","","","",""
"image-keyboard-response","39","85466","0.0-6.0-1.17","fertuck1","bdp_trlrn","Mon Feb 27 2023 01:52:51 GMT-0500 (Eastern Standard Time)","467667","Untrustworthy,Trustworthy","","468","","","","rating","","trustrating_stim/white_mw056.bmp","1","","","","","","","","","","",""
"image-keyboard-response","40","85679","0.0-6.0-2.17","fertuck1","bdp_trlrn","Mon Feb 27 2023 01:52:51 GMT-0500 (Eastern Standard Time)","467667","Untrustworthy,Trustworthy","","null","","","","ratingFB","","trustrating_stim/white_mw056.bmp","null","","","","","","","","","","",""
"image-keyboard-response","41","86316","0.0-6.0-1.18","fertuck1","bdp_trlrn","Mon Feb 27 2023 01:52:51 GMT-0500 (Eastern Standard Time)","467667","Untrustworthy,Trustworthy","","526","","","","rating","","trustrating_stim/white_00577_940928_fa_edt.bmp","1","","","","","","","","","","",""
"image-keyboard-response","42","86527","0.0-6.0-2.18","fertuck1","bdp_trlrn","Mon Feb 27 2023 01:52:51 GMT-0500 (Eastern Standard Time)","467667","Untrustworthy,Trustworthy","","null","","","","ratingFB","","trustrating_stim/white_00577_940928_fa_edt.bmp","null","","","","","","","","","","",""
"image-keyboard-response","43","87244","0.0-6.0-1.19","fertuck1","bdp_trlrn","Mon Feb 27 2023 01:52:51 GMT-0500 (Eastern Standard Time)","467667","Untrustworthy,Trustworthy","","606","","","","rating","","trustrating_stim/white_mw066.bmp","1","","","","","","","","","","",""
"image-keyboard-response","44","87456","0.0-6.0-2.19","fertuck1","bdp_trlrn","Mon Feb 27 2023 01:52:51 GMT-0500 (Eastern Standard Time)","467667","Untrustworthy,Trustworthy","","null","","","","ratingFB","","trustrating_stim/white_mw066.bmp","null","","","","","","","","","","",""
"image-keyboard-response","45","88316","0.0-6.0-1.20","fertuck1","bdp_trlrn","Mon Feb 27 2023 01:52:51 GMT-0500 (Eastern Standard Time)","467667","Untrustworthy,Trustworthy","","750","","","","rating","","trustrating_stim/white_mw089.bmp","1","","","","","","","","","","",""
"image-keyboard-response","46","88527","0.0-6.0-2.20","fertuck1","bdp_trlrn","Mon Feb 27 2023 01:52:51 GMT-0500 (Eastern Standard Time)","467667","Untrustworthy,Trustworthy","","null","","","","ratingFB","","trustrating_stim/white_mw089.bmp","null","","","","","","","","","","",""
"image-keyboard-response","47","89100","0.0-6.0-1.21","fertuck1","bdp_trlrn","Mon Feb 27 2023 01:52:51 GMT-0500 (Eastern Standard Time)","467667","Untrustworthy,Trustworthy","","459","","","","rating","","trustrating_stim/white_mw035.bmp","1","","","","","","","","","","",""
"image-keyboard-response","48","89311","0.0-6.0-2.21","fertuck1","bdp_trlrn","Mon Feb 27 2023 01:52:51 GMT-0500 (Eastern Standard Time)","467667","Untrustworthy,Trustworthy","","null","","","","ratingFB","","trustrating_stim/white_mw035.bmp","null","","","","","","","","","","",""
"image-keyboard-response","49","90158","0.0-6.0-1.22","fertuck1","bdp_trlrn","Mon Feb 27 2023 01:52:51 GMT-0500 (Eastern Standard Time)","467667","Untrustworthy,Trustworthy","","737","","","","rating","","trustrating_stim/white_mw084.bmp","1","","","","","","","","","","",""
"image-keyboard-response","50","90367","0.0-6.0-2.22","fertuck1","bdp_trlrn","Mon Feb 27 2023 01:52:51 GMT-0500 (Eastern Standard Time)","467667","Untrustworthy,Trustworthy","","null","","","","ratingFB","","trustrating_stim/white_mw084.bmp","null","","","","","","","","","","",""
"image-keyboard-response","51","91152","0.0-6.0-1.23","fertuck1","bdp_trlrn","Mon Feb 27 2023 01:52:51 GMT-0500 (Eastern Standard Time)","467667","Untrustworthy,Trustworthy","","680","","","","rating","","trustrating_stim/white_mw053.bmp","1","","","","","","","","","","",""
"image-keyboard-response","52","91360","0.0-6.0-2.23","fertuck1","bdp_trlrn","Mon Feb 27 2023 01:52:51 GMT-0500 (Eastern Standard Time)","467667","Untrustworthy,Trustworthy","","null","","","","ratingFB","","trustrating_stim/white_mw053.bmp","null","","","","","","","","","","",""
"image-keyboard-response","53","91880","0.0-6.0-1.24","fertuck1","bdp_trlrn","Mon Feb 27 2023 01:52:51 GMT-0500 (Eastern Standard Time)","467667","Untrustworthy,Trustworthy","","410","","","","rating","","trustrating_stim/white_mw063.bmp","1","","","","","","","","","","",""
"image-keyboard-response","54","92085","0.0-6.0-2.24","fertuck1","bdp_trlrn","Mon Feb 27 2023 01:52:51 GMT-0500 (Eastern Standard Time)","467667","Untrustworthy,Trustworthy","","null","","","","ratingFB","","trustrating_stim/white_mw063.bmp","null","","","","","","","","","","",""
"image-keyboard-response","55","92600","0.0-6.0-1.25","fertuck1","bdp_trlrn","Mon Feb 27 2023 01:52:51 GMT-0500 (Eastern Standard Time)","467667","Untrustworthy,Trustworthy","","409","","","","rating","","trustrating_stim/white_00602_940928_fb_edt.bmp","1","","","","","","","","","","",""
"image-keyboard-response","56","92808","0.0-6.0-2.25","fertuck1","bdp_trlrn","Mon Feb 27 2023 01:52:51 GMT-0500 (Eastern Standard Time)","467667","Untrustworthy,Trustworthy","","null","","","","ratingFB","","trustrating_stim/white_00602_940928_fb_edt.bmp","null","","","","","","","","","","",""
"image-keyboard-response","57","93910","0.0-6.0-1.26","fertuck1","bdp_trlrn","Mon Feb 27 2023 01:52:51 GMT-0500 (Eastern Standard Time)","467667","Untrustworthy,Trustworthy","","994","","","","rating","","trustrating_stim/white_mw097.bmp","1","","","","","","","","","","",""
"image-keyboard-response","58","94117","0.0-6.0-2.26","fertuck1","bdp_trlrn","Mon Feb 27 2023 01:52:51 GMT-0500 (Eastern Standard Time)","467667","Untrustworthy,Trustworthy","","null","","","","ratingFB","","trustrating_stim/white_mw097.bmp","null","","","","","","","","","","",""
"image-keyboard-response","59","95003","0.0-6.0-1.27","fertuck1","bdp_trlrn","Mon Feb 27 2023 01:52:51 GMT-0500 (Eastern Standard Time)","467667","Untrustworthy,Trustworthy","","781","","","","rating","","trustrating_stim/white_mw048.bmp","1","","","","","","","","","","",""
"image-keyboard-response","60","95214","0.0-6.0-2.27","fertuck1","bdp_trlrn","Mon Feb 27 2023 01:52:51 GMT-0500 (Eastern Standard Time)","467667","Untrustworthy,Trustworthy","","null","","","","ratingFB","","trustrating_stim/white_mw048.bmp","null","","","","","","","","","","",""
"image-keyboard-response","61","95801","0.0-6.0-1.28","fertuck1","bdp_trlrn","Mon Feb 27 2023 01:52:51 GMT-0500 (Eastern Standard Time)","467667","Untrustworthy,Trustworthy","","472","","","","rating","","trustrating_stim/white_00340_940422_fa_edt.bmp","1","","","","","","","","","","",""
"image-keyboard-response","62","96006","0.0-6.0-2.28","fertuck1","bdp_trlrn","Mon Feb 27 2023 01:52:51 GMT-0500 (Eastern Standard Time)","467667","Untrustworthy,Trustworthy","","null","","","","ratingFB","","trustrating_stim/white_00340_940422_fa_edt.bmp","null","","","","","","","","","","",""
"image-keyboard-response","63","96564","0.0-6.0-1.29","fertuck1","bdp_trlrn","Mon Feb 27 2023 01:52:51 GMT-0500 (Eastern Standard Time)","467667","Untrustworthy,Trustworthy","","443","","","","rating","","trustrating_stim/white_00785_941205_fb_edt.bmp","1","","","","","","","","","","",""
"image-keyboard-response","64","96767","0.0-6.0-2.29","fertuck1","bdp_trlrn","Mon Feb 27 2023 01:52:51 GMT-0500 (Eastern Standard Time)","467667","Untrustworthy,Trustworthy","","null","","","","ratingFB","","trustrating_stim/white_00785_941205_fb_edt.bmp","null","","","","","","","","","","",""
"image-keyboard-response","65","97330","0.0-6.0-1.30","fertuck1","bdp_trlrn","Mon Feb 27 2023 01:52:51 GMT-0500 (Eastern Standard Time)","467667","Untrustworthy,Trustworthy","","452","","","","rating","","trustrating_stim/white_00577_940928_fa_edt.bmp","1","","","","","","","","","","",""
"image-keyboard-response","66","97542","0.0-6.0-2.30","fertuck1","bdp_trlrn","Mon Feb 27 2023 01:52:51 GMT-0500 (Eastern Standard Time)","467667","Untrustworthy,Trustworthy","","null","","","","ratingFB","","trustrating_stim/white_00577_940928_fa_edt.bmp","null","","","","","","","","","","",""
"image-keyboard-response","67","98030","0.0-6.0-1.31","fertuck1","bdp_trlrn","Mon Feb 27 2023 01:52:51 GMT-0500 (Eastern Standard Time)","467667","Untrustworthy,Trustworthy","","375","","","","rating","","trustrating_stim/white_00299_940422_fa_edt.bmp","1","","","","","","","","","","",""
"image-keyboard-response","68","98238","0.0-6.0-2.31","fertuck1","bdp_trlrn","Mon Feb 27 2023 01:52:51 GMT-0500 (Eastern Standard Time)","467667","Untrustworthy,Trustworthy","","null","","","","ratingFB","","trustrating_stim/white_00299_940422_fa_edt.bmp","null","","","","","","","","","","",""
"image-keyboard-response","69","98731","0.0-6.0-1.32","fertuck1","bdp_trlrn","Mon Feb 27 2023 01:52:51 GMT-0500 (Eastern Standard Time)","467667","Untrustworthy,Trustworthy","","388","","","","rating","","trustrating_stim/white_00120_931230_fa_edt.bmp","1","","","","","","","","","","",""
"image-keyboard-response","70","98943","0.0-6.0-2.32","fertuck1","bdp_trlrn","Mon Feb 27 2023 01:52:51 GMT-0500 (Eastern Standard Time)","467667","Untrustworthy,Trustworthy","","null","","","","ratingFB","","trustrating_stim/white_00120_931230_fa_edt.bmp","null","","","","","","","","","","",""
"image-keyboard-response","71","101822","0.0-6.0-1.33","fertuck1","bdp_trlrn","Mon Feb 27 2023 01:52:51 GMT-0500 (Eastern Standard Time)","467667","Untrustworthy,Trustworthy","","2767","","","","rating","","trustrating_stim/white_mw099.bmp","3","","","","","","","","","","",""
"image-keyboard-response","72","102032","0.0-6.0-2.33","fertuck1","bdp_trlrn","Mon Feb 27 2023 01:52:51 GMT-0500 (Eastern Standard Time)","467667","Untrustworthy,Trustworthy","","null","","","","ratingFB","","trustrating_stim/white_mw099.bmp","null","","","","","","","","","","",""
"image-keyboard-response","73","103119","0.0-6.0-1.34","fertuck1","bdp_trlrn","Mon Feb 27 2023 01:52:51 GMT-0500 (Eastern Standard Time)","467667","Untrustworthy,Trustworthy","","977","","","","rating","","trustrating_stim/white_mw063.bmp","1","","","","","","","","","","",""
"image-keyboard-response","74","103326","0.0-6.0-2.34","fertuck1","bdp_trlrn","Mon Feb 27 2023 01:52:51 GMT-0500 (Eastern Standard Time)","467667","Untrustworthy,Trustworthy","","null","","","","ratingFB","","trustrating_stim/white_mw063.bmp","null","","","","","","","","","","",""
"image-keyboard-response","75","104134","0.0-6.0-1.35","fertuck1","bdp_trlrn","Mon Feb 27 2023 01:52:51 GMT-0500 (Eastern Standard Time)","467667","Untrustworthy,Trustworthy","","694","","","","rating","","trustrating_stim/white_00761_941201_fb_edt.bmp","1","","","","","","","","","","",""
"image-keyboard-response","76","104339","0.0-6.0-2.35","fertuck1","bdp_trlrn","Mon Feb 27 2023 01:52:51 GMT-0500 (Eastern Standard Time)","467667","Untrustworthy,Trustworthy","","null","","","","ratingFB","","trustrating_stim/white_00761_941201_fb_edt.bmp","null","","","","","","","","","","",""
"image-keyboard-response","77","105125","0.0-6.0-1.36","fertuck1","bdp_trlrn","Mon Feb 27 2023 01:52:51 GMT-0500 (Eastern Standard Time)","467667","Untrustworthy,Trustworthy","","678","","","","rating","","trustrating_stim/white_00659_941121_fa_edt.bmp","1","","","","","","","","","","",""
"image-keyboard-response","78","105332","0.0-6.0-2.36","fertuck1","bdp_trlrn","Mon Feb 27 2023 01:52:51 GMT-0500 (Eastern Standard Time)","467667","Untrustworthy,Trustworthy","","null","","","","ratingFB","","trustrating_stim/white_00659_941121_fa_edt.bmp","null","","","","","","","","","","",""
"image-keyboard-response","79","106160","0.0-6.0-1.37","fertuck1","bdp_trlrn","Mon Feb 27 2023 01:52:51 GMT-0500 (Eastern Standard Time)","467667","Untrustworthy,Trustworthy","","723","","","","rating","","trustrating_stim/white_mw071.bmp","1","","","","","","","","","","",""
"image-keyboard-response","80","106365","0.0-6.0-2.37","fertuck1","bdp_trlrn","Mon Feb 27 2023 01:52:51 GMT-0500 (Eastern Standard Time)","467667","Untrustworthy,Trustworthy","","null","","","","ratingFB","","trustrating_stim/white_mw071.bmp","null","","","","","","","","","","",""
"image-keyboard-response","81","109740","0.0-6.0-1.38","fertuck1","bdp_trlrn","Mon Feb 27 2023 01:52:51 GMT-0500 (Eastern Standard Time)","467667","Untrustworthy,Trustworthy","","3262","","","","rating","","trustrating_stim/white_mw053.bmp","4","","","","","","","","","","",""
"image-keyboard-response","82","109949","0.0-6.0-2.38","fertuck1","bdp_trlrn","Mon Feb 27 2023 01:52:51 GMT-0500 (Eastern Standard Time)","467667","Untrustworthy,Trustworthy","","null","","","","ratingFB","","trustrating_stim/white_mw053.bmp","null","","","","","","","","","","",""
"image-keyboard-response","83","111037","0.0-6.0-1.39","fertuck1","bdp_trlrn","Mon Feb 27 2023 01:52:51 GMT-0500 (Eastern Standard Time)","467667","Untrustworthy,Trustworthy","","972","","","","rating","","trustrating_stim/white_mw035.bmp","1","","","","","","","","","","",""
"image-keyboard-response","84","111247","0.0-6.0-2.39","fertuck1","bdp_trlrn","Mon Feb 27 2023 01:52:51 GMT-0500 (Eastern Standard Time)","467667","Untrustworthy,Trustworthy","","null","","","","ratingFB","","trustrating_stim/white_mw035.bmp","null","","","","","","","","","","",""
"image-keyboard-response","85","112227","0.0-6.0-1.40","fertuck1","bdp_trlrn","Mon Feb 27 2023 01:52:51 GMT-0500 (Eastern Standard Time)","467667","Untrustworthy,Trustworthy","","869","","","","rating","","trustrating_stim/white_00757_941201_fa_edt.bmp","1","","","","","","","","","","",""
"image-keyboard-response","86","112437","0.0-6.0-2.40","fertuck1","bdp_trlrn","Mon Feb 27 2023 01:52:51 GMT-0500 (Eastern Standard Time)","467667","Untrustworthy,Trustworthy","","null","","","","ratingFB","","trustrating_stim/white_00757_941201_fa_edt.bmp","null","","","","","","","","","","",""
"image-keyboard-response","87","113337","0.0-6.0-1.41","fertuck1","bdp_trlrn","Mon Feb 27 2023 01:52:51 GMT-0500 (Eastern Standard Time)","467667","Untrustworthy,Trustworthy","","789","","","","rating","","trustrating_stim/white_00340_940422_fa_edt.bmp","1","","","","","","","","","","",""
"image-keyboard-response","88","113543","0.0-6.0-2.41","fertuck1","bdp_trlrn","Mon Feb 27 2023 01:52:51 GMT-0500 (Eastern Standard Time)","467667","Untrustworthy,Trustworthy","","null","","","","ratingFB","","trustrating_stim/white_00340_940422_fa_edt.bmp","null","","","","","","","","","","",""
"image-keyboard-response","89","114697","0.0-6.0-1.42","fertuck1","bdp_trlrn","Mon Feb 27 2023 01:52:51 GMT-0500 (Eastern Standard Time)","467667","Untrustworthy,Trustworthy","","1042","","","","rating","","trustrating_stim/white_mw046.bmp","1","","","","","","","","","","",""
"image-keyboard-response","90","114901","0.0-6.0-2.42","fertuck1","bdp_trlrn","Mon Feb 27 2023 01:52:51 GMT-0500 (Eastern Standard Time)","467667","Untrustworthy,Trustworthy","","null","","","","ratingFB","","trustrating_stim/white_mw046.bmp","null","","","","","","","","","","",""
"image-keyboard-response","91","115641","0.0-6.0-1.43","fertuck1","bdp_trlrn","Mon Feb 27 2023 01:52:51 GMT-0500 (Eastern Standard Time)","467667","Untrustworthy,Trustworthy","","629","","","","rating","","trustrating_stim/white_mw097.bmp","1","","","","","","","","","","",""
"image-keyboard-response","92","115844","0.0-6.0-2.43","fertuck1","bdp_trlrn","Mon Feb 27 2023 01:52:51 GMT-0500 (Eastern Standard Time)","467667","Untrustworthy,Trustworthy","","null","","","","ratingFB","","trustrating_stim/white_mw097.bmp","null","","","","","","","","","","",""
"image-keyboard-response","93","117687","0.0-6.0-1.44","fertuck1","bdp_trlrn","Mon Feb 27 2023 01:52:51 GMT-0500 (Eastern Standard Time)","467667","Untrustworthy,Trustworthy","","1738","","","","rating","","trustrating_stim/white_00898_960530_fa_edt.bmp","1","","","","","","","","","","",""
"image-keyboard-response","94","117893","0.0-6.0-2.44","fertuck1","bdp_trlrn","Mon Feb 27 2023 01:52:51 GMT-0500 (Eastern Standard Time)","467667","Untrustworthy,Trustworthy","","null","","","","ratingFB","","trustrating_stim/white_00898_960530_fa_edt.bmp","null","","","","","","","","","","",""
"image-keyboard-response","95","118597","0.0-6.0-1.45","fertuck1","bdp_trlrn","Mon Feb 27 2023 01:52:51 GMT-0500 (Eastern Standard Time)","467667","Untrustworthy,Trustworthy","","590","","","","rating","","trustrating_stim/white_00785_941205_fb_edt.bmp","1","","","","","","","","","","",""
"image-keyboard-response","96","118805","0.0-6.0-2.45","fertuck1","bdp_trlrn","Mon Feb 27 2023 01:52:51 GMT-0500 (Eastern Standard Time)","467667","Untrustworthy,Trustworthy","","null","","","","ratingFB","","trustrating_stim/white_00785_941205_fb_edt.bmp","null","","","","","","","","","","",""
"image-keyboard-response","97","120040","0.0-6.0-1.46","fertuck1","bdp_trlrn","Mon Feb 27 2023 01:52:51 GMT-0500 (Eastern Standard Time)","467667","Untrustworthy,Trustworthy","","1124","","","","rating","","trustrating_stim/white_00602_940928_fb_edt.bmp","1","","","","","","","","","","",""
"image-keyboard-response","98","120244","0.0-6.0-2.46","fertuck1","bdp_trlrn","Mon Feb 27 2023 01:52:51 GMT-0500 (Eastern Standard Time)","467667","Untrustworthy,Trustworthy","","null","","","","ratingFB","","trustrating_stim/white_00602_940928_fb_edt.bmp","null","","","","","","","","","","",""
"image-keyboard-response","99","120929","0.0-6.0-1.47","fertuck1","bdp_trlrn","Mon Feb 27 2023 01:52:51 GMT-0500 (Eastern Standard Time)","467667","Untrustworthy,Trustworthy","","573","","","","rating","","trustrating_stim/white_mw033.bmp","1","","","","","","","","","","",""
"image-keyboard-response","100","121138","0.0-6.0-2.47","fertuck1","bdp_trlrn","Mon Feb 27 2023 01:52:51 GMT-0500 (Eastern Standard Time)","467667","Untrustworthy,Trustworthy","","null","","","","ratingFB","","trustrating_stim/white_mw033.bmp","null","","","","","","","","","","",""
"image-keyboard-response","101","122297","0.0-6.0-1.48","fertuck1","bdp_trlrn","Mon Feb 27 2023 01:52:51 GMT-0500 (Eastern Standard Time)","467667","Untrustworthy,Trustworthy","","1051","","","","rating","","trustrating_stim/white_00807_941205_fb_edt.bmp","1","","","","","","","","","","",""
"image-keyboard-response","102","122508","0.0-6.0-2.48","fertuck1","bdp_trlrn","Mon Feb 27 2023 01:52:51 GMT-0500 (Eastern Standard Time)","467667","Untrustworthy,Trustworthy","","null","","","","ratingFB","","trustrating_stim/white_00807_941205_fb_edt.bmp","null","","","","","","","","","","",""
"image-keyboard-response","103","123389","0.0-6.0-1.49","fertuck1","bdp_trlrn","Mon Feb 27 2023 01:52:51 GMT-0500 (Eastern Standard Time)","467667","Untrustworthy,Trustworthy","","768","","","","rating","","trustrating_stim/white_00129_931230_fb_edt.bmp","1","","","","","","","","","","",""
"image-keyboard-response","104","123597","0.0-6.0-2.49","fertuck1","bdp_trlrn","Mon Feb 27 2023 01:52:51 GMT-0500 (Eastern Standard Time)","467667","Untrustworthy,Trustworthy","","null","","","","ratingFB","","trustrating_stim/white_00129_931230_fb_edt.bmp","null","","","","","","","","","","",""
"image-keyboard-response","105","124313","0.0-6.0-1.50","fertuck1","bdp_trlrn","Mon Feb 27 2023 01:52:51 GMT-0500 (Eastern Standard Time)","467667","Untrustworthy,Trustworthy","","602","","","","rating","","trustrating_stim/white_mw066.bmp","1","","","","","","","","","","",""
"image-keyboard-response","106","124517","0.0-6.0-2.50","fertuck1","bdp_trlrn","Mon Feb 27 2023 01:52:51 GMT-0500 (Eastern Standard Time)","467667","Untrustworthy,Trustworthy","","null","","","","ratingFB","","trustrating_stim/white_mw066.bmp","null","","","","","","","","","","",""
"image-keyboard-response","107","125170","0.0-6.0-1.51","fertuck1","bdp_trlrn","Mon Feb 27 2023 01:52:51 GMT-0500 (Eastern Standard Time)","467667","Untrustworthy,Trustworthy","","541","","","","rating","","trustrating_stim/white_mw048.bmp","1","","","","","","","","","","",""
"image-keyboard-response","108","125381","0.0-6.0-2.51","fertuck1","bdp_trlrn","Mon Feb 27 2023 01:52:51 GMT-0500 (Eastern Standard Time)","467667","Untrustworthy,Trustworthy","","null","","","","ratingFB","","trustrating_stim/white_mw048.bmp","null","","","","","","","","","","",""
"image-keyboard-response","109","126028","0.0-6.0-1.52","fertuck1","bdp_trlrn","Mon Feb 27 2023 01:52:51 GMT-0500 (Eastern Standard Time)","467667","Untrustworthy,Trustworthy","","535","","","","rating","","trustrating_stim/white_00223_940128_fb_edt.bmp","1","","","","","","","","","","",""
"image-keyboard-response","110","126237","0.0-6.0-2.52","fertuck1","bdp_trlrn","Mon Feb 27 2023 01:52:51 GMT-0500 (Eastern Standard Time)","467667","Untrustworthy,Trustworthy","","null","","","","ratingFB","","trustrating_stim/white_00223_940128_fb_edt.bmp","null","","","","","","","","","","",""
"image-keyboard-response","111","127092","0.0-6.0-1.53","fertuck1","bdp_trlrn","Mon Feb 27 2023 01:52:51 GMT-0500 (Eastern Standard Time)","467667","Untrustworthy,Trustworthy","","741","","","","rating","","trustrating_stim/white_mw089.bmp","1","","","","","","","","","","",""
"image-keyboard-response","112","127303","0.0-6.0-2.53","fertuck1","bdp_trlrn","Mon Feb 27 2023 01:52:51 GMT-0500 (Eastern Standard Time)","467667","Untrustworthy,Trustworthy","","null","","","","ratingFB","","trustrating_stim/white_mw089.bmp","null","","","","","","","","","","",""
"image-keyboard-response","113","128318","0.0-6.0-1.54","fertuck1","bdp_trlrn","Mon Feb 27 2023 01:52:51 GMT-0500 (Eastern Standard Time)","467667","Untrustworthy,Trustworthy","","906","","","","rating","","trustrating_stim/white_mw084.bmp","1","","","","","","","","","","",""
"image-keyboard-response","114","128525","0.0-6.0-2.54","fertuck1","bdp_trlrn","Mon Feb 27 2023 01:52:51 GMT-0500 (Eastern Standard Time)","467667","Untrustworthy,Trustworthy","","null","","","","ratingFB","","trustrating_stim/white_mw084.bmp","null","","","","","","","","","","",""
"image-keyboard-response","115","131600","0.0-6.0-1.55","fertuck1","bdp_trlrn","Mon Feb 27 2023 01:52:51 GMT-0500 (Eastern Standard Time)","467667","Untrustworthy,Trustworthy","","2960","","","","rating","","trustrating_stim/white_00109_931230_fa_edt.bmp","1","","","","","","","","","","",""
"image-keyboard-response","116","131805","0.0-6.0-2.55","fertuck1","bdp_trlrn","Mon Feb 27 2023 01:52:51 GMT-0500 (Eastern Standard Time)","467667","Untrustworthy,Trustworthy","","null","","","","ratingFB","","trustrating_stim/white_00109_931230_fa_edt.bmp","null","","","","","","","","","","",""
"image-keyboard-response","117","132564","0.0-6.0-1.56","fertuck1","bdp_trlrn","Mon Feb 27 2023 01:52:51 GMT-0500 (Eastern Standard Time)","467667","Untrustworthy,Trustworthy","","645","","","","rating","","trustrating_stim/white_mw060.bmp","1","","","","","","","","","","",""
"image-keyboard-response","118","132771","0.0-6.0-2.56","fertuck1","bdp_trlrn","Mon Feb 27 2023 01:52:51 GMT-0500 (Eastern Standard Time)","467667","Untrustworthy,Trustworthy","","null","","","","ratingFB","","trustrating_stim/white_mw060.bmp","null","","","","","","","","","","",""
"image-keyboard-response","119","133750","0.0-6.0-1.57","fertuck1","bdp_trlrn","Mon Feb 27 2023 01:52:51 GMT-0500 (Eastern Standard Time)","467667","Untrustworthy,Trustworthy","","871","","","","rating","","trustrating_stim/white_00519_940519_fb_edt.bmp","1","","","","","","","","","","",""
"image-keyboard-response","120","133956","0.0-6.0-2.57","fertuck1","bdp_trlrn","Mon Feb 27 2023 01:52:51 GMT-0500 (Eastern Standard Time)","467667","Untrustworthy,Trustworthy","","null","","","","ratingFB","","trustrating_stim/white_00519_940519_fb_edt.bmp","null","","","","","","","","","","",""
"image-keyboard-response","121","135428","0.0-6.0-1.58","fertuck1","bdp_trlrn","Mon Feb 27 2023 01:52:51 GMT-0500 (Eastern Standard Time)","467667","Untrustworthy,Trustworthy","","1360","","","","rating","","trustrating_stim/white_mw056.bmp","1","","","","","","","","","","",""
"image-keyboard-response","122","135630","0.0-6.0-2.58","fertuck1","bdp_trlrn","Mon Feb 27 2023 01:52:51 GMT-0500 (Eastern Standard Time)","467667","Untrustworthy,Trustworthy","","null","","","","ratingFB","","trustrating_stim/white_mw056.bmp","null","","","","","","","","","","",""
"image-keyboard-response","123","136259","0.0-6.0-1.59","fertuck1","bdp_trlrn","Mon Feb 27 2023 01:52:51 GMT-0500 (Eastern Standard Time)","467667","Untrustworthy,Trustworthy","","518","","","","rating","","trustrating_stim/white_mw049.bmp","1","","","","","","","","","","",""
"image-keyboard-response","124","136466","0.0-6.0-2.59","fertuck1","bdp_trlrn","Mon Feb 27 2023 01:52:51 GMT-0500 (Eastern Standard Time)","467667","Untrustworthy,Trustworthy","","null","","","","ratingFB","","trustrating_stim/white_mw049.bmp","null","","","","","","","","","","",""
"instructions","125","137835","0.0-7.0","fertuck1","bdp_trlrn","Mon Feb 27 2023 01:52:51 GMT-0500 (Eastern Standard Time)","467667","Untrustworthy,Trustworthy","[{""page_index"":0,""viewing_time"":1260}]","1261","","","","","","","","","","","","","","","","","",""
"instructions","126","163755","0.0-8.0","fertuck1","bdp_trlrn","Mon Feb 27 2023 01:52:51 GMT-0500 (Eastern Standard Time)","467667","Untrustworthy,Trustworthy","[{""page_index"":0,""viewing_time"":6412},{""page_index"":1,""viewing_time"":6260},{""page_index"":2,""viewing_time"":1180},{""page_index"":3,""viewing_time"":5367},{""page_index"":4,""viewing_time"":1939},{""page_index"":5,""viewing_time"":2075},{""page_index"":6,""viewing_time"":1457},{""page_index"":7,""viewing_time"":1123}]","25813","","","","","","","","","","","","","","","","","",""
"html-keyboard-response","127","172105","0.0-9.0","fertuck1","bdp_trlrn","Mon Feb 27 2023 01:52:51 GMT-0500 (Eastern Standard Time)","467667","Untrustworthy,Trustworthy","","8349","","","","","","<div class='header' style='text-align:left; position: absolute; top: 5%; left: 5%;'><small>Task 4 of 5</small></div><div class='instruxDiv'><p><strong>1) What is the minimum number of points you can choose to send to your partner?</strong></p><p>a) 0</p><p>b) 1</p><p>c) 5</p>","B","","","","","","","","","","",""
"html-keyboard-response","128","173940","0.0-10.0","fertuck1","bdp_trlrn","Mon Feb 27 2023 01:52:51 GMT-0500 (Eastern Standard Time)","467667","Untrustworthy,Trustworthy","","1729","","","","","","<div class='header' style='text-align:left; position: absolute; top: 5%; left: 5%;'><small>Task 4 of 5</small></div><div class='instruxDiv'><p><strong>1) What is the minimum number of points you can choose to send to your partner?</strong></p><p>a) 0</p><p style='color:#00FF00'>b) 1</p><p>c) 5</p><h3 style='color:#00FF00'>Correct!</h3><h3 class='center-content'>The correct response is b).</h3><h3 class='center-content'>The minimum number of points you can choose to send to your partner is 1 point.</h3><p><em>Press SPACEBAR to continue</em></p></div>"," ","","","","","","","","","","",""
"html-keyboard-response","129","177606","0.0-11.0","fertuck1","bdp_trlrn","Mon Feb 27 2023 01:52:51 GMT-0500 (Eastern Standard Time)","467667","Untrustworthy,Trustworthy","","3562","","","","","","<div class='header' style='text-align:left; position: absolute; top: 5%; left: 5%;'><small>Task 4 of 5</small></div><div class='instruxDiv'><p><strong>2) What is the maximum number of points you can choose to send to your partner?</strong></p><p>a) 8</p><p>b) 5</p><p>c) 3</p>","B","","","","","","","","","","",""
"html-keyboard-response","130","178750","0.0-12.0","fertuck1","bdp_trlrn","Mon Feb 27 2023 01:52:51 GMT-0500 (Eastern Standard Time)","467667","Untrustworthy,Trustworthy","","1033","","","","","","<div class='header' style='text-align:left; position: absolute; top: 5%; left: 5%;'><small>Task 4 of 5</small></div><div class='instruxDiv'><p><strong>2) What is the maximum number of points you can choose to send to your partner?</strong></p><p>a) 8</p><p style='color:#00FF00'>b) 5</p><p>c) 3</p><h3 style='color:#00FF00'>Correct!</h3><h3 class='center-content'>The correct response is b).</h3><h3 class='center-content'>The maximum number of points you can choose to send to your partner is 5 points.</h3><p><em>Press SPACEBAR to continue</em></p></div>"," ","","","","","","","","","","",""
"html-keyboard-response","131","182446","0.0-13.0","fertuck1","bdp_trlrn","Mon Feb 27 2023 01:52:51 GMT-0500 (Eastern Standard Time)","467667","Untrustworthy,Trustworthy","","3586","","","","","","<div class='header' style='text-align:left; position: absolute; top: 5%; left: 5%;'><small>Task 4 of 5</small></div><div class='instruxDiv'><p><strong>3) What happens to the amount of points you send to your partner?</strong></p><p>a) Nothing</p><p>b) It doubles</p><p>c) It quadruples</p>","B","","","","","","","","","","",""
"html-keyboard-response","132","185037","0.0-14.0","fertuck1","bdp_trlrn","Mon Feb 27 2023 01:52:51 GMT-0500 (Eastern Standard Time)","467667","Untrustworthy,Trustworthy","","2480","","","","","","<div class='header' style='text-align:left; position: absolute; top: 5%; left: 5%;'><small>Task 4 of 5</small></div><div class='instruxDiv'><p><strong>3) What happens to the amount of points you send to your partner?</strong></p><p>a) Nothing</p><p style='color:#FF0000'>b) It doubles</p><p>c) It quadruples</p><h3 style='color:#FF0000'>Incorrect!</h3><h3 class='center-content'>The correct response is c).</h3><h3 class='center-content'>The amount of points you send to your partner quadruples.</h3><p><em>Press SPACEBAR to continue</em></p></div>"," ","","","","","","","","","","",""
"html-keyboard-response","133","200237","0.0-15.0","fertuck1","bdp_trlrn","Mon Feb 27 2023 01:52:51 GMT-0500 (Eastern Standard Time)","467667","Untrustworthy,Trustworthy","","15088","","","","","","<div class='header' style='text-align:left; position: absolute; top: 5%; left: 5%;'><small>Task 4 of 5</small></div><div class='instruxDiv'><p><strong>4) If you decided to share 4 out of 5 points with your partner, and they decided to share half of the amount they received with you, how many points would you receive back from them on this round?</strong></p><p>a) 16</p><p>b) 0</p><p>c) 8</p>","C","","","","","","","","","","",""
"html-keyboard-response","134","201290","0.0-16.0","fertuck1","bdp_trlrn","Mon Feb 27 2023 01:52:51 GMT-0500 (Eastern Standard Time)","467667","Untrustworthy,Trustworthy","","941","","","","","","<div class='header' style='text-align:left; position: absolute; top: 5%; left: 5%;'><small>Task 4 of 5</small></div><div class='instruxDiv'><p><strong>4) If you decided to share 4 out of 5 points with your partner, and they decided to share half of the amount they received with you, how many points would you receive back from them on this round?</strong></p><p>a) 16</p><p>b) 0</p><p style='color:#00FF00'>c) 8</p><h3 style='color:#00FF00'>Correct!</h3><h3 class='center-content'>The correct response is c).</h3><h3 class='center-content'>If you shared 4 out of 5 points with your partner and they decided to share half of the amount they received with you, you would receive 8 points back (i.e. (4 x 4)/2 = 8).</h3><p><em>Press SPACEBAR to continue</em></p></div>"," ","","","","","","","","","","",""
"html-keyboard-response","135","206403","0.0-17.0","fertuck1","bdp_trlrn","Mon Feb 27 2023 01:52:51 GMT-0500 (Eastern Standard Time)","467667","Untrustworthy,Trustworthy","","null","","","","","","<div class='header' style='text-align:left; position: absolute; top: 5%; left: 5%;'><small>Task 4 of 5</small></div><div class='instruxDiv'><p>Thank you for completing the quiz<p>These are the actual partners you will be interacting with in the next block:<p><div class='tc' align='center'><img class='introPic' src='trustrating_stim/white_mw048.bmp'><br><strong>Aaron</strong></div><div class='bl' align='center'><img class='introPic' src='trustrating_stim/white_00340_940422_fa_edt.bmp'><br><strong>Jason</strong></div><div class='br' align='center'><img class='introPic' src='trustrating_stim/white_00519_940519_fb_edt.bmp'><br><strong>Joseph</strong></div></div><p>Across <strong>66 rounds</strong> you will interact with each partner <strong>22 times</strong> (in random order).<p style='align:center; color:white'><font <em>Press SPACEBAR to continue</em></p>","null","","","","","","","","","","",""
"instructions","136","208398","0.0-18.0","fertuck1","bdp_trlrn","Mon Feb 27 2023 01:52:51 GMT-0500 (Eastern Standard Time)","467667","Untrustworthy,Trustworthy","[{""page_index"":0,""viewing_time"":601},{""page_index"":1,""viewing_time"":1391}]","1993","","","","","","","","","","","","","","","","","",""
"html-keyboard-response","137","212046","0.0-19.0-1.0","fertuck1","bdp_trlrn","Mon Feb 27 2023 01:52:51 GMT-0500 (Eastern Standard Time)","467667","Untrustworthy,Trustworthy","","3537","","","","decision","","<div class='trialDiv'><img src='trustrating_stim/white_mw048.bmp'><br><font class='baseline'><strong>Aaron</strong><p>Choose number of points to send.</font><div class='respPicDiv'><img src='img/responseButtonOffersNo0L.png' class='respPic'></div></div>","2","1","Aaron","0","Kept","0.35,0.8","9","0.35","trustrating_stim/white_mw048.bmp","1","5","1"
"html-keyboard-response","138","212307","0.0-19.0-2.0","fertuck1","bdp_trlrn","Mon Feb 27 2023 01:52:51 GMT-0500 (Eastern Standard Time)","467667","Untrustworthy,Trustworthy","","null","","","","decisionFB","","<div class='trialDiv'><img src='trustrating_stim/white_mw048.bmp'><br><font class='baseline'><strong>Aaron</strong><p>Choose number of points to send.</font><div class='respPicDiv'><img src='img/responseButtonOffersNo0L2.png' class='respPic'></div></div>","null","1","Aaron","0","Kept","0.35,0.8","9","0.35","trustrating_stim/white_mw048.bmp","1","3","1"
"html-keyboard-response","139","213314","0.0-19.0-3.0","fertuck1","bdp_trlrn","Mon Feb 27 2023 01:52:51 GMT-0500 (Eastern Standard Time)","467667","Untrustworthy,Trustworthy","","null","","","","feedback","","<div class='trialDiv'><img src='trustrating_stim/white_mw048.bmp'><br><font class='baseline'><strong>Aaron</strong><p>Received: <strong>8</strong></font> &nbsp; &nbsp; &nbsp; &nbsp; &nbsp; &nbsp;<font class='negOutcome'>Shared back: <strong>0</strong></font></font><div class='respPicDiv'><img src='img/responseButtonOffersNo0_wht.png' class='respPic'></div></div>","null","1","Aaron","0","Kept","0.35,0.8","9","0.35","trustrating_stim/white_mw048.bmp","1","3","1"
"html-keyboard-response","140","213981","0.0-19.0-1.1","fertuck1","bdp_trlrn","Mon Feb 27 2023 01:52:51 GMT-0500 (Eastern Standard Time)","467667","Untrustworthy,Trustworthy","","666","","","","decision","","<div class='trialDiv'><img src='trustrating_stim/white_00340_940422_fa_edt.bmp'><br><font class='baseline'><strong>Jason</strong><p>Choose number of points to send.</font><div class='respPicDiv'><img src='img/responseButtonOffersNo0L.png' class='respPic'></div></div>","1","1","Jason","5","Kept","0.65,0.2","12","0.65","trustrating_stim/white_00340_940422_fa_edt.bmp","1","8","2"
"html-keyboard-response","141","214243","0.0-19.0-2.1","fertuck1","bdp_trlrn","Mon Feb 27 2023 01:52:51 GMT-0500 (Eastern Standard Time)","467667","Untrustworthy,Trustworthy","","null","","","","decisionFB","","<div class='trialDiv'><img src='trustrating_stim/white_00340_940422_fa_edt.bmp'><br><font class='baseline'><strong>Jason</strong><p>Choose number of points to send.</font><div class='respPicDiv'><img src='img/responseButtonOffersNo0L1.png' class='respPic'></div></div>","null","1","Jason","5","Kept","0.65,0.2","12","0.65","trustrating_stim/white_00340_940422_fa_edt.bmp","1","7","2"
"html-keyboard-response","142","215252","0.0-19.0-3.1","fertuck1","bdp_trlrn","Mon Feb 27 2023 01:52:51 GMT-0500 (Eastern Standard Time)","467667","Untrustworthy,Trustworthy","","null","","","","feedback","","<div class='trialDiv'><img src='trustrating_stim/white_00340_940422_fa_edt.bmp'><br><font class='baseline'><strong>Jason</strong><p>Received: <strong>4</strong></font> &nbsp; &nbsp; &nbsp; &nbsp; &nbsp; &nbsp;<font class='negOutcome'>Shared back: <strong>0</strong></font></font><div class='respPicDiv'><img src='img/responseButtonOffersNo0_wht.png' class='respPic'></div></div>","null","1","Jason","5","Kept","0.65,0.2","12","0.65","trustrating_stim/white_00340_940422_fa_edt.bmp","1","7","2"
"html-keyboard-response","143","215532","0.0-19.0-1.2","fertuck1","bdp_trlrn","Mon Feb 27 2023 01:52:51 GMT-0500 (Eastern Standard Time)","467667","Untrustworthy,Trustworthy","","278","","","","decision","","<div class='trialDiv'><img src='trustrating_stim/white_00519_940519_fb_edt.bmp'><br><font class='baseline'><strong>Joseph</strong><p>Choose number of points to send.</font><div class='respPicDiv'><img src='img/responseButtonOffersNo0L.png' class='respPic'></div></div>","3","1","Joseph","10","Kept","0.2,0.8","11","0.2","trustrating_stim/white_00519_940519_fb_edt.bmp","3.5","12","3"
"html-keyboard-response","144","215786","0.0-19.0-2.2","fertuck1","bdp_trlrn","Mon Feb 27 2023 01:52:51 GMT-0500 (Eastern Standard Time)","467667","Untrustworthy,Trustworthy","","null","","","","decisionFB","","<div class='trialDiv'><img src='trustrating_stim/white_00519_940519_fb_edt.bmp'><br><font class='baseline'><strong>Joseph</strong><p>Choose number of points to send.</font><div class='respPicDiv'><img src='img/responseButtonOffersNo0L3.png' class='respPic'></div></div>","null","1","Joseph","10","Kept","0.2,0.8","11","0.2","trustrating_stim/white_00519_940519_fb_edt.bmp","3.5","9","3"
"html-keyboard-response","145","216797","0.0-19.0-3.2","fertuck1","bdp_trlrn","Mon Feb 27 2023 01:52:51 GMT-0500 (Eastern Standard Time)","467667","Untrustworthy,Trustworthy","","null","","","","feedback","","<div class='trialDiv'><img src='trustrating_stim/white_00519_940519_fb_edt.bmp'><br><font class='baseline'><strong>Joseph</strong><p>Received: <strong>12</strong></font> &nbsp; &nbsp; &nbsp; &nbsp; &nbsp; &nbsp;<font class='negOutcome'>Shared back: <strong>0</strong></font></font><div class='respPicDiv'><img src='img/responseButtonOffersNo0_wht.png' class='respPic'></div></div>","null","1","Joseph","10","Kept","0.2,0.8","11","0.2","trustrating_stim/white_00519_940519_fb_edt.bmp","3.5","9","3"
"html-keyboard-response","146","217249","0.0-19.0-1.3","fertuck1","bdp_trlrn","Mon Feb 27 2023 01:52:51 GMT-0500 (Eastern Standard Time)","467667","Untrustworthy,Trustworthy","","450","","","","decision","","<div class='trialDiv'><img src='trustrating_stim/white_mw048.bmp'><br><font class='baseline'><strong>Aaron</strong><p>Choose number of points to send.</font><div class='respPicDiv'><img src='img/responseButtonOffersNo0L.png' class='respPic'></div></div>","1","2","Aaron","0","Shared","0.35,0.8","9","0.35","trustrating_stim/white_mw048.bmp","1","14","4"
"html-keyboard-response","147","217505","0.0-19.0-2.3","fertuck1","bdp_trlrn","Mon Feb 27 2023 01:52:51 GMT-0500 (Eastern Standard Time)","467667","Untrustworthy,Trustworthy","","null","","","","decisionFB","","<div class='trialDiv'><img src='trustrating_stim/white_mw048.bmp'><br><font class='baseline'><strong>Aaron</strong><p>Choose number of points to send.</font><div class='respPicDiv'><img src='img/responseButtonOffersNo0L1.png' class='respPic'></div></div>","null","2","Aaron","0","Shared","0.35,0.8","9","0.35","trustrating_stim/white_mw048.bmp","1","13","4"
"html-keyboard-response","148","218515","0.0-19.0-3.3","fertuck1","bdp_trlrn","Mon Feb 27 2023 01:52:51 GMT-0500 (Eastern Standard Time)","467667","Untrustworthy,Trustworthy","","null","","","","feedback","","<div class='trialDiv'><img src='trustrating_stim/white_mw048.bmp'><br><font class='baseline'><strong>Aaron</strong><p>Received: <strong>4</strong></font> &nbsp; &nbsp; &nbsp; &nbsp; &nbsp; &nbsp;<font class='posOutcome'>Shared back: <strong>2</strong></font></font><div class='respPicDiv'><img src='img/responseButtonOffersNo0_wht.png' class='respPic'></div></div>","null","2","Aaron","0","Shared","0.35,0.8","9","0.35","trustrating_stim/white_mw048.bmp","1","15","4"
"html-keyboard-response","149","218825","0.0-19.0-1.4","fertuck1","bdp_trlrn","Mon Feb 27 2023 01:52:51 GMT-0500 (Eastern Standard Time)","467667","Untrustworthy,Trustworthy","","308","","","","decision","","<div class='trialDiv'><img src='trustrating_stim/white_00519_940519_fb_edt.bmp'><br><font class='baseline'><strong>Joseph</strong><p>Choose number of points to send.</font><div class='respPicDiv'><img src='img/responseButtonOffersNo0L.png' class='respPic'></div></div>","1","2","Joseph","10","Shared","0.2,0.8","11","0.2","trustrating_stim/white_00519_940519_fb_edt.bmp","3.5","20","5"
"html-keyboard-response","150","219084","0.0-19.0-2.4","fertuck1","bdp_trlrn","Mon Feb 27 2023 01:52:51 GMT-0500 (Eastern Standard Time)","467667","Untrustworthy,Trustworthy","","null","","","","decisionFB","","<div class='trialDiv'><img src='trustrating_stim/white_00519_940519_fb_edt.bmp'><br><font class='baseline'><strong>Joseph</strong><p>Choose number of points to send.</font><div class='respPicDiv'><img src='img/responseButtonOffersNo0L1.png' class='respPic'></div></div>","null","2","Joseph","10","Shared","0.2,0.8","11","0.2","trustrating_stim/white_00519_940519_fb_edt.bmp","3.5","19","5"
"html-keyboard-response","151","220090","0.0-19.0-3.4","fertuck1","bdp_trlrn","Mon Feb 27 2023 01:52:51 GMT-0500 (Eastern Standard Time)","467667","Untrustworthy,Trustworthy","","null","","","","feedback","","<div class='trialDiv'><img src='trustrating_stim/white_00519_940519_fb_edt.bmp'><br><font class='baseline'><strong>Joseph</strong><p>Received: <strong>4</strong></font> &nbsp; &nbsp; &nbsp; &nbsp; &nbsp; &nbsp;<font class='posOutcome'>Shared back: <strong>2</strong></font></font><div class='respPicDiv'><img src='img/responseButtonOffersNo0_wht.png' class='respPic'></div></div>","null","2","Joseph","10","Shared","0.2,0.8","11","0.2","trustrating_stim/white_00519_940519_fb_edt.bmp","3.5","21","5"
"html-keyboard-response","152","220859","0.0-19.0-1.5","fertuck1","bdp_trlrn","Mon Feb 27 2023 01:52:51 GMT-0500 (Eastern Standard Time)","467667","Untrustworthy,Trustworthy","","768","","","","decision","","<div class='trialDiv'><img src='trustrating_stim/white_00340_940422_fa_edt.bmp'><br><font class='baseline'><strong>Jason</strong><p>Choose number of points to send.</font><div class='respPicDiv'><img src='img/responseButtonOffersNo0L.png' class='respPic'></div></div>","1","2","Jason","5","Kept","0.65,0.2","12","0.65","trustrating_stim/white_00340_940422_fa_edt.bmp","1","26","6"
"html-keyboard-response","153","221114","0.0-19.0-2.5","fertuck1","bdp_trlrn","Mon Feb 27 2023 01:52:51 GMT-0500 (Eastern Standard Time)","467667","Untrustworthy,Trustworthy","","null","","","","decisionFB","","<div class='trialDiv'><img src='trustrating_stim/white_00340_940422_fa_edt.bmp'><br><font class='baseline'><strong>Jason</strong><p>Choose number of points to send.</font><div class='respPicDiv'><img src='img/responseButtonOffersNo0L1.png' class='respPic'></div></div>","null","2","Jason","5","Kept","0.65,0.2","12","0.65","trustrating_stim/white_00340_940422_fa_edt.bmp","1","25","6"
"html-keyboard-response","154","222122","0.0-19.0-3.5","fertuck1","bdp_trlrn","Mon Feb 27 2023 01:52:51 GMT-0500 (Eastern Standard Time)","467667","Untrustworthy,Trustworthy","","null","","","","feedback","","<div class='trialDiv'><img src='trustrating_stim/white_00340_940422_fa_edt.bmp'><br><font class='baseline'><strong>Jason</strong><p>Received: <strong>4</strong></font> &nbsp; &nbsp; &nbsp; &nbsp; &nbsp; &nbsp;<font class='negOutcome'>Shared back: <strong>0</strong></font></font><div class='respPicDiv'><img src='img/responseButtonOffersNo0_wht.png' class='respPic'></div></div>","null","2","Jason","5","Kept","0.65,0.2","12","0.65","trustrating_stim/white_00340_940422_fa_edt.bmp","1","25","6"
"html-keyboard-response","155","224090","0.0-19.0-1.6","fertuck1","bdp_trlrn","Mon Feb 27 2023 01:52:51 GMT-0500 (Eastern Standard Time)","467667","Untrustworthy,Trustworthy","","1966","","","","decision","","<div class='trialDiv'><img src='trustrating_stim/white_00519_940519_fb_edt.bmp'><br><font class='baseline'><strong>Joseph</strong><p>Choose number of points to send.</font><div class='respPicDiv'><img src='img/responseButtonOffersNo0L.png' class='respPic'></div></div>","3","3","Joseph","10","Kept","0.2,0.8","11","0.2","trustrating_stim/white_00519_940519_fb_edt.bmp","3.5","30","7"
"html-keyboard-response","156","224344","0.0-19.0-2.6","fertuck1","bdp_trlrn","Mon Feb 27 2023 01:52:51 GMT-0500 (Eastern Standard Time)","467667","Untrustworthy,Trustworthy","","null","","","","decisionFB","","<div class='trialDiv'><img src='trustrating_stim/white_00519_940519_fb_edt.bmp'><br><font class='baseline'><strong>Joseph</strong><p>Choose number of points to send.</font><div class='respPicDiv'><img src='img/responseButtonOffersNo0L3.png' class='respPic'></div></div>","null","3","Joseph","10","Kept","0.2,0.8","11","0.2","trustrating_stim/white_00519_940519_fb_edt.bmp","3.5","27","7"
"html-keyboard-response","157","225354","0.0-19.0-3.6","fertuck1","bdp_trlrn","Mon Feb 27 2023 01:52:51 GMT-0500 (Eastern Standard Time)","467667","Untrustworthy,Trustworthy","","null","","","","feedback","","<div class='trialDiv'><img src='trustrating_stim/white_00519_940519_fb_edt.bmp'><br><font class='baseline'><strong>Joseph</strong><p>Received: <strong>12</strong></font> &nbsp; &nbsp; &nbsp; &nbsp; &nbsp; &nbsp;<font class='negOutcome'>Shared back: <strong>0</strong></font></font><div class='respPicDiv'><img src='img/responseButtonOffersNo0_wht.png' class='respPic'></div></div>","null","3","Joseph","10","Kept","0.2,0.8","11","0.2","trustrating_stim/white_00519_940519_fb_edt.bmp","3.5","27","7"
"html-keyboard-response","158","225649","0.0-19.0-1.7","fertuck1","bdp_trlrn","Mon Feb 27 2023 01:52:51 GMT-0500 (Eastern Standard Time)","467667","Untrustworthy,Trustworthy","","293","","","","decision","","<div class='trialDiv'><img src='trustrating_stim/white_00340_940422_fa_edt.bmp'><br><font class='baseline'><strong>Jason</strong><p>Choose number of points to send.</font><div class='respPicDiv'><img src='img/responseButtonOffersNo0L.png' class='respPic'></div></div>","5","3","Jason","5","Kept","0.65,0.2","12","0.65","trustrating_stim/white_00340_940422_fa_edt.bmp","1","32","8"
"html-keyboard-response","159","225903","0.0-19.0-2.7","fertuck1","bdp_trlrn","Mon Feb 27 2023 01:52:51 GMT-0500 (Eastern Standard Time)","467667","Untrustworthy,Trustworthy","","null","","","","decisionFB","","<div class='trialDiv'><img src='trustrating_stim/white_00340_940422_fa_edt.bmp'><br><font class='baseline'><strong>Jason</strong><p>Choose number of points to send.</font><div class='respPicDiv'><img src='img/responseButtonOffersNo0L5.png' class='respPic'></div></div>","null","3","Jason","5","Kept","0.65,0.2","12","0.65","trustrating_stim/white_00340_940422_fa_edt.bmp","1","27","8"
"html-keyboard-response","160","226913","0.0-19.0-3.7","fertuck1","bdp_trlrn","Mon Feb 27 2023 01:52:51 GMT-0500 (Eastern Standard Time)","467667","Untrustworthy,Trustworthy","","null","","","","feedback","","<div class='trialDiv'><img src='trustrating_stim/white_00340_940422_fa_edt.bmp'><br><font class='baseline'><strong>Jason</strong><p>Received: <strong>20</strong></font> &nbsp; &nbsp; &nbsp; &nbsp; &nbsp; &nbsp;<font class='negOutcome'>Shared back: <strong>0</strong></font></font><div class='respPicDiv'><img src='img/responseButtonOffersNo0_wht.png' class='respPic'></div></div>","null","3","Jason","5","Kept","0.65,0.2","12","0.65","trustrating_stim/white_00340_940422_fa_edt.bmp","1","27","8"
"html-keyboard-response","161","227230","0.0-19.0-1.8","fertuck1","bdp_trlrn","Mon Feb 27 2023 01:52:51 GMT-0500 (Eastern Standard Time)","467667","Untrustworthy,Trustworthy","","315","","","","decision","","<div class='trialDiv'><img src='trustrating_stim/white_mw048.bmp'><br><font class='baseline'><strong>Aaron</strong><p>Choose number of points to send.</font><div class='respPicDiv'><img src='img/responseButtonOffersNo0L.png' class='respPic'></div></div>","2","3","Aaron","0","Kept","0.35,0.8","9","0.35","trustrating_stim/white_mw048.bmp","1","32","9"
"html-keyboard-response","162","227488","0.0-19.0-2.8","fertuck1","bdp_trlrn","Mon Feb 27 2023 01:52:51 GMT-0500 (Eastern Standard Time)","467667","Untrustworthy,Trustworthy","","null","","","","decisionFB","","<div class='trialDiv'><img src='trustrating_stim/white_mw048.bmp'><br><font class='baseline'><strong>Aaron</strong><p>Choose number of points to send.</font><div class='respPicDiv'><img src='img/responseButtonOffersNo0L2.png' class='respPic'></div></div>","null","3","Aaron","0","Kept","0.35,0.8","9","0.35","trustrating_stim/white_mw048.bmp","1","30","9"
"html-keyboard-response","163","228498","0.0-19.0-3.8","fertuck1","bdp_trlrn","Mon Feb 27 2023 01:52:51 GMT-0500 (Eastern Standard Time)","467667","Untrustworthy,Trustworthy","","null","","","","feedback","","<div class='trialDiv'><img src='trustrating_stim/white_mw048.bmp'><br><font class='baseline'><strong>Aaron</strong><p>Received: <strong>8</strong></font> &nbsp; &nbsp; &nbsp; &nbsp; &nbsp; &nbsp;<font class='negOutcome'>Shared back: <strong>0</strong></font></font><div class='respPicDiv'><img src='img/responseButtonOffersNo0_wht.png' class='respPic'></div></div>","null","3","Aaron","0","Kept","0.35,0.8","9","0.35","trustrating_stim/white_mw048.bmp","1","30","9"
"html-keyboard-response","164","228923","0.0-19.0-1.9","fertuck1","bdp_trlrn","Mon Feb 27 2023 01:52:51 GMT-0500 (Eastern Standard Time)","467667","Untrustworthy,Trustworthy","","423","","","","decision","","<div class='trialDiv'><img src='trustrating_stim/white_00340_940422_fa_edt.bmp'><br><font class='baseline'><strong>Jason</strong><p>Choose number of points to send.</font><div class='respPicDiv'><img src='img/responseButtonOffersNo0L.png' class='respPic'></div></div>","3","4","Jason","5","Shared","0.65,0.2","12","0.65","trustrating_stim/white_00340_940422_fa_edt.bmp","1","35","10"
"html-keyboard-response","165","229177","0.0-19.0-2.9","fertuck1","bdp_trlrn","Mon Feb 27 2023 01:52:51 GMT-0500 (Eastern Standard Time)","467667","Untrustworthy,Trustworthy","","null","","","","decisionFB","","<div class='trialDiv'><img src='trustrating_stim/white_00340_940422_fa_edt.bmp'><br><font class='baseline'><strong>Jason</strong><p>Choose number of points to send.</font><div class='respPicDiv'><img src='img/responseButtonOffersNo0L3.png' class='respPic'></div></div>","null","4","Jason","5","Shared","0.65,0.2","12","0.65","trustrating_stim/white_00340_940422_fa_edt.bmp","1","32","10"
"html-keyboard-response","166","230186","0.0-19.0-3.9","fertuck1","bdp_trlrn","Mon Feb 27 2023 01:52:51 GMT-0500 (Eastern Standard Time)","467667","Untrustworthy,Trustworthy","","null","","","","feedback","","<div class='trialDiv'><img src='trustrating_stim/white_00340_940422_fa_edt.bmp'><br><font class='baseline'><strong>Jason</strong><p>Received: <strong>12</strong></font> &nbsp; &nbsp; &nbsp; &nbsp; &nbsp; &nbsp;<font class='posOutcome'>Shared back: <strong>6</strong></font></font><div class='respPicDiv'><img src='img/responseButtonOffersNo0_wht.png' class='respPic'></div></div>","null","4","Jason","5","Shared","0.65,0.2","12","0.65","trustrating_stim/white_00340_940422_fa_edt.bmp","1","38","10"
"html-keyboard-response","167","230415","0.0-19.0-1.10","fertuck1","bdp_trlrn","Mon Feb 27 2023 01:52:51 GMT-0500 (Eastern Standard Time)","467667","Untrustworthy,Trustworthy","","227","","","","decision","","<div class='trialDiv'><img src='trustrating_stim/white_00519_940519_fb_edt.bmp'><br><font class='baseline'><strong>Joseph</strong><p>Choose number of points to send.</font><div class='respPicDiv'><img src='img/responseButtonOffersNo0L.png' class='respPic'></div></div>","2","4","Joseph","10","Kept","0.2,0.8","11","0.2","trustrating_stim/white_00519_940519_fb_edt.bmp","3.5","43","11"
"html-keyboard-response","168","230671","0.0-19.0-2.10","fertuck1","bdp_trlrn","Mon Feb 27 2023 01:52:51 GMT-0500 (Eastern Standard Time)","467667","Untrustworthy,Trustworthy","","null","","","","decisionFB","","<div class='trialDiv'><img src='trustrating_stim/white_00519_940519_fb_edt.bmp'><br><font class='baseline'><strong>Joseph</strong><p>Choose number of points to send.</font><div class='respPicDiv'><img src='img/responseButtonOffersNo0L2.png' class='respPic'></div></div>","null","4","Joseph","10","Kept","0.2,0.8","11","0.2","trustrating_stim/white_00519_940519_fb_edt.bmp","3.5","41","11"
"html-keyboard-response","169","231678","0.0-19.0-3.10","fertuck1","bdp_trlrn","Mon Feb 27 2023 01:52:51 GMT-0500 (Eastern Standard Time)","467667","Untrustworthy,Trustworthy","","null","","","","feedback","","<div class='trialDiv'><img src='trustrating_stim/white_00519_940519_fb_edt.bmp'><br><font class='baseline'><strong>Joseph</strong><p>Received: <strong>8</strong></font> &nbsp; &nbsp; &nbsp; &nbsp; &nbsp; &nbsp;<font class='negOutcome'>Shared back: <strong>0</strong></font></font><div class='respPicDiv'><img src='img/responseButtonOffersNo0_wht.png' class='respPic'></div></div>","null","4","Joseph","10","Kept","0.2,0.8","11","0.2","trustrating_stim/white_00519_940519_fb_edt.bmp","3.5","41","11"
"html-keyboard-response","170","232192","0.0-19.0-1.11","fertuck1","bdp_trlrn","Mon Feb 27 2023 01:52:51 GMT-0500 (Eastern Standard Time)","467667","Untrustworthy,Trustworthy","","513","","","","decision","","<div class='trialDiv'><img src='trustrating_stim/white_mw048.bmp'><br><font class='baseline'><strong>Aaron</strong><p>Choose number of points to send.</font><div class='respPicDiv'><img src='img/responseButtonOffersNo0L.png' class='respPic'></div></div>","3","4","Aaron","0","Kept","0.35,0.8","9","0.35","trustrating_stim/white_mw048.bmp","1","46","12"
"html-keyboard-response","171","232450","0.0-19.0-2.11","fertuck1","bdp_trlrn","Mon Feb 27 2023 01:52:51 GMT-0500 (Eastern Standard Time)","467667","Untrustworthy,Trustworthy","","null","","","","decisionFB","","<div class='trialDiv'><img src='trustrating_stim/white_mw048.bmp'><br><font class='baseline'><strong>Aaron</strong><p>Choose number of points to send.</font><div class='respPicDiv'><img src='img/responseButtonOffersNo0L3.png' class='respPic'></div></div>","null","4","Aaron","0","Kept","0.35,0.8","9","0.35","trustrating_stim/white_mw048.bmp","1","43","12"
"html-keyboard-response","172","233457","0.0-19.0-3.11","fertuck1","bdp_trlrn","Mon Feb 27 2023 01:52:51 GMT-0500 (Eastern Standard Time)","467667","Untrustworthy,Trustworthy","","null","","","","feedback","","<div class='trialDiv'><img src='trustrating_stim/white_mw048.bmp'><br><font class='baseline'><strong>Aaron</strong><p>Received: <strong>12</strong></font> &nbsp; &nbsp; &nbsp; &nbsp; &nbsp; &nbsp;<font class='negOutcome'>Shared back: <strong>0</strong></font></font><div class='respPicDiv'><img src='img/responseButtonOffersNo0_wht.png' class='respPic'></div></div>","null","4","Aaron","0","Kept","0.35,0.8","9","0.35","trustrating_stim/white_mw048.bmp","1","43","12"
"html-keyboard-response","173","233733","0.0-19.0-1.12","fertuck1","bdp_trlrn","Mon Feb 27 2023 01:52:51 GMT-0500 (Eastern Standard Time)","467667","Untrustworthy,Trustworthy","","274","","","","decision","","<div class='trialDiv'><img src='trustrating_stim/white_00340_940422_fa_edt.bmp'><br><font class='baseline'><strong>Jason</strong><p>Choose number of points to send.</font><div class='respPicDiv'><img src='img/responseButtonOffersNo0L.png' class='respPic'></div></div>","4","5","Jason","5","Kept","0.65,0.2","12","0.65","trustrating_stim/white_00340_940422_fa_edt.bmp","1","48","13"
"html-keyboard-response","174","233994","0.0-19.0-2.12","fertuck1","bdp_trlrn","Mon Feb 27 2023 01:52:51 GMT-0500 (Eastern Standard Time)","467667","Untrustworthy,Trustworthy","","null","","","","decisionFB","","<div class='trialDiv'><img src='trustrating_stim/white_00340_940422_fa_edt.bmp'><br><font class='baseline'><strong>Jason</strong><p>Choose number of points to send.</font><div class='respPicDiv'><img src='img/responseButtonOffersNo0L4.png' class='respPic'></div></div>","null","5","Jason","5","Kept","0.65,0.2","12","0.65","trustrating_stim/white_00340_940422_fa_edt.bmp","1","44","13"
"html-keyboard-response","175","235001","0.0-19.0-3.12","fertuck1","bdp_trlrn","Mon Feb 27 2023 01:52:51 GMT-0500 (Eastern Standard Time)","467667","Untrustworthy,Trustworthy","","null","","","","feedback","","<div class='trialDiv'><img src='trustrating_stim/white_00340_940422_fa_edt.bmp'><br><font class='baseline'><strong>Jason</strong><p>Received: <strong>16</strong></font> &nbsp; &nbsp; &nbsp; &nbsp; &nbsp; &nbsp;<font class='negOutcome'>Shared back: <strong>0</strong></font></font><div class='respPicDiv'><img src='img/responseButtonOffersNo0_wht.png' class='respPic'></div></div>","null","5","Jason","5","Kept","0.65,0.2","12","0.65","trustrating_stim/white_00340_940422_fa_edt.bmp","1","44","13"
"html-keyboard-response","176","235338","0.0-19.0-1.13","fertuck1","bdp_trlrn","Mon Feb 27 2023 01:52:51 GMT-0500 (Eastern Standard Time)","467667","Untrustworthy,Trustworthy","","335","","","","decision","","<div class='trialDiv'><img src='trustrating_stim/white_mw048.bmp'><br><font class='baseline'><strong>Aaron</strong><p>Choose number of points to send.</font><div class='respPicDiv'><img src='img/responseButtonOffersNo0L.png' class='respPic'></div></div>","5","5","Aaron","0","Shared","0.35,0.8","9","0.35","trustrating_stim/white_mw048.bmp","1","49","14"
"html-keyboard-response","177","235593","0.0-19.0-2.13","fertuck1","bdp_trlrn","Mon Feb 27 2023 01:52:51 GMT-0500 (Eastern Standard Time)","467667","Untrustworthy,Trustworthy","","null","","","","decisionFB","","<div class='trialDiv'><img src='trustrating_stim/white_mw048.bmp'><br><font class='baseline'><strong>Aaron</strong><p>Choose number of points to send.</font><div class='respPicDiv'><img src='img/responseButtonOffersNo0L5.png' class='respPic'></div></div>","null","5","Aaron","0","Shared","0.35,0.8","9","0.35","trustrating_stim/white_mw048.bmp","1","44","14"
"html-keyboard-response","178","236600","0.0-19.0-3.13","fertuck1","bdp_trlrn","Mon Feb 27 2023 01:52:51 GMT-0500 (Eastern Standard Time)","467667","Untrustworthy,Trustworthy","","null","","","","feedback","","<div class='trialDiv'><img src='trustrating_stim/white_mw048.bmp'><br><font class='baseline'><strong>Aaron</strong><p>Received: <strong>20</strong></font> &nbsp; &nbsp; &nbsp; &nbsp; &nbsp; &nbsp;<font class='posOutcome'>Shared back: <strong>10</strong></font></font><div class='respPicDiv'><img src='img/responseButtonOffersNo0_wht.png' class='respPic'></div></div>","null","5","Aaron","0","Shared","0.35,0.8","9","0.35","trustrating_stim/white_mw048.bmp","1","54","14"
"html-keyboard-response","179","236876","0.0-19.0-1.14","fertuck1","bdp_trlrn","Mon Feb 27 2023 01:52:51 GMT-0500 (Eastern Standard Time)","467667","Untrustworthy,Trustworthy","","274","","","","decision","","<div class='trialDiv'><img src='trustrating_stim/white_00519_940519_fb_edt.bmp'><br><font class='baseline'><strong>Joseph</strong><p>Choose number of points to send.</font><div class='respPicDiv'><img src='img/responseButtonOffersNo0L.png' class='respPic'></div></div>","5","5","Joseph","10","Kept","0.2,0.8","11","0.2","trustrating_stim/white_00519_940519_fb_edt.bmp","3.5","59","15"
"html-keyboard-response","180","237138","0.0-19.0-2.14","fertuck1","bdp_trlrn","Mon Feb 27 2023 01:52:51 GMT-0500 (Eastern Standard Time)","467667","Untrustworthy,Trustworthy","","null","","","","decisionFB","","<div class='trialDiv'><img src='trustrating_stim/white_00519_940519_fb_edt.bmp'><br><font class='baseline'><strong>Joseph</strong><p>Choose number of points to send.</font><div class='respPicDiv'><img src='img/responseButtonOffersNo0L5.png' class='respPic'></div></div>","null","5","Joseph","10","Kept","0.2,0.8","11","0.2","trustrating_stim/white_00519_940519_fb_edt.bmp","3.5","54","15"
"html-keyboard-response","181","238141","0.0-19.0-3.14","fertuck1","bdp_trlrn","Mon Feb 27 2023 01:52:51 GMT-0500 (Eastern Standard Time)","467667","Untrustworthy,Trustworthy","","null","","","","feedback","","<div class='trialDiv'><img src='trustrating_stim/white_00519_940519_fb_edt.bmp'><br><font class='baseline'><strong>Joseph</strong><p>Received: <strong>20</strong></font> &nbsp; &nbsp; &nbsp; &nbsp; &nbsp; &nbsp;<font class='negOutcome'>Shared back: <strong>0</strong></font></font><div class='respPicDiv'><img src='img/responseButtonOffersNo0_wht.png' class='respPic'></div></div>","null","5","Joseph","10","Kept","0.2,0.8","11","0.2","trustrating_stim/white_00519_940519_fb_edt.bmp","3.5","54","15"
"html-keyboard-response","182","238456","0.0-19.0-1.15","fertuck1","bdp_trlrn","Mon Feb 27 2023 01:52:51 GMT-0500 (Eastern Standard Time)","467667","Untrustworthy,Trustworthy","","313","","","","decision","","<div class='trialDiv'><img src='trustrating_stim/white_00340_940422_fa_edt.bmp'><br><font class='baseline'><strong>Jason</strong><p>Choose number of points to send.</font><div class='respPicDiv'><img src='img/responseButtonOffersNo0L.png' class='respPic'></div></div>","2","6","Jason","5","Shared","0.65,0.2","12","0.65","trustrating_stim/white_00340_940422_fa_edt.bmp","1","59","16"
"html-keyboard-response","183","238710","0.0-19.0-2.15","fertuck1","bdp_trlrn","Mon Feb 27 2023 01:52:51 GMT-0500 (Eastern Standard Time)","467667","Untrustworthy,Trustworthy","","null","","","","decisionFB","","<div class='trialDiv'><img src='trustrating_stim/white_00340_940422_fa_edt.bmp'><br><font class='baseline'><strong>Jason</strong><p>Choose number of points to send.</font><div class='respPicDiv'><img src='img/responseButtonOffersNo0L2.png' class='respPic'></div></div>","null","6","Jason","5","Shared","0.65,0.2","12","0.65","trustrating_stim/white_00340_940422_fa_edt.bmp","1","57","16"
"html-keyboard-response","184","239720","0.0-19.0-3.15","fertuck1","bdp_trlrn","Mon Feb 27 2023 01:52:51 GMT-0500 (Eastern Standard Time)","467667","Untrustworthy,Trustworthy","","null","","","","feedback","","<div class='trialDiv'><img src='trustrating_stim/white_00340_940422_fa_edt.bmp'><br><font class='baseline'><strong>Jason</strong><p>Received: <strong>8</strong></font> &nbsp; &nbsp; &nbsp; &nbsp; &nbsp; &nbsp;<font class='posOutcome'>Shared back: <strong>4</strong></font></font><div class='respPicDiv'><img src='img/responseButtonOffersNo0_wht.png' class='respPic'></div></div>","null","6","Jason","5","Shared","0.65,0.2","12","0.65","trustrating_stim/white_00340_940422_fa_edt.bmp","1","61","16"
"html-keyboard-response","185","240046","0.0-19.0-1.16","fertuck1","bdp_trlrn","Mon Feb 27 2023 01:52:51 GMT-0500 (Eastern Standard Time)","467667","Untrustworthy,Trustworthy","","324","","","","decision","","<div class='trialDiv'><img src='trustrating_stim/white_00519_940519_fb_edt.bmp'><br><font class='baseline'><strong>Joseph</strong><p>Choose number of points to send.</font><div class='respPicDiv'><img src='img/responseButtonOffersNo0L.png' class='respPic'></div></div>","5","6","Joseph","10","Shared","0.2,0.8","11","0.2","trustrating_stim/white_00519_940519_fb_edt.bmp","3.5","66","17"
"html-keyboard-response","186","240303","0.0-19.0-2.16","fertuck1","bdp_trlrn","Mon Feb 27 2023 01:52:51 GMT-0500 (Eastern Standard Time)","467667","Untrustworthy,Trustworthy","","null","","","","decisionFB","","<div class='trialDiv'><img src='trustrating_stim/white_00519_940519_fb_edt.bmp'><br><font class='baseline'><strong>Joseph</strong><p>Choose number of points to send.</font><div class='respPicDiv'><img src='img/responseButtonOffersNo0L5.png' class='respPic'></div></div>","null","6","Joseph","10","Shared","0.2,0.8","11","0.2","trustrating_stim/white_00519_940519_fb_edt.bmp","3.5","61","17"
"html-keyboard-response","187","241313","0.0-19.0-3.16","fertuck1","bdp_trlrn","Mon Feb 27 2023 01:52:51 GMT-0500 (Eastern Standard Time)","467667","Untrustworthy,Trustworthy","","null","","","","feedback","","<div class='trialDiv'><img src='trustrating_stim/white_00519_940519_fb_edt.bmp'><br><font class='baseline'><strong>Joseph</strong><p>Received: <strong>20</strong></font> &nbsp; &nbsp; &nbsp; &nbsp; &nbsp; &nbsp;<font class='posOutcome'>Shared back: <strong>10</strong></font></font><div class='respPicDiv'><img src='img/responseButtonOffersNo0_wht.png' class='respPic'></div></div>","null","6","Joseph","10","Shared","0.2,0.8","11","0.2","trustrating_stim/white_00519_940519_fb_edt.bmp","3.5","71","17"
"html-keyboard-response","188","241561","0.0-19.0-1.17","fertuck1","bdp_trlrn","Mon Feb 27 2023 01:52:51 GMT-0500 (Eastern Standard Time)","467667","Untrustworthy,Trustworthy","","246","","","","decision","","<div class='trialDiv'><img src='trustrating_stim/white_mw048.bmp'><br><font class='baseline'><strong>Aaron</strong><p>Choose number of points to send.</font><div class='respPicDiv'><img src='img/responseButtonOffersNo0L.png' class='respPic'></div></div>","5","6","Aaron","0","Shared","0.35,0.8","9","0.35","trustrating_stim/white_mw048.bmp","1","76","18"
"html-keyboard-response","189","241824","0.0-19.0-2.17","fertuck1","bdp_trlrn","Mon Feb 27 2023 01:52:51 GMT-0500 (Eastern Standard Time)","467667","Untrustworthy,Trustworthy","","null","","","","decisionFB","","<div class='trialDiv'><img src='trustrating_stim/white_mw048.bmp'><br><font class='baseline'><strong>Aaron</strong><p>Choose number of points to send.</font><div class='respPicDiv'><img src='img/responseButtonOffersNo0L5.png' class='respPic'></div></div>","null","6","Aaron","0","Shared","0.35,0.8","9","0.35","trustrating_stim/white_mw048.bmp","1","71","18"
"html-keyboard-response","190","242834","0.0-19.0-3.17","fertuck1","bdp_trlrn","Mon Feb 27 2023 01:52:51 GMT-0500 (Eastern Standard Time)","467667","Untrustworthy,Trustworthy","","null","","","","feedback","","<div class='trialDiv'><img src='trustrating_stim/white_mw048.bmp'><br><font class='baseline'><strong>Aaron</strong><p>Received: <strong>20</strong></font> &nbsp; &nbsp; &nbsp; &nbsp; &nbsp; &nbsp;<font class='posOutcome'>Shared back: <strong>10</strong></font></font><div class='respPicDiv'><img src='img/responseButtonOffersNo0_wht.png' class='respPic'></div></div>","null","6","Aaron","0","Shared","0.35,0.8","9","0.35","trustrating_stim/white_mw048.bmp","1","81","18"
"html-keyboard-response","191","243125","0.0-19.0-1.18","fertuck1","bdp_trlrn","Mon Feb 27 2023 01:52:51 GMT-0500 (Eastern Standard Time)","467667","Untrustworthy,Trustworthy","","290","","","","decision","","<div class='trialDiv'><img src='trustrating_stim/white_00340_940422_fa_edt.bmp'><br><font class='baseline'><strong>Jason</strong><p>Choose number of points to send.</font><div class='respPicDiv'><img src='img/responseButtonOffersNo0L.png' class='respPic'></div></div>","5","7","Jason","5","Shared","0.65,0.2","12","0.65","trustrating_stim/white_00340_940422_fa_edt.bmp","1","86","19"
"html-keyboard-response","192","243383","0.0-19.0-2.18","fertuck1","bdp_trlrn","Mon Feb 27 2023 01:52:51 GMT-0500 (Eastern Standard Time)","467667","Untrustworthy,Trustworthy","","null","","","","decisionFB","","<div class='trialDiv'><img src='trustrating_stim/white_00340_940422_fa_edt.bmp'><br><font class='baseline'><strong>Jason</strong><p>Choose number of points to send.</font><div class='respPicDiv'><img src='img/responseButtonOffersNo0L5.png' class='respPic'></div></div>","null","7","Jason","5","Shared","0.65,0.2","12","0.65","trustrating_stim/white_00340_940422_fa_edt.bmp","1","81","19"
"html-keyboard-response","193","244393","0.0-19.0-3.18","fertuck1","bdp_trlrn","Mon Feb 27 2023 01:52:51 GMT-0500 (Eastern Standard Time)","467667","Untrustworthy,Trustworthy","","null","","","","feedback","","<div class='trialDiv'><img src='trustrating_stim/white_00340_940422_fa_edt.bmp'><br><font class='baseline'><strong>Jason</strong><p>Received: <strong>20</strong></font> &nbsp; &nbsp; &nbsp; &nbsp; &nbsp; &nbsp;<font class='posOutcome'>Shared back: <strong>10</strong></font></font><div class='respPicDiv'><img src='img/responseButtonOffersNo0_wht.png' class='respPic'></div></div>","null","7","Jason","5","Shared","0.65,0.2","12","0.65","trustrating_stim/white_00340_940422_fa_edt.bmp","1","91","19"
"html-keyboard-response","194","244687","0.0-19.0-1.19","fertuck1","bdp_trlrn","Mon Feb 27 2023 01:52:51 GMT-0500 (Eastern Standard Time)","467667","Untrustworthy,Trustworthy","","293","","","","decision","","<div class='trialDiv'><img src='trustrating_stim/white_00519_940519_fb_edt.bmp'><br><font class='baseline'><strong>Joseph</strong><p>Choose number of points to send.</font><div class='respPicDiv'><img src='img/responseButtonOffersNo0L.png' class='respPic'></div></div>","5","7","Joseph","10","Kept","0.2,0.8","11","0.2","trustrating_stim/white_00519_940519_fb_edt.bmp","3.5","96","20"
"html-keyboard-response","195","244941","0.0-19.0-2.19","fertuck1","bdp_trlrn","Mon Feb 27 2023 01:52:51 GMT-0500 (Eastern Standard Time)","467667","Untrustworthy,Trustworthy","","null","","","","decisionFB","","<div class='trialDiv'><img src='trustrating_stim/white_00519_940519_fb_edt.bmp'><br><font class='baseline'><strong>Joseph</strong><p>Choose number of points to send.</font><div class='respPicDiv'><img src='img/responseButtonOffersNo0L5.png' class='respPic'></div></div>","null","7","Joseph","10","Kept","0.2,0.8","11","0.2","trustrating_stim/white_00519_940519_fb_edt.bmp","3.5","91","20"
"html-keyboard-response","196","245951","0.0-19.0-3.19","fertuck1","bdp_trlrn","Mon Feb 27 2023 01:52:51 GMT-0500 (Eastern Standard Time)","467667","Untrustworthy,Trustworthy","","null","","","","feedback","","<div class='trialDiv'><img src='trustrating_stim/white_00519_940519_fb_edt.bmp'><br><font class='baseline'><strong>Joseph</strong><p>Received: <strong>20</strong></font> &nbsp; &nbsp; &nbsp; &nbsp; &nbsp; &nbsp;<font class='negOutcome'>Shared back: <strong>0</strong></font></font><div class='respPicDiv'><img src='img/responseButtonOffersNo0_wht.png' class='respPic'></div></div>","null","7","Joseph","10","Kept","0.2,0.8","11","0.2","trustrating_stim/white_00519_940519_fb_edt.bmp","3.5","91","20"
"html-keyboard-response","197","246241","0.0-19.0-1.20","fertuck1","bdp_trlrn","Mon Feb 27 2023 01:52:51 GMT-0500 (Eastern Standard Time)","467667","Untrustworthy,Trustworthy","","287","","","","decision","","<div class='trialDiv'><img src='trustrating_stim/white_mw048.bmp'><br><font class='baseline'><strong>Aaron</strong><p>Choose number of points to send.</font><div class='respPicDiv'><img src='img/responseButtonOffersNo0L.png' class='respPic'></div></div>","5","7","Aaron","0","Kept","0.35,0.8","9","0.35","trustrating_stim/white_mw048.bmp","1","96","21"
"html-keyboard-response","198","246497","0.0-19.0-2.20","fertuck1","bdp_trlrn","Mon Feb 27 2023 01:52:51 GMT-0500 (Eastern Standard Time)","467667","Untrustworthy,Trustworthy","","null","","","","decisionFB","","<div class='trialDiv'><img src='trustrating_stim/white_mw048.bmp'><br><font class='baseline'><strong>Aaron</strong><p>Choose number of points to send.</font><div class='respPicDiv'><img src='img/responseButtonOffersNo0L5.png' class='respPic'></div></div>","null","7","Aaron","0","Kept","0.35,0.8","9","0.35","trustrating_stim/white_mw048.bmp","1","91","21"
"html-keyboard-response","199","247501","0.0-19.0-3.20","fertuck1","bdp_trlrn","Mon Feb 27 2023 01:52:51 GMT-0500 (Eastern Standard Time)","467667","Untrustworthy,Trustworthy","","null","","","","feedback","","<div class='trialDiv'><img src='trustrating_stim/white_mw048.bmp'><br><font class='baseline'><strong>Aaron</strong><p>Received: <strong>20</strong></font> &nbsp; &nbsp; &nbsp; &nbsp; &nbsp; &nbsp;<font class='negOutcome'>Shared back: <strong>0</strong></font></font><div class='respPicDiv'><img src='img/responseButtonOffersNo0_wht.png' class='respPic'></div></div>","null","7","Aaron","0","Kept","0.35,0.8","9","0.35","trustrating_stim/white_mw048.bmp","1","91","21"
"html-keyboard-response","200","247789","0.0-19.0-1.21","fertuck1","bdp_trlrn","Mon Feb 27 2023 01:52:51 GMT-0500 (Eastern Standard Time)","467667","Untrustworthy,Trustworthy","","286","","","","decision","","<div class='trialDiv'><img src='trustrating_stim/white_00340_940422_fa_edt.bmp'><br><font class='baseline'><strong>Jason</strong><p>Choose number of points to send.</font><div class='respPicDiv'><img src='img/responseButtonOffersNo0L.png' class='respPic'></div></div>","5","8","Jason","5","Shared","0.65,0.2","12","0.65","trustrating_stim/white_00340_940422_fa_edt.bmp","1","96","22"
"html-keyboard-response","201","248047","0.0-19.0-2.21","fertuck1","bdp_trlrn","Mon Feb 27 2023 01:52:51 GMT-0500 (Eastern Standard Time)","467667","Untrustworthy,Trustworthy","","null","","","","decisionFB","","<div class='trialDiv'><img src='trustrating_stim/white_00340_940422_fa_edt.bmp'><br><font class='baseline'><strong>Jason</strong><p>Choose number of points to send.</font><div class='respPicDiv'><img src='img/responseButtonOffersNo0L5.png' class='respPic'></div></div>","null","8","Jason","5","Shared","0.65,0.2","12","0.65","trustrating_stim/white_00340_940422_fa_edt.bmp","1","91","22"
"html-keyboard-response","202","249057","0.0-19.0-3.21","fertuck1","bdp_trlrn","Mon Feb 27 2023 01:52:51 GMT-0500 (Eastern Standard Time)","467667","Untrustworthy,Trustworthy","","null","","","","feedback","","<div class='trialDiv'><img src='trustrating_stim/white_00340_940422_fa_edt.bmp'><br><font class='baseline'><strong>Jason</strong><p>Received: <strong>20</strong></font> &nbsp; &nbsp; &nbsp; &nbsp; &nbsp; &nbsp;<font class='posOutcome'>Shared back: <strong>10</strong></font></font><div class='respPicDiv'><img src='img/responseButtonOffersNo0_wht.png' class='respPic'></div></div>","null","8","Jason","5","Shared","0.65,0.2","12","0.65","trustrating_stim/white_00340_940422_fa_edt.bmp","1","101","22"
"html-keyboard-response","203","249341","0.0-19.0-1.22","fertuck1","bdp_trlrn","Mon Feb 27 2023 01:52:51 GMT-0500 (Eastern Standard Time)","467667","Untrustworthy,Trustworthy","","283","","","","decision","","<div class='trialDiv'><img src='trustrating_stim/white_mw048.bmp'><br><font class='baseline'><strong>Aaron</strong><p>Choose number of points to send.</font><div class='respPicDiv'><img src='img/responseButtonOffersNo0L.png' class='respPic'></div></div>","5","8","Aaron","0","Kept","0.35,0.8","9","0.35","trustrating_stim/white_mw048.bmp","1","106","23"
"html-keyboard-response","204","249597","0.0-19.0-2.22","fertuck1","bdp_trlrn","Mon Feb 27 2023 01:52:51 GMT-0500 (Eastern Standard Time)","467667","Untrustworthy,Trustworthy","","null","","","","decisionFB","","<div class='trialDiv'><img src='trustrating_stim/white_mw048.bmp'><br><font class='baseline'><strong>Aaron</strong><p>Choose number of points to send.</font><div class='respPicDiv'><img src='img/responseButtonOffersNo0L5.png' class='respPic'></div></div>","null","8","Aaron","0","Kept","0.35,0.8","9","0.35","trustrating_stim/white_mw048.bmp","1","101","23"
"html-keyboard-response","205","250607","0.0-19.0-3.22","fertuck1","bdp_trlrn","Mon Feb 27 2023 01:52:51 GMT-0500 (Eastern Standard Time)","467667","Untrustworthy,Trustworthy","","null","","","","feedback","","<div class='trialDiv'><img src='trustrating_stim/white_mw048.bmp'><br><font class='baseline'><strong>Aaron</strong><p>Received: <strong>20</strong></font> &nbsp; &nbsp; &nbsp; &nbsp; &nbsp; &nbsp;<font class='negOutcome'>Shared back: <strong>0</strong></font></font><div class='respPicDiv'><img src='img/responseButtonOffersNo0_wht.png' class='respPic'></div></div>","null","8","Aaron","0","Kept","0.35,0.8","9","0.35","trustrating_stim/white_mw048.bmp","1","101","23"
"html-keyboard-response","206","250890","0.0-19.0-1.23","fertuck1","bdp_trlrn","Mon Feb 27 2023 01:52:51 GMT-0500 (Eastern Standard Time)","467667","Untrustworthy,Trustworthy","","282","","","","decision","","<div class='trialDiv'><img src='trustrating_stim/white_00519_940519_fb_edt.bmp'><br><font class='baseline'><strong>Joseph</strong><p>Choose number of points to send.</font><div class='respPicDiv'><img src='img/responseButtonOffersNo0L.png' class='respPic'></div></div>","5","8","Joseph","10","Kept","0.2,0.8","11","0.2","trustrating_stim/white_00519_940519_fb_edt.bmp","3.5","106","24"
"html-keyboard-response","207","251149","0.0-19.0-2.23","fertuck1","bdp_trlrn","Mon Feb 27 2023 01:52:51 GMT-0500 (Eastern Standard Time)","467667","Untrustworthy,Trustworthy","","null","","","","decisionFB","","<div class='trialDiv'><img src='trustrating_stim/white_00519_940519_fb_edt.bmp'><br><font class='baseline'><strong>Joseph</strong><p>Choose number of points to send.</font><div class='respPicDiv'><img src='img/responseButtonOffersNo0L5.png' class='respPic'></div></div>","null","8","Joseph","10","Kept","0.2,0.8","11","0.2","trustrating_stim/white_00519_940519_fb_edt.bmp","3.5","101","24"
"html-keyboard-response","208","252156","0.0-19.0-3.23","fertuck1","bdp_trlrn","Mon Feb 27 2023 01:52:51 GMT-0500 (Eastern Standard Time)","467667","Untrustworthy,Trustworthy","","null","","","","feedback","","<div class='trialDiv'><img src='trustrating_stim/white_00519_940519_fb_edt.bmp'><br><font class='baseline'><strong>Joseph</strong><p>Received: <strong>20</strong></font> &nbsp; &nbsp; &nbsp; &nbsp; &nbsp; &nbsp;<font class='negOutcome'>Shared back: <strong>0</strong></font></font><div class='respPicDiv'><img src='img/responseButtonOffersNo0_wht.png' class='respPic'></div></div>","null","8","Joseph","10","Kept","0.2,0.8","11","0.2","trustrating_stim/white_00519_940519_fb_edt.bmp","3.5","101","24"
"html-keyboard-response","209","252404","0.0-19.0-1.24","fertuck1","bdp_trlrn","Mon Feb 27 2023 01:52:51 GMT-0500 (Eastern Standard Time)","467667","Untrustworthy,Trustworthy","","246","","","","decision","","<div class='trialDiv'><img src='trustrating_stim/white_00340_940422_fa_edt.bmp'><br><font class='baseline'><strong>Jason</strong><p>Choose number of points to send.</font><div class='respPicDiv'><img src='img/responseButtonOffersNo0L.png' class='respPic'></div></div>","5","9","Jason","5","Shared","0.65,0.2","12","0.65","trustrating_stim/white_00340_940422_fa_edt.bmp","1","106","25"
"html-keyboard-response","210","252656","0.0-19.0-2.24","fertuck1","bdp_trlrn","Mon Feb 27 2023 01:52:51 GMT-0500 (Eastern Standard Time)","467667","Untrustworthy,Trustworthy","","null","","","","decisionFB","","<div class='trialDiv'><img src='trustrating_stim/white_00340_940422_fa_edt.bmp'><br><font class='baseline'><strong>Jason</strong><p>Choose number of points to send.</font><div class='respPicDiv'><img src='img/responseButtonOffersNo0L5.png' class='respPic'></div></div>","null","9","Jason","5","Shared","0.65,0.2","12","0.65","trustrating_stim/white_00340_940422_fa_edt.bmp","1","101","25"
"html-keyboard-response","211","253660","0.0-19.0-3.24","fertuck1","bdp_trlrn","Mon Feb 27 2023 01:52:51 GMT-0500 (Eastern Standard Time)","467667","Untrustworthy,Trustworthy","","null","","","","feedback","","<div class='trialDiv'><img src='trustrating_stim/white_00340_940422_fa_edt.bmp'><br><font class='baseline'><strong>Jason</strong><p>Received: <strong>20</strong></font> &nbsp; &nbsp; &nbsp; &nbsp; &nbsp; &nbsp;<font class='posOutcome'>Shared back: <strong>10</strong></font></font><div class='respPicDiv'><img src='img/responseButtonOffersNo0_wht.png' class='respPic'></div></div>","null","9","Jason","5","Shared","0.65,0.2","12","0.65","trustrating_stim/white_00340_940422_fa_edt.bmp","1","111","25"
"html-keyboard-response","212","254024","0.0-19.0-1.25","fertuck1","bdp_trlrn","Mon Feb 27 2023 01:52:51 GMT-0500 (Eastern Standard Time)","467667","Untrustworthy,Trustworthy","","362","","","","decision","","<div class='trialDiv'><img src='trustrating_stim/white_mw048.bmp'><br><font class='baseline'><strong>Aaron</strong><p>Choose number of points to send.</font><div class='respPicDiv'><img src='img/responseButtonOffersNo0L.png' class='respPic'></div></div>","5","9","Aaron","0","Shared","0.35,0.8","9","0.35","trustrating_stim/white_mw048.bmp","1","116","26"
"html-keyboard-response","213","254286","0.0-19.0-2.25","fertuck1","bdp_trlrn","Mon Feb 27 2023 01:52:51 GMT-0500 (Eastern Standard Time)","467667","Untrustworthy,Trustworthy","","null","","","","decisionFB","","<div class='trialDiv'><img src='trustrating_stim/white_mw048.bmp'><br><font class='baseline'><strong>Aaron</strong><p>Choose number of points to send.</font><div class='respPicDiv'><img src='img/responseButtonOffersNo0L5.png' class='respPic'></div></div>","null","9","Aaron","0","Shared","0.35,0.8","9","0.35","trustrating_stim/white_mw048.bmp","1","111","26"
"html-keyboard-response","214","255297","0.0-19.0-3.25","fertuck1","bdp_trlrn","Mon Feb 27 2023 01:52:51 GMT-0500 (Eastern Standard Time)","467667","Untrustworthy,Trustworthy","","null","","","","feedback","","<div class='trialDiv'><img src='trustrating_stim/white_mw048.bmp'><br><font class='baseline'><strong>Aaron</strong><p>Received: <strong>20</strong></font> &nbsp; &nbsp; &nbsp; &nbsp; &nbsp; &nbsp;<font class='posOutcome'>Shared back: <strong>10</strong></font></font><div class='respPicDiv'><img src='img/responseButtonOffersNo0_wht.png' class='respPic'></div></div>","null","9","Aaron","0","Shared","0.35,0.8","9","0.35","trustrating_stim/white_mw048.bmp","1","121","26"
"html-keyboard-response","215","255581","0.0-19.0-1.26","fertuck1","bdp_trlrn","Mon Feb 27 2023 01:52:51 GMT-0500 (Eastern Standard Time)","467667","Untrustworthy,Trustworthy","","282","","","","decision","","<div class='trialDiv'><img src='trustrating_stim/white_00519_940519_fb_edt.bmp'><br><font class='baseline'><strong>Joseph</strong><p>Choose number of points to send.</font><div class='respPicDiv'><img src='img/responseButtonOffersNo0L.png' class='respPic'></div></div>","5","9","Joseph","10","Kept","0.2,0.8","11","0.2","trustrating_stim/white_00519_940519_fb_edt.bmp","3.5","126","27"
"html-keyboard-response","216","255841","0.0-19.0-2.26","fertuck1","bdp_trlrn","Mon Feb 27 2023 01:52:51 GMT-0500 (Eastern Standard Time)","467667","Untrustworthy,Trustworthy","","null","","","","decisionFB","","<div class='trialDiv'><img src='trustrating_stim/white_00519_940519_fb_edt.bmp'><br><font class='baseline'><strong>Joseph</strong><p>Choose number of points to send.</font><div class='respPicDiv'><img src='img/responseButtonOffersNo0L5.png' class='respPic'></div></div>","null","9","Joseph","10","Kept","0.2,0.8","11","0.2","trustrating_stim/white_00519_940519_fb_edt.bmp","3.5","121","27"
"html-keyboard-response","217","256847","0.0-19.0-3.26","fertuck1","bdp_trlrn","Mon Feb 27 2023 01:52:51 GMT-0500 (Eastern Standard Time)","467667","Untrustworthy,Trustworthy","","null","","","","feedback","","<div class='trialDiv'><img src='trustrating_stim/white_00519_940519_fb_edt.bmp'><br><font class='baseline'><strong>Joseph</strong><p>Received: <strong>20</strong></font> &nbsp; &nbsp; &nbsp; &nbsp; &nbsp; &nbsp;<font class='negOutcome'>Shared back: <strong>0</strong></font></font><div class='respPicDiv'><img src='img/responseButtonOffersNo0_wht.png' class='respPic'></div></div>","null","9","Joseph","10","Kept","0.2,0.8","11","0.2","trustrating_stim/white_00519_940519_fb_edt.bmp","3.5","121","27"
"html-keyboard-response","218","257240","0.0-19.0-1.27","fertuck1","bdp_trlrn","Mon Feb 27 2023 01:52:51 GMT-0500 (Eastern Standard Time)","467667","Untrustworthy,Trustworthy","","392","","","","decision","","<div class='trialDiv'><img src='trustrating_stim/white_00340_940422_fa_edt.bmp'><br><font class='baseline'><strong>Jason</strong><p>Choose number of points to send.</font><div class='respPicDiv'><img src='img/responseButtonOffersNo0L.png' class='respPic'></div></div>","2","10","Jason","5","Shared","0.65,0.2","12","0.65","trustrating_stim/white_00340_940422_fa_edt.bmp","1","126","28"
"html-keyboard-response","219","257503","0.0-19.0-2.27","fertuck1","bdp_trlrn","Mon Feb 27 2023 01:52:51 GMT-0500 (Eastern Standard Time)","467667","Untrustworthy,Trustworthy","","null","","","","decisionFB","","<div class='trialDiv'><img src='trustrating_stim/white_00340_940422_fa_edt.bmp'><br><font class='baseline'><strong>Jason</strong><p>Choose number of points to send.</font><div class='respPicDiv'><img src='img/responseButtonOffersNo0L2.png' class='respPic'></div></div>","null","10","Jason","5","Shared","0.65,0.2","12","0.65","trustrating_stim/white_00340_940422_fa_edt.bmp","1","124","28"
"html-keyboard-response","220","258512","0.0-19.0-3.27","fertuck1","bdp_trlrn","Mon Feb 27 2023 01:52:51 GMT-0500 (Eastern Standard Time)","467667","Untrustworthy,Trustworthy","","null","","","","feedback","","<div class='trialDiv'><img src='trustrating_stim/white_00340_940422_fa_edt.bmp'><br><font class='baseline'><strong>Jason</strong><p>Received: <strong>8</strong></font> &nbsp; &nbsp; &nbsp; &nbsp; &nbsp; &nbsp;<font class='posOutcome'>Shared back: <strong>4</strong></font></font><div class='respPicDiv'><img src='img/responseButtonOffersNo0_wht.png' class='respPic'></div></div>","null","10","Jason","5","Shared","0.65,0.2","12","0.65","trustrating_stim/white_00340_940422_fa_edt.bmp","1","128","28"
"html-keyboard-response","221","258842","0.0-19.0-1.28","fertuck1","bdp_trlrn","Mon Feb 27 2023 01:52:51 GMT-0500 (Eastern Standard Time)","467667","Untrustworthy,Trustworthy","","328","","","","decision","","<div class='trialDiv'><img src='trustrating_stim/white_00519_940519_fb_edt.bmp'><br><font class='baseline'><strong>Joseph</strong><p>Choose number of points to send.</font><div class='respPicDiv'><img src='img/responseButtonOffersNo0L.png' class='respPic'></div></div>","3","10","Joseph","10","Shared","0.2,0.8","11","0.2","trustrating_stim/white_00519_940519_fb_edt.bmp","3.5","133","29"
"html-keyboard-response","222","259102","0.0-19.0-2.28","fertuck1","bdp_trlrn","Mon Feb 27 2023 01:52:51 GMT-0500 (Eastern Standard Time)","467667","Untrustworthy,Trustworthy","","null","","","","decisionFB","","<div class='trialDiv'><img src='trustrating_stim/white_00519_940519_fb_edt.bmp'><br><font class='baseline'><strong>Joseph</strong><p>Choose number of points to send.</font><div class='respPicDiv'><img src='img/responseButtonOffersNo0L3.png' class='respPic'></div></div>","null","10","Joseph","10","Shared","0.2,0.8","11","0.2","trustrating_stim/white_00519_940519_fb_edt.bmp","3.5","130","29"
"html-keyboard-response","223","260109","0.0-19.0-3.28","fertuck1","bdp_trlrn","Mon Feb 27 2023 01:52:51 GMT-0500 (Eastern Standard Time)","467667","Untrustworthy,Trustworthy","","null","","","","feedback","","<div class='trialDiv'><img src='trustrating_stim/white_00519_940519_fb_edt.bmp'><br><font class='baseline'><strong>Joseph</strong><p>Received: <strong>12</strong></font> &nbsp; &nbsp; &nbsp; &nbsp; &nbsp; &nbsp;<font class='posOutcome'>Shared back: <strong>6</strong></font></font><div class='respPicDiv'><img src='img/responseButtonOffersNo0_wht.png' class='respPic'></div></div>","null","10","Joseph","10","Shared","0.2,0.8","11","0.2","trustrating_stim/white_00519_940519_fb_edt.bmp","3.5","136","29"
"html-keyboard-response","224","260346","0.0-19.0-1.29","fertuck1","bdp_trlrn","Mon Feb 27 2023 01:52:51 GMT-0500 (Eastern Standard Time)","467667","Untrustworthy,Trustworthy","","235","","","","decision","","<div class='trialDiv'><img src='trustrating_stim/white_mw048.bmp'><br><font class='baseline'><strong>Aaron</strong><p>Choose number of points to send.</font><div class='respPicDiv'><img src='img/responseButtonOffersNo0L.png' class='respPic'></div></div>","2","10","Aaron","0","Shared","0.35,0.8","9","0.35","trustrating_stim/white_mw048.bmp","1","141","30"
"html-keyboard-response","225","260608","0.0-19.0-2.29","fertuck1","bdp_trlrn","Mon Feb 27 2023 01:52:51 GMT-0500 (Eastern Standard Time)","467667","Untrustworthy,Trustworthy","","null","","","","decisionFB","","<div class='trialDiv'><img src='trustrating_stim/white_mw048.bmp'><br><font class='baseline'><strong>Aaron</strong><p>Choose number of points to send.</font><div class='respPicDiv'><img src='img/responseButtonOffersNo0L2.png' class='respPic'></div></div>","null","10","Aaron","0","Shared","0.35,0.8","9","0.35","trustrating_stim/white_mw048.bmp","1","139","30"
