"trial_type","trial_index","time_elapsed","internal_node_id","subject_id","task","startTime","totalTime","labels","view_history","rt","event","trial","time","trialtype","success","stimulus","key_press","aground","name","faceID","outcome","agenttype","agentswpt","agentcurrpshare","face","avgRating","point_total","round"
"pavlovia","0","2","0.0-0.0","60fefd59226b2b1d87bc36db","bdp_trlrn","Sun Mar 12 2023 17:01:32 GMT-0400 (EDT)","776367","Untrustworthy,Trustworthy","","","","","","","","","","","","","","","","","","","",""
"instructions","1","7157","0.0-1.0","60fefd59226b2b1d87bc36db","bdp_trlrn","Sun Mar 12 2023 17:01:32 GMT-0400 (EDT)","776367","Untrustworthy,Trustworthy","[{""page_index"":0,""viewing_time"":7154}]","7155","","","","","","","","","","","","","","","","","",""
"","","","","60fefd59226b2b1d87bc36db","bdp_trlrn","Sun Mar 12 2023 17:01:32 GMT-0400 (EDT)","776367","Untrustworthy,Trustworthy","","","fullscreenenter","2","24075","fullscreenenter","","","","","","","","","","","","","",""
"fullscreen","2","25042","0.0-2.0","60fefd59226b2b1d87bc36db","bdp_trlrn","Sun Mar 12 2023 17:01:32 GMT-0400 (EDT)","776367","Untrustworthy,Trustworthy","","","","","","","true","","","","","","","","","","","","",""
"instructions","3","38733","0.0-4.0","60fefd59226b2b1d87bc36db","bdp_trlrn","Sun Mar 12 2023 17:01:32 GMT-0400 (EDT)","776367","Untrustworthy,Trustworthy","[{""page_index"":0,""viewing_time"":12073},{""page_index"":1,""viewing_time"":1617}]","13690","","","","","","","","","","","","","","","","","",""
"instructions","4","40881","0.0-5.0","60fefd59226b2b1d87bc36db","bdp_trlrn","Sun Mar 12 2023 17:01:32 GMT-0400 (EDT)","776367","Untrustworthy,Trustworthy","[{""page_index"":0,""viewing_time"":2147}]","2147","","","","","","","","","","","","","","","","","",""
"image-keyboard-response","5","42461","0.0-6.0-1.0","60fefd59226b2b1d87bc36db","bdp_trlrn","Sun Mar 12 2023 17:01:32 GMT-0400 (EDT)","776367","Untrustworthy,Trustworthy","","1478","","","","rating","","trustrating_stim/white_00785_941205_fb_edt.bmp","1","","","","","","","","","","",""
"image-keyboard-response","6","42664","0.0-6.0-2.0","60fefd59226b2b1d87bc36db","bdp_trlrn","Sun Mar 12 2023 17:01:32 GMT-0400 (EDT)","776367","Untrustworthy,Trustworthy","","null","","","","ratingFB","","trustrating_stim/white_00785_941205_fb_edt.bmp","null","","","","","","","","","","",""
"image-keyboard-response","7","44269","0.0-6.0-1.1","60fefd59226b2b1d87bc36db","bdp_trlrn","Sun Mar 12 2023 17:01:32 GMT-0400 (EDT)","776367","Untrustworthy,Trustworthy","","1501","","","","rating","","trustrating_stim/white_mw097.bmp","1","","","","","","","","","","",""
"image-keyboard-response","8","44472","0.0-6.0-2.1","60fefd59226b2b1d87bc36db","bdp_trlrn","Sun Mar 12 2023 17:01:32 GMT-0400 (EDT)","776367","Untrustworthy,Trustworthy","","null","","","","ratingFB","","trustrating_stim/white_mw097.bmp","null","","","","","","","","","","",""
"image-keyboard-response","9","45208","0.0-6.0-1.2","60fefd59226b2b1d87bc36db","bdp_trlrn","Sun Mar 12 2023 17:01:32 GMT-0400 (EDT)","776367","Untrustworthy,Trustworthy","","634","","","","rating","","trustrating_stim/white_00807_941205_fb_edt.bmp","1","","","","","","","","","","",""
"image-keyboard-response","10","45411","0.0-6.0-2.2","60fefd59226b2b1d87bc36db","bdp_trlrn","Sun Mar 12 2023 17:01:32 GMT-0400 (EDT)","776367","Untrustworthy,Trustworthy","","null","","","","ratingFB","","trustrating_stim/white_00807_941205_fb_edt.bmp","null","","","","","","","","","","",""
"image-keyboard-response","11","46358","0.0-6.0-1.3","60fefd59226b2b1d87bc36db","bdp_trlrn","Sun Mar 12 2023 17:01:32 GMT-0400 (EDT)","776367","Untrustworthy,Trustworthy","","845","","","","rating","","trustrating_stim/white_mw089.bmp","1","","","","","","","","","","",""
"image-keyboard-response","12","46559","0.0-6.0-2.3","60fefd59226b2b1d87bc36db","bdp_trlrn","Sun Mar 12 2023 17:01:32 GMT-0400 (EDT)","776367","Untrustworthy,Trustworthy","","null","","","","ratingFB","","trustrating_stim/white_mw089.bmp","null","","","","","","","","","","",""
"image-keyboard-response","13","47309","0.0-6.0-1.4","60fefd59226b2b1d87bc36db","bdp_trlrn","Sun Mar 12 2023 17:01:32 GMT-0400 (EDT)","776367","Untrustworthy,Trustworthy","","643","","","","rating","","trustrating_stim/white_00659_941121_fa_edt.bmp","1","","","","","","","","","","",""
"image-keyboard-response","14","47511","0.0-6.0-2.4","60fefd59226b2b1d87bc36db","bdp_trlrn","Sun Mar 12 2023 17:01:32 GMT-0400 (EDT)","776367","Untrustworthy,Trustworthy","","null","","","","ratingFB","","trustrating_stim/white_00659_941121_fa_edt.bmp","null","","","","","","","","","","",""
"image-keyboard-response","15","49605","0.0-6.0-1.5","60fefd59226b2b1d87bc36db","bdp_trlrn","Sun Mar 12 2023 17:01:32 GMT-0400 (EDT)","776367","Untrustworthy,Trustworthy","","1991","","","","rating","","trustrating_stim/white_mw049.bmp","1","","","","","","","","","","",""
"image-keyboard-response","16","49807","0.0-6.0-2.5","60fefd59226b2b1d87bc36db","bdp_trlrn","Sun Mar 12 2023 17:01:32 GMT-0400 (EDT)","776367","Untrustworthy,Trustworthy","","null","","","","ratingFB","","trustrating_stim/white_mw049.bmp","null","","","","","","","","","","",""
"image-keyboard-response","17","50763","0.0-6.0-1.6","60fefd59226b2b1d87bc36db","bdp_trlrn","Sun Mar 12 2023 17:01:32 GMT-0400 (EDT)","776367","Untrustworthy,Trustworthy","","854","","","","rating","","trustrating_stim/white_00519_940519_fb_edt.bmp","1","","","","","","","","","","",""
"image-keyboard-response","18","50966","0.0-6.0-2.6","60fefd59226b2b1d87bc36db","bdp_trlrn","Sun Mar 12 2023 17:01:32 GMT-0400 (EDT)","776367","Untrustworthy,Trustworthy","","null","","","","ratingFB","","trustrating_stim/white_00519_940519_fb_edt.bmp","null","","","","","","","","","","",""
"image-keyboard-response","19","51925","0.0-6.0-1.7","60fefd59226b2b1d87bc36db","bdp_trlrn","Sun Mar 12 2023 17:01:32 GMT-0400 (EDT)","776367","Untrustworthy,Trustworthy","","856","","","","rating","","trustrating_stim/white_mw053.bmp","1","","","","","","","","","","",""
"image-keyboard-response","20","52128","0.0-6.0-2.7","60fefd59226b2b1d87bc36db","bdp_trlrn","Sun Mar 12 2023 17:01:32 GMT-0400 (EDT)","776367","Untrustworthy,Trustworthy","","null","","","","ratingFB","","trustrating_stim/white_mw053.bmp","null","","","","","","","","","","",""
"image-keyboard-response","21","53443","0.0-6.0-1.8","60fefd59226b2b1d87bc36db","bdp_trlrn","Sun Mar 12 2023 17:01:32 GMT-0400 (EDT)","776367","Untrustworthy,Trustworthy","","1211","","","","rating","","trustrating_stim/white_mw066.bmp","1","","","","","","","","","","",""
"image-keyboard-response","22","53645","0.0-6.0-2.8","60fefd59226b2b1d87bc36db","bdp_trlrn","Sun Mar 12 2023 17:01:32 GMT-0400 (EDT)","776367","Untrustworthy,Trustworthy","","null","","","","ratingFB","","trustrating_stim/white_mw066.bmp","null","","","","","","","","","","",""
"image-keyboard-response","23","54443","0.0-6.0-1.9","60fefd59226b2b1d87bc36db","bdp_trlrn","Sun Mar 12 2023 17:01:32 GMT-0400 (EDT)","776367","Untrustworthy,Trustworthy","","695","","","","rating","","trustrating_stim/white_00340_940422_fa_edt.bmp","1","","","","","","","","","","",""
"image-keyboard-response","24","54646","0.0-6.0-2.9","60fefd59226b2b1d87bc36db","bdp_trlrn","Sun Mar 12 2023 17:01:32 GMT-0400 (EDT)","776367","Untrustworthy,Trustworthy","","null","","","","ratingFB","","trustrating_stim/white_00340_940422_fa_edt.bmp","null","","","","","","","","","","",""
"image-keyboard-response","25","55484","0.0-6.0-1.10","60fefd59226b2b1d87bc36db","bdp_trlrn","Sun Mar 12 2023 17:01:32 GMT-0400 (EDT)","776367","Untrustworthy,Trustworthy","","736","","","","rating","","trustrating_stim/white_00577_940928_fa_edt.bmp","1","","","","","","","","","","",""
"image-keyboard-response","26","55686","0.0-6.0-2.10","60fefd59226b2b1d87bc36db","bdp_trlrn","Sun Mar 12 2023 17:01:32 GMT-0400 (EDT)","776367","Untrustworthy,Trustworthy","","null","","","","ratingFB","","trustrating_stim/white_00577_940928_fa_edt.bmp","null","","","","","","","","","","",""
"image-keyboard-response","27","58761","0.0-6.0-1.11","60fefd59226b2b1d87bc36db","bdp_trlrn","Sun Mar 12 2023 17:01:32 GMT-0400 (EDT)","776367","Untrustworthy,Trustworthy","","2971","","","","rating","","trustrating_stim/white_00602_940928_fb_edt.bmp","3","","","","","","","","","","",""
"image-keyboard-response","28","58963","0.0-6.0-2.11","60fefd59226b2b1d87bc36db","bdp_trlrn","Sun Mar 12 2023 17:01:32 GMT-0400 (EDT)","776367","Untrustworthy,Trustworthy","","null","","","","ratingFB","","trustrating_stim/white_00602_940928_fb_edt.bmp","null","","","","","","","","","","",""
"image-keyboard-response","29","59740","0.0-6.0-1.12","60fefd59226b2b1d87bc36db","bdp_trlrn","Sun Mar 12 2023 17:01:32 GMT-0400 (EDT)","776367","Untrustworthy,Trustworthy","","674","","","","rating","","trustrating_stim/white_mw063.bmp","1","","","","","","","","","","",""
"image-keyboard-response","30","59941","0.0-6.0-2.12","60fefd59226b2b1d87bc36db","bdp_trlrn","Sun Mar 12 2023 17:01:32 GMT-0400 (EDT)","776367","Untrustworthy,Trustworthy","","null","","","","ratingFB","","trustrating_stim/white_mw063.bmp","null","","","","","","","","","","",""
"image-keyboard-response","31","60749","0.0-6.0-1.13","60fefd59226b2b1d87bc36db","bdp_trlrn","Sun Mar 12 2023 17:01:32 GMT-0400 (EDT)","776367","Untrustworthy,Trustworthy","","705","","","","rating","","trustrating_stim/white_mw099.bmp","1","","","","","","","","","","",""
"image-keyboard-response","32","60952","0.0-6.0-2.13","60fefd59226b2b1d87bc36db","bdp_trlrn","Sun Mar 12 2023 17:01:32 GMT-0400 (EDT)","776367","Untrustworthy,Trustworthy","","null","","","","ratingFB","","trustrating_stim/white_mw099.bmp","null","","","","","","","","","","",""
"image-keyboard-response","33","61732","0.0-6.0-1.14","60fefd59226b2b1d87bc36db","bdp_trlrn","Sun Mar 12 2023 17:01:32 GMT-0400 (EDT)","776367","Untrustworthy,Trustworthy","","678","","","","rating","","trustrating_stim/white_mw056.bmp","1","","","","","","","","","","",""
"image-keyboard-response","34","61935","0.0-6.0-2.14","60fefd59226b2b1d87bc36db","bdp_trlrn","Sun Mar 12 2023 17:01:32 GMT-0400 (EDT)","776367","Untrustworthy,Trustworthy","","null","","","","ratingFB","","trustrating_stim/white_mw056.bmp","null","","","","","","","","","","",""
"image-keyboard-response","35","64519","0.0-6.0-1.15","60fefd59226b2b1d87bc36db","bdp_trlrn","Sun Mar 12 2023 17:01:32 GMT-0400 (EDT)","776367","Untrustworthy,Trustworthy","","2481","","","","rating","","trustrating_stim/white_00120_931230_fa_edt.bmp","1","","","","","","","","","","",""
"image-keyboard-response","36","64721","0.0-6.0-2.15","60fefd59226b2b1d87bc36db","bdp_trlrn","Sun Mar 12 2023 17:01:32 GMT-0400 (EDT)","776367","Untrustworthy,Trustworthy","","null","","","","ratingFB","","trustrating_stim/white_00120_931230_fa_edt.bmp","null","","","","","","","","","","",""
"image-keyboard-response","37","65420","0.0-6.0-1.16","60fefd59226b2b1d87bc36db","bdp_trlrn","Sun Mar 12 2023 17:01:32 GMT-0400 (EDT)","776367","Untrustworthy,Trustworthy","","596","","","","rating","","trustrating_stim/white_00757_941201_fa_edt.bmp","1","","","","","","","","","","",""
"image-keyboard-response","38","65622","0.0-6.0-2.16","60fefd59226b2b1d87bc36db","bdp_trlrn","Sun Mar 12 2023 17:01:32 GMT-0400 (EDT)","776367","Untrustworthy,Trustworthy","","null","","","","ratingFB","","trustrating_stim/white_00757_941201_fa_edt.bmp","null","","","","","","","","","","",""
"image-keyboard-response","39","66695","0.0-6.0-1.17","60fefd59226b2b1d87bc36db","bdp_trlrn","Sun Mar 12 2023 17:01:32 GMT-0400 (EDT)","776367","Untrustworthy,Trustworthy","","970","","","","rating","","trustrating_stim/white_mw033.bmp","1","","","","","","","","","","",""
"image-keyboard-response","40","66897","0.0-6.0-2.17","60fefd59226b2b1d87bc36db","bdp_trlrn","Sun Mar 12 2023 17:01:32 GMT-0400 (EDT)","776367","Untrustworthy,Trustworthy","","null","","","","ratingFB","","trustrating_stim/white_mw033.bmp","null","","","","","","","","","","",""
"image-keyboard-response","41","67678","0.0-6.0-1.18","60fefd59226b2b1d87bc36db","bdp_trlrn","Sun Mar 12 2023 17:01:32 GMT-0400 (EDT)","776367","Untrustworthy,Trustworthy","","676","","","","rating","","trustrating_stim/white_00223_940128_fb_edt.bmp","1","","","","","","","","","","",""
"image-keyboard-response","42","67880","0.0-6.0-2.18","60fefd59226b2b1d87bc36db","bdp_trlrn","Sun Mar 12 2023 17:01:32 GMT-0400 (EDT)","776367","Untrustworthy,Trustworthy","","null","","","","ratingFB","","trustrating_stim/white_00223_940128_fb_edt.bmp","null","","","","","","","","","","",""
"image-keyboard-response","43","68565","0.0-6.0-1.19","60fefd59226b2b1d87bc36db","bdp_trlrn","Sun Mar 12 2023 17:01:32 GMT-0400 (EDT)","776367","Untrustworthy,Trustworthy","","582","","","","rating","","trustrating_stim/white_mw048.bmp","1","","","","","","","","","","",""
"image-keyboard-response","44","68767","0.0-6.0-2.19","60fefd59226b2b1d87bc36db","bdp_trlrn","Sun Mar 12 2023 17:01:32 GMT-0400 (EDT)","776367","Untrustworthy,Trustworthy","","null","","","","ratingFB","","trustrating_stim/white_mw048.bmp","null","","","","","","","","","","",""
"image-keyboard-response","45","70461","0.0-6.0-1.20","60fefd59226b2b1d87bc36db","bdp_trlrn","Sun Mar 12 2023 17:01:32 GMT-0400 (EDT)","776367","Untrustworthy,Trustworthy","","1590","","","","rating","","trustrating_stim/white_00129_931230_fb_edt.bmp","1","","","","","","","","","","",""
"image-keyboard-response","46","70663","0.0-6.0-2.20","60fefd59226b2b1d87bc36db","bdp_trlrn","Sun Mar 12 2023 17:01:32 GMT-0400 (EDT)","776367","Untrustworthy,Trustworthy","","null","","","","ratingFB","","trustrating_stim/white_00129_931230_fb_edt.bmp","null","","","","","","","","","","",""
"image-keyboard-response","47","71537","0.0-6.0-1.21","60fefd59226b2b1d87bc36db","bdp_trlrn","Sun Mar 12 2023 17:01:32 GMT-0400 (EDT)","776367","Untrustworthy,Trustworthy","","770","","","","rating","","trustrating_stim/white_mw084.bmp","1","","","","","","","","","","",""
"image-keyboard-response","48","71739","0.0-6.0-2.21","60fefd59226b2b1d87bc36db","bdp_trlrn","Sun Mar 12 2023 17:01:32 GMT-0400 (EDT)","776367","Untrustworthy,Trustworthy","","null","","","","ratingFB","","trustrating_stim/white_mw084.bmp","null","","","","","","","","","","",""
"image-keyboard-response","49","72422","0.0-6.0-1.22","60fefd59226b2b1d87bc36db","bdp_trlrn","Sun Mar 12 2023 17:01:32 GMT-0400 (EDT)","776367","Untrustworthy,Trustworthy","","579","","","","rating","","trustrating_stim/white_mw035.bmp","1","","","","","","","","","","",""
"image-keyboard-response","50","72624","0.0-6.0-2.22","60fefd59226b2b1d87bc36db","bdp_trlrn","Sun Mar 12 2023 17:01:32 GMT-0400 (EDT)","776367","Untrustworthy,Trustworthy","","null","","","","ratingFB","","trustrating_stim/white_mw035.bmp","null","","","","","","","","","","",""
"image-keyboard-response","51","73441","0.0-6.0-1.23","60fefd59226b2b1d87bc36db","bdp_trlrn","Sun Mar 12 2023 17:01:32 GMT-0400 (EDT)","776367","Untrustworthy,Trustworthy","","713","","","","rating","","trustrating_stim/white_00109_931230_fa_edt.bmp","1","","","","","","","","","","",""
"image-keyboard-response","52","73643","0.0-6.0-2.23","60fefd59226b2b1d87bc36db","bdp_trlrn","Sun Mar 12 2023 17:01:32 GMT-0400 (EDT)","776367","Untrustworthy,Trustworthy","","null","","","","ratingFB","","trustrating_stim/white_00109_931230_fa_edt.bmp","null","","","","","","","","","","",""
"image-keyboard-response","53","74604","0.0-6.0-1.24","60fefd59226b2b1d87bc36db","bdp_trlrn","Sun Mar 12 2023 17:01:32 GMT-0400 (EDT)","776367","Untrustworthy,Trustworthy","","859","","","","rating","","trustrating_stim/white_mw071.bmp","1","","","","","","","","","","",""
"image-keyboard-response","54","74806","0.0-6.0-2.24","60fefd59226b2b1d87bc36db","bdp_trlrn","Sun Mar 12 2023 17:01:32 GMT-0400 (EDT)","776367","Untrustworthy,Trustworthy","","null","","","","ratingFB","","trustrating_stim/white_mw071.bmp","null","","","","","","","","","","",""
"image-keyboard-response","55","76995","0.0-6.0-1.25","60fefd59226b2b1d87bc36db","bdp_trlrn","Sun Mar 12 2023 17:01:32 GMT-0400 (EDT)","776367","Untrustworthy,Trustworthy","","2086","","","","rating","","trustrating_stim/white_mw046.bmp","1","","","","","","","","","","",""
"image-keyboard-response","56","77198","0.0-6.0-2.25","60fefd59226b2b1d87bc36db","bdp_trlrn","Sun Mar 12 2023 17:01:32 GMT-0400 (EDT)","776367","Untrustworthy,Trustworthy","","null","","","","ratingFB","","trustrating_stim/white_mw046.bmp","null","","","","","","","","","","",""
"image-keyboard-response","57","77911","0.0-6.0-1.26","60fefd59226b2b1d87bc36db","bdp_trlrn","Sun Mar 12 2023 17:01:32 GMT-0400 (EDT)","776367","Untrustworthy,Trustworthy","","610","","","","rating","","trustrating_stim/white_mw060.bmp","1","","","","","","","","","","",""
"image-keyboard-response","58","78114","0.0-6.0-2.26","60fefd59226b2b1d87bc36db","bdp_trlrn","Sun Mar 12 2023 17:01:32 GMT-0400 (EDT)","776367","Untrustworthy,Trustworthy","","null","","","","ratingFB","","trustrating_stim/white_mw060.bmp","null","","","","","","","","","","",""
"image-keyboard-response","59","78798","0.0-6.0-1.27","60fefd59226b2b1d87bc36db","bdp_trlrn","Sun Mar 12 2023 17:01:32 GMT-0400 (EDT)","776367","Untrustworthy,Trustworthy","","581","","","","rating","","trustrating_stim/white_00299_940422_fa_edt.bmp","1","","","","","","","","","","",""
"image-keyboard-response","60","79000","0.0-6.0-2.27","60fefd59226b2b1d87bc36db","bdp_trlrn","Sun Mar 12 2023 17:01:32 GMT-0400 (EDT)","776367","Untrustworthy,Trustworthy","","null","","","","ratingFB","","trustrating_stim/white_00299_940422_fa_edt.bmp","null","","","","","","","","","","",""
"image-keyboard-response","61","79596","0.0-6.0-1.28","60fefd59226b2b1d87bc36db","bdp_trlrn","Sun Mar 12 2023 17:01:32 GMT-0400 (EDT)","776367","Untrustworthy,Trustworthy","","491","","","","rating","","trustrating_stim/white_00898_960530_fa_edt.bmp","1","","","","","","","","","","",""
"image-keyboard-response","62","79798","0.0-6.0-2.28","60fefd59226b2b1d87bc36db","bdp_trlrn","Sun Mar 12 2023 17:01:32 GMT-0400 (EDT)","776367","Untrustworthy,Trustworthy","","null","","","","ratingFB","","trustrating_stim/white_00898_960530_fa_edt.bmp","null","","","","","","","","","","",""
"image-keyboard-response","63","80984","0.0-6.0-1.29","60fefd59226b2b1d87bc36db","bdp_trlrn","Sun Mar 12 2023 17:01:32 GMT-0400 (EDT)","776367","Untrustworthy,Trustworthy","","1082","","","","rating","","trustrating_stim/white_00761_941201_fb_edt.bmp","1","","","","","","","","","","",""
"image-keyboard-response","64","81186","0.0-6.0-2.29","60fefd59226b2b1d87bc36db","bdp_trlrn","Sun Mar 12 2023 17:01:32 GMT-0400 (EDT)","776367","Untrustworthy,Trustworthy","","null","","","","ratingFB","","trustrating_stim/white_00761_941201_fb_edt.bmp","null","","","","","","","","","","",""
"image-keyboard-response","65","82054","0.0-6.0-1.30","60fefd59226b2b1d87bc36db","bdp_trlrn","Sun Mar 12 2023 17:01:32 GMT-0400 (EDT)","776367","Untrustworthy,Trustworthy","","766","","","","rating","","trustrating_stim/white_mw053.bmp","1","","","","","","","","","","",""
"image-keyboard-response","66","82257","0.0-6.0-2.30","60fefd59226b2b1d87bc36db","bdp_trlrn","Sun Mar 12 2023 17:01:32 GMT-0400 (EDT)","776367","Untrustworthy,Trustworthy","","null","","","","ratingFB","","trustrating_stim/white_mw053.bmp","null","","","","","","","","","","",""
"image-keyboard-response","67","82870","0.0-6.0-1.31","60fefd59226b2b1d87bc36db","bdp_trlrn","Sun Mar 12 2023 17:01:32 GMT-0400 (EDT)","776367","Untrustworthy,Trustworthy","","511","","","","rating","","trustrating_stim/white_mw097.bmp","1","","","","","","","","","","",""
"image-keyboard-response","68","83073","0.0-6.0-2.31","60fefd59226b2b1d87bc36db","bdp_trlrn","Sun Mar 12 2023 17:01:32 GMT-0400 (EDT)","776367","Untrustworthy,Trustworthy","","null","","","","ratingFB","","trustrating_stim/white_mw097.bmp","null","","","","","","","","","","",""
"image-keyboard-response","69","83753","0.0-6.0-1.32","60fefd59226b2b1d87bc36db","bdp_trlrn","Sun Mar 12 2023 17:01:32 GMT-0400 (EDT)","776367","Untrustworthy,Trustworthy","","578","","","","rating","","trustrating_stim/white_mw063.bmp","1","","","","","","","","","","",""
"image-keyboard-response","70","83956","0.0-6.0-2.32","60fefd59226b2b1d87bc36db","bdp_trlrn","Sun Mar 12 2023 17:01:32 GMT-0400 (EDT)","776367","Untrustworthy,Trustworthy","","null","","","","ratingFB","","trustrating_stim/white_mw063.bmp","null","","","","","","","","","","",""
"image-keyboard-response","71","84503","0.0-6.0-1.33","60fefd59226b2b1d87bc36db","bdp_trlrn","Sun Mar 12 2023 17:01:32 GMT-0400 (EDT)","776367","Untrustworthy,Trustworthy","","442","","","","rating","","trustrating_stim/white_mw048.bmp","1","","","","","","","","","","",""
"image-keyboard-response","72","84705","0.0-6.0-2.33","60fefd59226b2b1d87bc36db","bdp_trlrn","Sun Mar 12 2023 17:01:32 GMT-0400 (EDT)","776367","Untrustworthy,Trustworthy","","null","","","","ratingFB","","trustrating_stim/white_mw048.bmp","null","","","","","","","","","","",""
"image-keyboard-response","73","85080","0.0-6.0-1.34","60fefd59226b2b1d87bc36db","bdp_trlrn","Sun Mar 12 2023 17:01:32 GMT-0400 (EDT)","776367","Untrustworthy,Trustworthy","","271","","","","rating","","trustrating_stim/white_00757_941201_fa_edt.bmp","1","","","","","","","","","","",""
"image-keyboard-response","74","85282","0.0-6.0-2.34","60fefd59226b2b1d87bc36db","bdp_trlrn","Sun Mar 12 2023 17:01:32 GMT-0400 (EDT)","776367","Untrustworthy,Trustworthy","","null","","","","ratingFB","","trustrating_stim/white_00757_941201_fa_edt.bmp","null","","","","","","","","","","",""
"image-keyboard-response","75","85670","0.0-6.0-1.35","60fefd59226b2b1d87bc36db","bdp_trlrn","Sun Mar 12 2023 17:01:32 GMT-0400 (EDT)","776367","Untrustworthy,Trustworthy","","285","","","","rating","","trustrating_stim/white_00577_940928_fa_edt.bmp","1","","","","","","","","","","",""
"image-keyboard-response","76","85873","0.0-6.0-2.35","60fefd59226b2b1d87bc36db","bdp_trlrn","Sun Mar 12 2023 17:01:32 GMT-0400 (EDT)","776367","Untrustworthy,Trustworthy","","null","","","","ratingFB","","trustrating_stim/white_00577_940928_fa_edt.bmp","null","","","","","","","","","","",""
"image-keyboard-response","77","86322","0.0-6.0-1.36","60fefd59226b2b1d87bc36db","bdp_trlrn","Sun Mar 12 2023 17:01:32 GMT-0400 (EDT)","776367","Untrustworthy,Trustworthy","","346","","","","rating","","trustrating_stim/white_00519_940519_fb_edt.bmp","1","","","","","","","","","","",""
"image-keyboard-response","78","86523","0.0-6.0-2.36","60fefd59226b2b1d87bc36db","bdp_trlrn","Sun Mar 12 2023 17:01:32 GMT-0400 (EDT)","776367","Untrustworthy,Trustworthy","","null","","","","ratingFB","","trustrating_stim/white_00519_940519_fb_edt.bmp","null","","","","","","","","","","",""
"image-keyboard-response","79","87121","0.0-6.0-1.37","60fefd59226b2b1d87bc36db","bdp_trlrn","Sun Mar 12 2023 17:01:32 GMT-0400 (EDT)","776367","Untrustworthy,Trustworthy","","495","","","","rating","","trustrating_stim/white_00340_940422_fa_edt.bmp","1","","","","","","","","","","",""
"image-keyboard-response","80","87324","0.0-6.0-2.37","60fefd59226b2b1d87bc36db","bdp_trlrn","Sun Mar 12 2023 17:01:32 GMT-0400 (EDT)","776367","Untrustworthy,Trustworthy","","null","","","","ratingFB","","trustrating_stim/white_00340_940422_fa_edt.bmp","null","","","","","","","","","","",""
"image-keyboard-response","81","87879","0.0-6.0-1.38","60fefd59226b2b1d87bc36db","bdp_trlrn","Sun Mar 12 2023 17:01:32 GMT-0400 (EDT)","776367","Untrustworthy,Trustworthy","","450","","","","rating","","trustrating_stim/white_00109_931230_fa_edt.bmp","1","","","","","","","","","","",""
"image-keyboard-response","82","88081","0.0-6.0-2.38","60fefd59226b2b1d87bc36db","bdp_trlrn","Sun Mar 12 2023 17:01:32 GMT-0400 (EDT)","776367","Untrustworthy,Trustworthy","","null","","","","ratingFB","","trustrating_stim/white_00109_931230_fa_edt.bmp","null","","","","","","","","","","",""
"image-keyboard-response","83","88584","0.0-6.0-1.39","60fefd59226b2b1d87bc36db","bdp_trlrn","Sun Mar 12 2023 17:01:32 GMT-0400 (EDT)","776367","Untrustworthy,Trustworthy","","400","","","","rating","","trustrating_stim/white_00299_940422_fa_edt.bmp","1","","","","","","","","","","",""
"image-keyboard-response","84","88787","0.0-6.0-2.39","60fefd59226b2b1d87bc36db","bdp_trlrn","Sun Mar 12 2023 17:01:32 GMT-0400 (EDT)","776367","Untrustworthy,Trustworthy","","null","","","","ratingFB","","trustrating_stim/white_00299_940422_fa_edt.bmp","null","","","","","","","","","","",""
"image-keyboard-response","85","96118","0.0-6.0-1.40","60fefd59226b2b1d87bc36db","bdp_trlrn","Sun Mar 12 2023 17:01:32 GMT-0400 (EDT)","776367","Untrustworthy,Trustworthy","","7229","","","","rating","","trustrating_stim/white_mw035.bmp","1","","","","","","","","","","",""
"image-keyboard-response","86","96319","0.0-6.0-2.40","60fefd59226b2b1d87bc36db","bdp_trlrn","Sun Mar 12 2023 17:01:32 GMT-0400 (EDT)","776367","Untrustworthy,Trustworthy","","null","","","","ratingFB","","trustrating_stim/white_mw035.bmp","null","","","","","","","","","","",""
"image-keyboard-response","87","96743","0.0-6.0-1.41","60fefd59226b2b1d87bc36db","bdp_trlrn","Sun Mar 12 2023 17:01:32 GMT-0400 (EDT)","776367","Untrustworthy,Trustworthy","","320","","","","rating","","trustrating_stim/white_00807_941205_fb_edt.bmp","1","","","","","","","","","","",""
"image-keyboard-response","88","96945","0.0-6.0-2.41","60fefd59226b2b1d87bc36db","bdp_trlrn","Sun Mar 12 2023 17:01:32 GMT-0400 (EDT)","776367","Untrustworthy,Trustworthy","","null","","","","ratingFB","","trustrating_stim/white_00807_941205_fb_edt.bmp","null","","","","","","","","","","",""
"image-keyboard-response","89","97425","0.0-6.0-1.42","60fefd59226b2b1d87bc36db","bdp_trlrn","Sun Mar 12 2023 17:01:32 GMT-0400 (EDT)","776367","Untrustworthy,Trustworthy","","376","","","","rating","","trustrating_stim/white_mw049.bmp","1","","","","","","","","","","",""
"image-keyboard-response","90","97627","0.0-6.0-2.42","60fefd59226b2b1d87bc36db","bdp_trlrn","Sun Mar 12 2023 17:01:32 GMT-0400 (EDT)","776367","Untrustworthy,Trustworthy","","null","","","","ratingFB","","trustrating_stim/white_mw049.bmp","null","","","","","","","","","","",""
"image-keyboard-response","91","98013","0.0-6.0-1.43","60fefd59226b2b1d87bc36db","bdp_trlrn","Sun Mar 12 2023 17:01:32 GMT-0400 (EDT)","776367","Untrustworthy,Trustworthy","","283","","","","rating","","trustrating_stim/white_00898_960530_fa_edt.bmp","1","","","","","","","","","","",""
"image-keyboard-response","92","98216","0.0-6.0-2.43","60fefd59226b2b1d87bc36db","bdp_trlrn","Sun Mar 12 2023 17:01:32 GMT-0400 (EDT)","776367","Untrustworthy,Trustworthy","","null","","","","ratingFB","","trustrating_stim/white_00898_960530_fa_edt.bmp","null","","","","","","","","","","",""
"image-keyboard-response","93","98794","0.0-6.0-1.44","60fefd59226b2b1d87bc36db","bdp_trlrn","Sun Mar 12 2023 17:01:32 GMT-0400 (EDT)","776367","Untrustworthy,Trustworthy","","475","","","","rating","","trustrating_stim/white_00785_941205_fb_edt.bmp","1","","","","","","","","","","",""
"image-keyboard-response","94","98995","0.0-6.0-2.44","60fefd59226b2b1d87bc36db","bdp_trlrn","Sun Mar 12 2023 17:01:32 GMT-0400 (EDT)","776367","Untrustworthy,Trustworthy","","null","","","","ratingFB","","trustrating_stim/white_00785_941205_fb_edt.bmp","null","","","","","","","","","","",""
"image-keyboard-response","95","99513","0.0-6.0-1.45","60fefd59226b2b1d87bc36db","bdp_trlrn","Sun Mar 12 2023 17:01:32 GMT-0400 (EDT)","776367","Untrustworthy,Trustworthy","","415","","","","rating","","trustrating_stim/white_mw084.bmp","1","","","","","","","","","","",""
"image-keyboard-response","96","99716","0.0-6.0-2.45","60fefd59226b2b1d87bc36db","bdp_trlrn","Sun Mar 12 2023 17:01:32 GMT-0400 (EDT)","776367","Untrustworthy,Trustworthy","","null","","","","ratingFB","","trustrating_stim/white_mw084.bmp","null","","","","","","","","","","",""
"image-keyboard-response","97","116615","0.0-6.0-1.46","60fefd59226b2b1d87bc36db","bdp_trlrn","Sun Mar 12 2023 17:01:32 GMT-0400 (EDT)","776367","Untrustworthy,Trustworthy","","16797","","","","rating","","trustrating_stim/white_mw099.bmp","1","","","","","","","","","","",""
"image-keyboard-response","98","116819","0.0-6.0-2.46","60fefd59226b2b1d87bc36db","bdp_trlrn","Sun Mar 12 2023 17:01:32 GMT-0400 (EDT)","776367","Untrustworthy,Trustworthy","","null","","","","ratingFB","","trustrating_stim/white_mw099.bmp","null","","","","","","","","","","",""
"image-keyboard-response","99","118854","0.0-6.0-1.47","60fefd59226b2b1d87bc36db","bdp_trlrn","Sun Mar 12 2023 17:01:32 GMT-0400 (EDT)","776367","Untrustworthy,Trustworthy","","1931","","","","rating","","trustrating_stim/white_mw056.bmp","1","","","","","","","","","","",""
"image-keyboard-response","100","119056","0.0-6.0-2.47","60fefd59226b2b1d87bc36db","bdp_trlrn","Sun Mar 12 2023 17:01:32 GMT-0400 (EDT)","776367","Untrustworthy,Trustworthy","","null","","","","ratingFB","","trustrating_stim/white_mw056.bmp","null","","","","","","","","","","",""
"image-keyboard-response","101","119821","0.0-6.0-1.48","60fefd59226b2b1d87bc36db","bdp_trlrn","Sun Mar 12 2023 17:01:32 GMT-0400 (EDT)","776367","Untrustworthy,Trustworthy","","661","","","","rating","","trustrating_stim/white_00602_940928_fb_edt.bmp","1","","","","","","","","","","",""
"image-keyboard-response","102","120023","0.0-6.0-2.48","60fefd59226b2b1d87bc36db","bdp_trlrn","Sun Mar 12 2023 17:01:32 GMT-0400 (EDT)","776367","Untrustworthy,Trustworthy","","null","","","","ratingFB","","trustrating_stim/white_00602_940928_fb_edt.bmp","null","","","","","","","","","","",""
"image-keyboard-response","103","120364","0.0-6.0-1.49","60fefd59226b2b1d87bc36db","bdp_trlrn","Sun Mar 12 2023 17:01:32 GMT-0400 (EDT)","776367","Untrustworthy,Trustworthy","","237","","","","rating","","trustrating_stim/white_00129_931230_fb_edt.bmp","1","","","","","","","","","","",""
"image-keyboard-response","104","120566","0.0-6.0-2.49","60fefd59226b2b1d87bc36db","bdp_trlrn","Sun Mar 12 2023 17:01:32 GMT-0400 (EDT)","776367","Untrustworthy,Trustworthy","","null","","","","ratingFB","","trustrating_stim/white_00129_931230_fb_edt.bmp","null","","","","","","","","","","",""
"image-keyboard-response","105","121273","0.0-6.0-1.50","60fefd59226b2b1d87bc36db","bdp_trlrn","Sun Mar 12 2023 17:01:32 GMT-0400 (EDT)","776367","Untrustworthy,Trustworthy","","604","","","","rating","","trustrating_stim/white_mw089.bmp","1","","","","","","","","","","",""
"image-keyboard-response","106","121475","0.0-6.0-2.50","60fefd59226b2b1d87bc36db","bdp_trlrn","Sun Mar 12 2023 17:01:32 GMT-0400 (EDT)","776367","Untrustworthy,Trustworthy","","null","","","","ratingFB","","trustrating_stim/white_mw089.bmp","null","","","","","","","","","","",""
"image-keyboard-response","107","122042","0.0-6.0-1.51","60fefd59226b2b1d87bc36db","bdp_trlrn","Sun Mar 12 2023 17:01:32 GMT-0400 (EDT)","776367","Untrustworthy,Trustworthy","","462","","","","rating","","trustrating_stim/white_mw071.bmp","1","","","","","","","","","","",""
"image-keyboard-response","108","122244","0.0-6.0-2.51","60fefd59226b2b1d87bc36db","bdp_trlrn","Sun Mar 12 2023 17:01:32 GMT-0400 (EDT)","776367","Untrustworthy,Trustworthy","","null","","","","ratingFB","","trustrating_stim/white_mw071.bmp","null","","","","","","","","","","",""
"image-keyboard-response","109","122719","0.0-6.0-1.52","60fefd59226b2b1d87bc36db","bdp_trlrn","Sun Mar 12 2023 17:01:32 GMT-0400 (EDT)","776367","Untrustworthy,Trustworthy","","372","","","","rating","","trustrating_stim/white_mw046.bmp","1","","","","","","","","","","",""
"image-keyboard-response","110","122921","0.0-6.0-2.52","60fefd59226b2b1d87bc36db","bdp_trlrn","Sun Mar 12 2023 17:01:32 GMT-0400 (EDT)","776367","Untrustworthy,Trustworthy","","null","","","","ratingFB","","trustrating_stim/white_mw046.bmp","null","","","","","","","","","","",""
"image-keyboard-response","111","124627","0.0-6.0-1.53","60fefd59226b2b1d87bc36db","bdp_trlrn","Sun Mar 12 2023 17:01:32 GMT-0400 (EDT)","776367","Untrustworthy,Trustworthy","","1603","","","","rating","","trustrating_stim/white_mw033.bmp","1","","","","","","","","","","",""
"image-keyboard-response","112","124829","0.0-6.0-2.53","60fefd59226b2b1d87bc36db","bdp_trlrn","Sun Mar 12 2023 17:01:32 GMT-0400 (EDT)","776367","Untrustworthy,Trustworthy","","null","","","","ratingFB","","trustrating_stim/white_mw033.bmp","null","","","","","","","","","","",""
"image-keyboard-response","113","125743","0.0-6.0-1.54","60fefd59226b2b1d87bc36db","bdp_trlrn","Sun Mar 12 2023 17:01:32 GMT-0400 (EDT)","776367","Untrustworthy,Trustworthy","","811","","","","rating","","trustrating_stim/white_00659_941121_fa_edt.bmp","1","","","","","","","","","","",""
"image-keyboard-response","114","125945","0.0-6.0-2.54","60fefd59226b2b1d87bc36db","bdp_trlrn","Sun Mar 12 2023 17:01:32 GMT-0400 (EDT)","776367","Untrustworthy,Trustworthy","","null","","","","ratingFB","","trustrating_stim/white_00659_941121_fa_edt.bmp","null","","","","","","","","","","",""
"image-keyboard-response","115","126927","0.0-6.0-1.55","60fefd59226b2b1d87bc36db","bdp_trlrn","Sun Mar 12 2023 17:01:32 GMT-0400 (EDT)","776367","Untrustworthy,Trustworthy","","878","","","","rating","","trustrating_stim/white_00761_941201_fb_edt.bmp","1","","","","","","","","","","",""
"image-keyboard-response","116","127129","0.0-6.0-2.55","60fefd59226b2b1d87bc36db","bdp_trlrn","Sun Mar 12 2023 17:01:32 GMT-0400 (EDT)","776367","Untrustworthy,Trustworthy","","null","","","","ratingFB","","trustrating_stim/white_00761_941201_fb_edt.bmp","null","","","","","","","","","","",""
"image-keyboard-response","117","128667","0.0-6.0-1.56","60fefd59226b2b1d87bc36db","bdp_trlrn","Sun Mar 12 2023 17:01:32 GMT-0400 (EDT)","776367","Untrustworthy,Trustworthy","","1435","","","","rating","","trustrating_stim/white_mw060.bmp","1","","","","","","","","","","",""
"image-keyboard-response","118","128869","0.0-6.0-2.56","60fefd59226b2b1d87bc36db","bdp_trlrn","Sun Mar 12 2023 17:01:32 GMT-0400 (EDT)","776367","Untrustworthy,Trustworthy","","null","","","","ratingFB","","trustrating_stim/white_mw060.bmp","null","","","","","","","","","","",""
"image-keyboard-response","119","129673","0.0-6.0-1.57","60fefd59226b2b1d87bc36db","bdp_trlrn","Sun Mar 12 2023 17:01:32 GMT-0400 (EDT)","776367","Untrustworthy,Trustworthy","","700","","","","rating","","trustrating_stim/white_00120_931230_fa_edt.bmp","1","","","","","","","","","","",""
"image-keyboard-response","120","129875","0.0-6.0-2.57","60fefd59226b2b1d87bc36db","bdp_trlrn","Sun Mar 12 2023 17:01:32 GMT-0400 (EDT)","776367","Untrustworthy,Trustworthy","","null","","","","ratingFB","","trustrating_stim/white_00120_931230_fa_edt.bmp","null","","","","","","","","","","",""
"image-keyboard-response","121","131644","0.0-6.0-1.58","60fefd59226b2b1d87bc36db","bdp_trlrn","Sun Mar 12 2023 17:01:32 GMT-0400 (EDT)","776367","Untrustworthy,Trustworthy","","1666","","","","rating","","trustrating_stim/white_mw066.bmp","1","","","","","","","","","","",""
"image-keyboard-response","122","131847","0.0-6.0-2.58","60fefd59226b2b1d87bc36db","bdp_trlrn","Sun Mar 12 2023 17:01:32 GMT-0400 (EDT)","776367","Untrustworthy,Trustworthy","","null","","","","ratingFB","","trustrating_stim/white_mw066.bmp","null","","","","","","","","","","",""
"image-keyboard-response","123","132482","0.0-6.0-1.59","60fefd59226b2b1d87bc36db","bdp_trlrn","Sun Mar 12 2023 17:01:32 GMT-0400 (EDT)","776367","Untrustworthy,Trustworthy","","533","","","","rating","","trustrating_stim/white_00223_940128_fb_edt.bmp","1","","","","","","","","","","",""
"image-keyboard-response","124","132684","0.0-6.0-2.59","60fefd59226b2b1d87bc36db","bdp_trlrn","Sun Mar 12 2023 17:01:32 GMT-0400 (EDT)","776367","Untrustworthy,Trustworthy","","null","","","","ratingFB","","trustrating_stim/white_00223_940128_fb_edt.bmp","null","","","","","","","","","","",""
"instructions","125","134260","0.0-7.0","60fefd59226b2b1d87bc36db","bdp_trlrn","Sun Mar 12 2023 17:01:32 GMT-0400 (EDT)","776367","Untrustworthy,Trustworthy","[{""page_index"":0,""viewing_time"":1473}]","1473","","","","","","","","","","","","","","","","","",""
"instructions","126","239838","0.0-8.0","60fefd59226b2b1d87bc36db","bdp_trlrn","Sun Mar 12 2023 17:01:32 GMT-0400 (EDT)","776367","Untrustworthy,Trustworthy","[{""page_index"":0,""viewing_time"":20642},{""page_index"":1,""viewing_time"":1966},{""page_index"":2,""viewing_time"":3646},{""page_index"":3,""viewing_time"":45121},{""page_index"":4,""viewing_time"":2928},{""page_index"":5,""viewing_time"":24002},{""page_index"":6,""viewing_time"":4600},{""page_index"":7,""viewing_time"":2571}]","105476","","","","","","","","","","","","","","","","","",""
"html-keyboard-response","127","244333","0.0-9.0","60fefd59226b2b1d87bc36db","bdp_trlrn","Sun Mar 12 2023 17:01:32 GMT-0400 (EDT)","776367","Untrustworthy,Trustworthy","","4494","","","","","","<div class='header' style='text-align:left; position: absolute; top: 5%; left: 5%;'><small>Task 3 of 5</small></div><div class='instruxDiv'><p><strong>1) What is the minimum number of points you can choose to send to your partner?</strong></p><p>a) 0</p><p>b) 1</p><p>c) 5</p>","C","","","","","","","","","","",""
"html-keyboard-response","128","248037","0.0-10.0","60fefd59226b2b1d87bc36db","bdp_trlrn","Sun Mar 12 2023 17:01:32 GMT-0400 (EDT)","776367","Untrustworthy,Trustworthy","","3601","","","","","","<div class='header' style='text-align:left; position: absolute; top: 5%; left: 5%;'><small>Task 3 of 5</small></div><div class='instruxDiv'><p><strong>1) What is the minimum number of points you can choose to send to your partner?</strong></p><p>a) 1</p><p>b) 1</p><p style='color:#FF0000'>c) 5</p><h3 style='color:#FF0000'>Incorrect!</h3><h3 class='center-content'>The correct response is b).</h3><h3 class='center-content'>The minimum number of points you can choose to send to your partner is 1 point.</h3><p><em>Press SPACEBAR to continue</em></p></div>"," ","","","","","","","","","","",""
"html-keyboard-response","129","255184","0.0-11.0","60fefd59226b2b1d87bc36db","bdp_trlrn","Sun Mar 12 2023 17:01:32 GMT-0400 (EDT)","776367","Untrustworthy,Trustworthy","","7046","","","","","","<div class='header' style='text-align:left; position: absolute; top: 5%; left: 5%;'><small>Task 3 of 5</small></div><div class='instruxDiv'><p><strong>2) What is the maximum number of points you can choose to send to your partner?</strong></p><p>a) 8</p><p>b) 5</p><p>c) 3</p>","B","","","","","","","","","","",""
"html-keyboard-response","130","256443","0.0-12.0","60fefd59226b2b1d87bc36db","bdp_trlrn","Sun Mar 12 2023 17:01:32 GMT-0400 (EDT)","776367","Untrustworthy,Trustworthy","","1156","","","","","","<div class='header' style='text-align:left; position: absolute; top: 5%; left: 5%;'><small>Task 3 of 5</small></div><div class='instruxDiv'><p><strong>2) What is the maximum number of points you can choose to send to your partner?</strong></p><p>a) 8</p><p style='color:#00FF00'>b) 5</p><p>c) 3</p><h3 style='color:#00FF00'>Correct!</h3><h3 class='center-content'>The correct response is b).</h3><h3 class='center-content'>The maximum number of points you can choose to send to your partner is 5 points.</h3><p><em>Press SPACEBAR to continue</em></p></div>"," ","","","","","","","","","","",""
"html-keyboard-response","131","260325","0.0-13.0","60fefd59226b2b1d87bc36db","bdp_trlrn","Sun Mar 12 2023 17:01:32 GMT-0400 (EDT)","776367","Untrustworthy,Trustworthy","","3781","","","","","","<div class='header' style='text-align:left; position: absolute; top: 5%; left: 5%;'><small>Task 3 of 5</small></div><div class='instruxDiv'><p><strong>3) What happens to the amount of points you send to your partner?</strong></p><p>a) Nothing</p><p>b) It doubles</p><p>c) It quadruples</p>","C","","","","","","","","","","",""
"html-keyboard-response","132","261605","0.0-14.0","60fefd59226b2b1d87bc36db","bdp_trlrn","Sun Mar 12 2023 17:01:32 GMT-0400 (EDT)","776367","Untrustworthy,Trustworthy","","1178","","","","","","<div class='header' style='text-align:left; position: absolute; top: 5%; left: 5%;'><small>Task 3 of 5</small></div><div class='instruxDiv'><p><strong>3) What happens to the amount of points you send to your partner?</strong></p><p>a) Nothing</p><p>b) It doubles</p><p style='color:#00FF00'>c) It quadruples</p><h3 style='color:#00FF00'>Correct!</h3><h3 class='center-content'>The correct response is c).</h3><h3 class='center-content'>The amount of points you send to your partner quadruples.</h3><p><em>Press SPACEBAR to continue</em></p></div>"," ","","","","","","","","","","",""
"html-keyboard-response","133","286920","0.0-15.0","60fefd59226b2b1d87bc36db","bdp_trlrn","Sun Mar 12 2023 17:01:32 GMT-0400 (EDT)","776367","Untrustworthy,Trustworthy","","25212","","","","","","<div class='header' style='text-align:left; position: absolute; top: 5%; left: 5%;'><small>Task 3 of 5</small></div><div class='instruxDiv'><p><strong>4) If you decided to share 4 out of 5 points with your partner, and they decided to share half of the amount they received with you, how many points would you receive back from them on this round?</strong></p><p>a) 16</p><p>b) 0</p><p>c) 8</p>","C","","","","","","","","","","",""
"html-keyboard-response","134","288134","0.0-16.0","60fefd59226b2b1d87bc36db","bdp_trlrn","Sun Mar 12 2023 17:01:32 GMT-0400 (EDT)","776367","Untrustworthy,Trustworthy","","1111","","","","","","<div class='header' style='text-align:left; position: absolute; top: 5%; left: 5%;'><small>Task 3 of 5</small></div><div class='instruxDiv'><p><strong>4) If you decided to share 4 out of 5 points with your partner, and they decided to share half of the amount they received with you, how many points would you receive back from them on this round?</strong></p><p>a) 16</p><p>b) 0</p><p style='color:#00FF00'>c) 8</p><h3 style='color:#00FF00'>Correct!</h3><h3 class='center-content'>The correct response is c).</h3><h3 class='center-content'>If you shared 4 out of 5 points with your partner and they decided to share half of the amount they received with you, you would receive 8 points back (i.e. (4 x 4)/2 = 8).</h3><p><em>Press SPACEBAR to continue</em></p></div>"," ","","","","","","","","","","",""
"html-keyboard-response","135","293238","0.0-17.0","60fefd59226b2b1d87bc36db","bdp_trlrn","Sun Mar 12 2023 17:01:32 GMT-0400 (EDT)","776367","Untrustworthy,Trustworthy","","null","","","","","","<div class='header' style='text-align:left; position: absolute; top: 5%; left: 5%;'><small>Task 3 of 5</small></div><div class='instruxDiv'><p>Thank you for completing the quiz<p>These are the actual partners you will be interacting with in the next block:<p><div class='tc' align='center'><img class='introPic' src='trustrating_stim/white_00519_940519_fb_edt.bmp'><br><strong>Richard</strong></div><div class='bl' align='center'><img class='introPic' src='trustrating_stim/white_00120_931230_fa_edt.bmp'><br><strong>Anthony</strong></div><div class='br' align='center'><img class='introPic' src='trustrating_stim/white_00223_940128_fb_edt.bmp'><br><strong>Alex</strong></div></div><p>Across <strong>66 rounds</strong> you will interact with each partner <strong>22 times</strong> (in random order).<p style='align:center; color:white'><font <em>Press SPACEBAR to continue</em></p>","null","","","","","","","","","","",""
"instructions","136","295789","0.0-18.0","60fefd59226b2b1d87bc36db","bdp_trlrn","Sun Mar 12 2023 17:01:32 GMT-0400 (EDT)","776367","Untrustworthy,Trustworthy","[{""page_index"":0,""viewing_time"":1511},{""page_index"":1,""viewing_time"":1040}]","2551","","","","","","","","","","","","","","","","","",""
"html-keyboard-response","137","298766","0.0-19.0-1.0","60fefd59226b2b1d87bc36db","bdp_trlrn","Sun Mar 12 2023 17:01:32 GMT-0400 (EDT)","776367","Untrustworthy,Trustworthy","","2874","","","","decision","","<div class='trialDiv'><img src='trustrating_stim/white_00519_940519_fb_edt.bmp'><br><font class='baseline'><strong>Richard</strong><p>Choose number of points to send.</font><div class='respPicDiv'><img src='img/responseButtonOffersNo0L.png' class='respPic'></div></div>","1","1","Richard","3","Shared","0.8,0.35","11","0.8","trustrating_stim/white_00519_940519_fb_edt.bmp","1","5","1"
"html-keyboard-response","138","299019","0.0-19.0-2.0","60fefd59226b2b1d87bc36db","bdp_trlrn","Sun Mar 12 2023 17:01:32 GMT-0400 (EDT)","776367","Untrustworthy,Trustworthy","","null","","","","decisionFB","","<div class='trialDiv'><img src='trustrating_stim/white_00519_940519_fb_edt.bmp'><br><font class='baseline'><strong>Richard</strong><p>Choose number of points to send.</font><div class='respPicDiv'><img src='img/responseButtonOffersNo0L1.png' class='respPic'></div></div>","null","1","Richard","3","Shared","0.8,0.35","11","0.8","trustrating_stim/white_00519_940519_fb_edt.bmp","1","4","1"
"html-keyboard-response","139","300022","0.0-19.0-3.0","60fefd59226b2b1d87bc36db","bdp_trlrn","Sun Mar 12 2023 17:01:32 GMT-0400 (EDT)","776367","Untrustworthy,Trustworthy","","null","","","","feedback","","<div class='trialDiv'><img src='trustrating_stim/white_00519_940519_fb_edt.bmp'><br><font class='baseline'><strong>Richard</strong><p>Received: <strong>4</strong></font> &nbsp; &nbsp; &nbsp; &nbsp; &nbsp; &nbsp;<font class='posOutcome'>Shared back: <strong>2</strong></font></font><div class='respPicDiv'><img src='img/responseButtonOffersNo0_wht.png' class='respPic'></div></div>","null","1","Richard","3","Shared","0.8,0.35","11","0.8","trustrating_stim/white_00519_940519_fb_edt.bmp","1","6","1"
"html-keyboard-response","140","301592","0.0-19.0-1.1","60fefd59226b2b1d87bc36db","bdp_trlrn","Sun Mar 12 2023 17:01:32 GMT-0400 (EDT)","776367","Untrustworthy,Trustworthy","","1567","","","","decision","","<div class='trialDiv'><img src='trustrating_stim/white_00223_940128_fb_edt.bmp'><br><font class='baseline'><strong>Alex</strong><p>Choose number of points to send.</font><div class='respPicDiv'><img src='img/responseButtonOffersNo0L.png' class='respPic'></div></div>","1","1","Alex","9","Shared","0.65,0.35","11","0.65","trustrating_stim/white_00223_940128_fb_edt.bmp","1","11","2"
"html-keyboard-response","141","301844","0.0-19.0-2.1","60fefd59226b2b1d87bc36db","bdp_trlrn","Sun Mar 12 2023 17:01:32 GMT-0400 (EDT)","776367","Untrustworthy,Trustworthy","","null","","","","decisionFB","","<div class='trialDiv'><img src='trustrating_stim/white_00223_940128_fb_edt.bmp'><br><font class='baseline'><strong>Alex</strong><p>Choose number of points to send.</font><div class='respPicDiv'><img src='img/responseButtonOffersNo0L1.png' class='respPic'></div></div>","null","1","Alex","9","Shared","0.65,0.35","11","0.65","trustrating_stim/white_00223_940128_fb_edt.bmp","1","10","2"
"html-keyboard-response","142","302847","0.0-19.0-3.1","60fefd59226b2b1d87bc36db","bdp_trlrn","Sun Mar 12 2023 17:01:32 GMT-0400 (EDT)","776367","Untrustworthy,Trustworthy","","null","","","","feedback","","<div class='trialDiv'><img src='trustrating_stim/white_00223_940128_fb_edt.bmp'><br><font class='baseline'><strong>Alex</strong><p>Received: <strong>4</strong></font> &nbsp; &nbsp; &nbsp; &nbsp; &nbsp; &nbsp;<font class='posOutcome'>Shared back: <strong>2</strong></font></font><div class='respPicDiv'><img src='img/responseButtonOffersNo0_wht.png' class='respPic'></div></div>","null","1","Alex","9","Shared","0.65,0.35","11","0.65","trustrating_stim/white_00223_940128_fb_edt.bmp","1","12","2"
"html-keyboard-response","143","303450","0.0-19.0-1.2","60fefd59226b2b1d87bc36db","bdp_trlrn","Sun Mar 12 2023 17:01:32 GMT-0400 (EDT)","776367","Untrustworthy,Trustworthy","","603","","","","decision","","<div class='trialDiv'><img src='trustrating_stim/white_00120_931230_fa_edt.bmp'><br><font class='baseline'><strong>Anthony</strong><p>Choose number of points to send.</font><div class='respPicDiv'><img src='img/responseButtonOffersNo0L.png' class='respPic'></div></div>","1","1","Anthony","5","Shared","0.35,0.8","8","0.35","trustrating_stim/white_00120_931230_fa_edt.bmp","1","17","3"
"html-keyboard-response","144","303702","0.0-19.0-2.2","60fefd59226b2b1d87bc36db","bdp_trlrn","Sun Mar 12 2023 17:01:32 GMT-0400 (EDT)","776367","Untrustworthy,Trustworthy","","null","","","","decisionFB","","<div class='trialDiv'><img src='trustrating_stim/white_00120_931230_fa_edt.bmp'><br><font class='baseline'><strong>Anthony</strong><p>Choose number of points to send.</font><div class='respPicDiv'><img src='img/responseButtonOffersNo0L1.png' class='respPic'></div></div>","null","1","Anthony","5","Shared","0.35,0.8","8","0.35","trustrating_stim/white_00120_931230_fa_edt.bmp","1","16","3"
"html-keyboard-response","145","304705","0.0-19.0-3.2","60fefd59226b2b1d87bc36db","bdp_trlrn","Sun Mar 12 2023 17:01:32 GMT-0400 (EDT)","776367","Untrustworthy,Trustworthy","","null","","","","feedback","","<div class='trialDiv'><img src='trustrating_stim/white_00120_931230_fa_edt.bmp'><br><font class='baseline'><strong>Anthony</strong><p>Received: <strong>4</strong></font> &nbsp; &nbsp; &nbsp; &nbsp; &nbsp; &nbsp;<font class='posOutcome'>Shared back: <strong>2</strong></font></font><div class='respPicDiv'><img src='img/responseButtonOffersNo0_wht.png' class='respPic'></div></div>","null","1","Anthony","5","Shared","0.35,0.8","8","0.35","trustrating_stim/white_00120_931230_fa_edt.bmp","1","18","3"
"html-keyboard-response","146","305330","0.0-19.0-1.3","60fefd59226b2b1d87bc36db","bdp_trlrn","Sun Mar 12 2023 17:01:32 GMT-0400 (EDT)","776367","Untrustworthy,Trustworthy","","624","","","","decision","","<div class='trialDiv'><img src='trustrating_stim/white_00223_940128_fb_edt.bmp'><br><font class='baseline'><strong>Alex</strong><p>Choose number of points to send.</font><div class='respPicDiv'><img src='img/responseButtonOffersNo0L.png' class='respPic'></div></div>","3","2","Alex","9","Shared","0.65,0.35","11","0.65","trustrating_stim/white_00223_940128_fb_edt.bmp","1","23","4"
"html-keyboard-response","147","305582","0.0-19.0-2.3","60fefd59226b2b1d87bc36db","bdp_trlrn","Sun Mar 12 2023 17:01:32 GMT-0400 (EDT)","776367","Untrustworthy,Trustworthy","","null","","","","decisionFB","","<div class='trialDiv'><img src='trustrating_stim/white_00223_940128_fb_edt.bmp'><br><font class='baseline'><strong>Alex</strong><p>Choose number of points to send.</font><div class='respPicDiv'><img src='img/responseButtonOffersNo0L3.png' class='respPic'></div></div>","null","2","Alex","9","Shared","0.65,0.35","11","0.65","trustrating_stim/white_00223_940128_fb_edt.bmp","1","20","4"
"html-keyboard-response","148","306585","0.0-19.0-3.3","60fefd59226b2b1d87bc36db","bdp_trlrn","Sun Mar 12 2023 17:01:32 GMT-0400 (EDT)","776367","Untrustworthy,Trustworthy","","null","","","","feedback","","<div class='trialDiv'><img src='trustrating_stim/white_00223_940128_fb_edt.bmp'><br><font class='baseline'><strong>Alex</strong><p>Received: <strong>12</strong></font> &nbsp; &nbsp; &nbsp; &nbsp; &nbsp; &nbsp;<font class='posOutcome'>Shared back: <strong>6</strong></font></font><div class='respPicDiv'><img src='img/responseButtonOffersNo0_wht.png' class='respPic'></div></div>","null","2","Alex","9","Shared","0.65,0.35","11","0.65","trustrating_stim/white_00223_940128_fb_edt.bmp","1","26","4"
"html-keyboard-response","149","307102","0.0-19.0-1.4","60fefd59226b2b1d87bc36db","bdp_trlrn","Sun Mar 12 2023 17:01:32 GMT-0400 (EDT)","776367","Untrustworthy,Trustworthy","","516","","","","decision","","<div class='trialDiv'><img src='trustrating_stim/white_00519_940519_fb_edt.bmp'><br><font class='baseline'><strong>Richard</strong><p>Choose number of points to send.</font><div class='respPicDiv'><img src='img/responseButtonOffersNo0L.png' class='respPic'></div></div>","3","2","Richard","3","Shared","0.8,0.35","11","0.8","trustrating_stim/white_00519_940519_fb_edt.bmp","1","31","5"
"html-keyboard-response","150","307355","0.0-19.0-2.4","60fefd59226b2b1d87bc36db","bdp_trlrn","Sun Mar 12 2023 17:01:32 GMT-0400 (EDT)","776367","Untrustworthy,Trustworthy","","null","","","","decisionFB","","<div class='trialDiv'><img src='trustrating_stim/white_00519_940519_fb_edt.bmp'><br><font class='baseline'><strong>Richard</strong><p>Choose number of points to send.</font><div class='respPicDiv'><img src='img/responseButtonOffersNo0L3.png' class='respPic'></div></div>","null","2","Richard","3","Shared","0.8,0.35","11","0.8","trustrating_stim/white_00519_940519_fb_edt.bmp","1","28","5"
"html-keyboard-response","151","308357","0.0-19.0-3.4","60fefd59226b2b1d87bc36db","bdp_trlrn","Sun Mar 12 2023 17:01:32 GMT-0400 (EDT)","776367","Untrustworthy,Trustworthy","","null","","","","feedback","","<div class='trialDiv'><img src='trustrating_stim/white_00519_940519_fb_edt.bmp'><br><font class='baseline'><strong>Richard</strong><p>Received: <strong>12</strong></font> &nbsp; &nbsp; &nbsp; &nbsp; &nbsp; &nbsp;<font class='posOutcome'>Shared back: <strong>6</strong></font></font><div class='respPicDiv'><img src='img/responseButtonOffersNo0_wht.png' class='respPic'></div></div>","null","2","Richard","3","Shared","0.8,0.35","11","0.8","trustrating_stim/white_00519_940519_fb_edt.bmp","1","34","5"
"html-keyboard-response","152","308761","0.0-19.0-1.5","60fefd59226b2b1d87bc36db","bdp_trlrn","Sun Mar 12 2023 17:01:32 GMT-0400 (EDT)","776367","Untrustworthy,Trustworthy","","403","","","","decision","","<div class='trialDiv'><img src='trustrating_stim/white_00120_931230_fa_edt.bmp'><br><font class='baseline'><strong>Anthony</strong><p>Choose number of points to send.</font><div class='respPicDiv'><img src='img/responseButtonOffersNo0L.png' class='respPic'></div></div>","4","2","Anthony","5","Shared","0.35,0.8","8","0.35","trustrating_stim/white_00120_931230_fa_edt.bmp","1","39","6"
"html-keyboard-response","153","309013","0.0-19.0-2.5","60fefd59226b2b1d87bc36db","bdp_trlrn","Sun Mar 12 2023 17:01:32 GMT-0400 (EDT)","776367","Untrustworthy,Trustworthy","","null","","","","decisionFB","","<div class='trialDiv'><img src='trustrating_stim/white_00120_931230_fa_edt.bmp'><br><font class='baseline'><strong>Anthony</strong><p>Choose number of points to send.</font><div class='respPicDiv'><img src='img/responseButtonOffersNo0L4.png' class='respPic'></div></div>","null","2","Anthony","5","Shared","0.35,0.8","8","0.35","trustrating_stim/white_00120_931230_fa_edt.bmp","1","35","6"
"html-keyboard-response","154","310016","0.0-19.0-3.5","60fefd59226b2b1d87bc36db","bdp_trlrn","Sun Mar 12 2023 17:01:32 GMT-0400 (EDT)","776367","Untrustworthy,Trustworthy","","null","","","","feedback","","<div class='trialDiv'><img src='trustrating_stim/white_00120_931230_fa_edt.bmp'><br><font class='baseline'><strong>Anthony</strong><p>Received: <strong>16</strong></font> &nbsp; &nbsp; &nbsp; &nbsp; &nbsp; &nbsp;<font class='posOutcome'>Shared back: <strong>8</strong></font></font><div class='respPicDiv'><img src='img/responseButtonOffersNo0_wht.png' class='respPic'></div></div>","null","2","Anthony","5","Shared","0.35,0.8","8","0.35","trustrating_stim/white_00120_931230_fa_edt.bmp","1","43","6"
"html-keyboard-response","155","310715","0.0-19.0-1.6","60fefd59226b2b1d87bc36db","bdp_trlrn","Sun Mar 12 2023 17:01:32 GMT-0400 (EDT)","776367","Untrustworthy,Trustworthy","","698","","","","decision","","<div class='trialDiv'><img src='trustrating_stim/white_00519_940519_fb_edt.bmp'><br><font class='baseline'><strong>Richard</strong><p>Choose number of points to send.</font><div class='respPicDiv'><img src='img/responseButtonOffersNo0L.png' class='respPic'></div></div>","4","3","Richard","3","Shared","0.8,0.35","11","0.8","trustrating_stim/white_00519_940519_fb_edt.bmp","1","48","7"
"html-keyboard-response","156","310966","0.0-19.0-2.6","60fefd59226b2b1d87bc36db","bdp_trlrn","Sun Mar 12 2023 17:01:32 GMT-0400 (EDT)","776367","Untrustworthy,Trustworthy","","null","","","","decisionFB","","<div class='trialDiv'><img src='trustrating_stim/white_00519_940519_fb_edt.bmp'><br><font class='baseline'><strong>Richard</strong><p>Choose number of points to send.</font><div class='respPicDiv'><img src='img/responseButtonOffersNo0L4.png' class='respPic'></div></div>","null","3","Richard","3","Shared","0.8,0.35","11","0.8","trustrating_stim/white_00519_940519_fb_edt.bmp","1","44","7"
"html-keyboard-response","157","311969","0.0-19.0-3.6","60fefd59226b2b1d87bc36db","bdp_trlrn","Sun Mar 12 2023 17:01:32 GMT-0400 (EDT)","776367","Untrustworthy,Trustworthy","","null","","","","feedback","","<div class='trialDiv'><img src='trustrating_stim/white_00519_940519_fb_edt.bmp'><br><font class='baseline'><strong>Richard</strong><p>Received: <strong>16</strong></font> &nbsp; &nbsp; &nbsp; &nbsp; &nbsp; &nbsp;<font class='posOutcome'>Shared back: <strong>8</strong></font></font><div class='respPicDiv'><img src='img/responseButtonOffersNo0_wht.png' class='respPic'></div></div>","null","3","Richard","3","Shared","0.8,0.35","11","0.8","trustrating_stim/white_00519_940519_fb_edt.bmp","1","52","7"
"html-keyboard-response","158","312476","0.0-19.0-1.7","60fefd59226b2b1d87bc36db","bdp_trlrn","Sun Mar 12 2023 17:01:32 GMT-0400 (EDT)","776367","Untrustworthy,Trustworthy","","506","","","","decision","","<div class='trialDiv'><img src='trustrating_stim/white_00223_940128_fb_edt.bmp'><br><font class='baseline'><strong>Alex</strong><p>Choose number of points to send.</font><div class='respPicDiv'><img src='img/responseButtonOffersNo0L.png' class='respPic'></div></div>","5","3","Alex","9","Shared","0.65,0.35","11","0.65","trustrating_stim/white_00223_940128_fb_edt.bmp","1","57","8"
"html-keyboard-response","159","312728","0.0-19.0-2.7","60fefd59226b2b1d87bc36db","bdp_trlrn","Sun Mar 12 2023 17:01:32 GMT-0400 (EDT)","776367","Untrustworthy,Trustworthy","","null","","","","decisionFB","","<div class='trialDiv'><img src='trustrating_stim/white_00223_940128_fb_edt.bmp'><br><font class='baseline'><strong>Alex</strong><p>Choose number of points to send.</font><div class='respPicDiv'><img src='img/responseButtonOffersNo0L5.png' class='respPic'></div></div>","null","3","Alex","9","Shared","0.65,0.35","11","0.65","trustrating_stim/white_00223_940128_fb_edt.bmp","1","52","8"
"html-keyboard-response","160","313731","0.0-19.0-3.7","60fefd59226b2b1d87bc36db","bdp_trlrn","Sun Mar 12 2023 17:01:32 GMT-0400 (EDT)","776367","Untrustworthy,Trustworthy","","null","","","","feedback","","<div class='trialDiv'><img src='trustrating_stim/white_00223_940128_fb_edt.bmp'><br><font class='baseline'><strong>Alex</strong><p>Received: <strong>20</strong></font> &nbsp; &nbsp; &nbsp; &nbsp; &nbsp; &nbsp;<font class='posOutcome'>Shared back: <strong>10</strong></font></font><div class='respPicDiv'><img src='img/responseButtonOffersNo0_wht.png' class='respPic'></div></div>","null","3","Alex","9","Shared","0.65,0.35","11","0.65","trustrating_stim/white_00223_940128_fb_edt.bmp","1","62","8"
"html-keyboard-response","161","338791","0.0-19.0-1.8","60fefd59226b2b1d87bc36db","bdp_trlrn","Sun Mar 12 2023 17:01:32 GMT-0400 (EDT)","776367","Untrustworthy,Trustworthy","","25058","","","","decision","","<div class='trialDiv'><img src='trustrating_stim/white_00120_931230_fa_edt.bmp'><br><font class='baseline'><strong>Anthony</strong><p>Choose number of points to send.</font><div class='respPicDiv'><img src='img/responseButtonOffersNo0L.png' class='respPic'></div></div>","5","3","Anthony","5","Kept","0.35,0.8","8","0.35","trustrating_stim/white_00120_931230_fa_edt.bmp","1","67","9"
"html-keyboard-response","162","339046","0.0-19.0-2.8","60fefd59226b2b1d87bc36db","bdp_trlrn","Sun Mar 12 2023 17:01:32 GMT-0400 (EDT)","776367","Untrustworthy,Trustworthy","","null","","","","decisionFB","","<div class='trialDiv'><img src='trustrating_stim/white_00120_931230_fa_edt.bmp'><br><font class='baseline'><strong>Anthony</strong><p>Choose number of points to send.</font><div class='respPicDiv'><img src='img/responseButtonOffersNo0L5.png' class='respPic'></div></div>","null","3","Anthony","5","Kept","0.35,0.8","8","0.35","trustrating_stim/white_00120_931230_fa_edt.bmp","1","62","9"
"html-keyboard-response","163","340048","0.0-19.0-3.8","60fefd59226b2b1d87bc36db","bdp_trlrn","Sun Mar 12 2023 17:01:32 GMT-0400 (EDT)","776367","Untrustworthy,Trustworthy","","null","","","","feedback","","<div class='trialDiv'><img src='trustrating_stim/white_00120_931230_fa_edt.bmp'><br><font class='baseline'><strong>Anthony</strong><p>Received: <strong>20</strong></font> &nbsp; &nbsp; &nbsp; &nbsp; &nbsp; &nbsp;<font class='negOutcome'>Shared back: <strong>0</strong></font></font><div class='respPicDiv'><img src='img/responseButtonOffersNo0_wht.png' class='respPic'></div></div>","null","3","Anthony","5","Kept","0.35,0.8","8","0.35","trustrating_stim/white_00120_931230_fa_edt.bmp","1","62","9"
"html-keyboard-response","164","341082","0.0-19.0-1.9","60fefd59226b2b1d87bc36db","bdp_trlrn","Sun Mar 12 2023 17:01:32 GMT-0400 (EDT)","776367","Untrustworthy,Trustworthy","","1032","","","","decision","","<div class='trialDiv'><img src='trustrating_stim/white_00519_940519_fb_edt.bmp'><br><font class='baseline'><strong>Richard</strong><p>Choose number of points to send.</font><div class='respPicDiv'><img src='img/responseButtonOffersNo0L.png' class='respPic'></div></div>","3","4","Richard","3","Shared","0.8,0.35","11","0.8","trustrating_stim/white_00519_940519_fb_edt.bmp","1","67","10"
"html-keyboard-response","165","341334","0.0-19.0-2.9","60fefd59226b2b1d87bc36db","bdp_trlrn","Sun Mar 12 2023 17:01:32 GMT-0400 (EDT)","776367","Untrustworthy,Trustworthy","","null","","","","decisionFB","","<div class='trialDiv'><img src='trustrating_stim/white_00519_940519_fb_edt.bmp'><br><font class='baseline'><strong>Richard</strong><p>Choose number of points to send.</font><div class='respPicDiv'><img src='img/responseButtonOffersNo0L3.png' class='respPic'></div></div>","null","4","Richard","3","Shared","0.8,0.35","11","0.8","trustrating_stim/white_00519_940519_fb_edt.bmp","1","64","10"
"html-keyboard-response","166","342336","0.0-19.0-3.9","60fefd59226b2b1d87bc36db","bdp_trlrn","Sun Mar 12 2023 17:01:32 GMT-0400 (EDT)","776367","Untrustworthy,Trustworthy","","null","","","","feedback","","<div class='trialDiv'><img src='trustrating_stim/white_00519_940519_fb_edt.bmp'><br><font class='baseline'><strong>Richard</strong><p>Received: <strong>12</strong></font> &nbsp; &nbsp; &nbsp; &nbsp; &nbsp; &nbsp;<font class='posOutcome'>Shared back: <strong>6</strong></font></font><div class='respPicDiv'><img src='img/responseButtonOffersNo0_wht.png' class='respPic'></div></div>","null","4","Richard","3","Shared","0.8,0.35","11","0.8","trustrating_stim/white_00519_940519_fb_edt.bmp","1","70","10"
"html-keyboard-response","167","343350","0.0-19.0-1.10","60fefd59226b2b1d87bc36db","bdp_trlrn","Sun Mar 12 2023 17:01:32 GMT-0400 (EDT)","776367","Untrustworthy,Trustworthy","","1012","","","","decision","","<div class='trialDiv'><img src='trustrating_stim/white_00223_940128_fb_edt.bmp'><br><font class='baseline'><strong>Alex</strong><p>Choose number of points to send.</font><div class='respPicDiv'><img src='img/responseButtonOffersNo0L.png' class='respPic'></div></div>","3","4","Alex","9","Shared","0.65,0.35","11","0.65","trustrating_stim/white_00223_940128_fb_edt.bmp","1","75","11"
"html-keyboard-response","168","343601","0.0-19.0-2.10","60fefd59226b2b1d87bc36db","bdp_trlrn","Sun Mar 12 2023 17:01:32 GMT-0400 (EDT)","776367","Untrustworthy,Trustworthy","","null","","","","decisionFB","","<div class='trialDiv'><img src='trustrating_stim/white_00223_940128_fb_edt.bmp'><br><font class='baseline'><strong>Alex</strong><p>Choose number of points to send.</font><div class='respPicDiv'><img src='img/responseButtonOffersNo0L3.png' class='respPic'></div></div>","null","4","Alex","9","Shared","0.65,0.35","11","0.65","trustrating_stim/white_00223_940128_fb_edt.bmp","1","72","11"
"html-keyboard-response","169","344604","0.0-19.0-3.10","60fefd59226b2b1d87bc36db","bdp_trlrn","Sun Mar 12 2023 17:01:32 GMT-0400 (EDT)","776367","Untrustworthy,Trustworthy","","null","","","","feedback","","<div class='trialDiv'><img src='trustrating_stim/white_00223_940128_fb_edt.bmp'><br><font class='baseline'><strong>Alex</strong><p>Received: <strong>12</strong></font> &nbsp; &nbsp; &nbsp; &nbsp; &nbsp; &nbsp;<font class='posOutcome'>Shared back: <strong>6</strong></font></font><div class='respPicDiv'><img src='img/responseButtonOffersNo0_wht.png' class='respPic'></div></div>","null","4","Alex","9","Shared","0.65,0.35","11","0.65","trustrating_stim/white_00223_940128_fb_edt.bmp","1","78","11"
"html-keyboard-response","170","346754","0.0-19.0-1.11","60fefd59226b2b1d87bc36db","bdp_trlrn","Sun Mar 12 2023 17:01:32 GMT-0400 (EDT)","776367","Untrustworthy,Trustworthy","","2148","","","","decision","","<div class='trialDiv'><img src='trustrating_stim/white_00120_931230_fa_edt.bmp'><br><font class='baseline'><strong>Anthony</strong><p>Choose number of points to send.</font><div class='respPicDiv'><img src='img/responseButtonOffersNo0L.png' class='respPic'></div></div>","4","4","Anthony","5","Shared","0.35,0.8","8","0.35","trustrating_stim/white_00120_931230_fa_edt.bmp","1","83","12"
"html-keyboard-response","171","347006","0.0-19.0-2.11","60fefd59226b2b1d87bc36db","bdp_trlrn","Sun Mar 12 2023 17:01:32 GMT-0400 (EDT)","776367","Untrustworthy,Trustworthy","","null","","","","decisionFB","","<div class='trialDiv'><img src='trustrating_stim/white_00120_931230_fa_edt.bmp'><br><font class='baseline'><strong>Anthony</strong><p>Choose number of points to send.</font><div class='respPicDiv'><img src='img/responseButtonOffersNo0L4.png' class='respPic'></div></div>","null","4","Anthony","5","Shared","0.35,0.8","8","0.35","trustrating_stim/white_00120_931230_fa_edt.bmp","1","79","12"
"html-keyboard-response","172","348008","0.0-19.0-3.11","60fefd59226b2b1d87bc36db","bdp_trlrn","Sun Mar 12 2023 17:01:32 GMT-0400 (EDT)","776367","Untrustworthy,Trustworthy","","null","","","","feedback","","<div class='trialDiv'><img src='trustrating_stim/white_00120_931230_fa_edt.bmp'><br><font class='baseline'><strong>Anthony</strong><p>Received: <strong>16</strong></font> &nbsp; &nbsp; &nbsp; &nbsp; &nbsp; &nbsp;<font class='posOutcome'>Shared back: <strong>8</strong></font></font><div class='respPicDiv'><img src='img/responseButtonOffersNo0_wht.png' class='respPic'></div></div>","null","4","Anthony","5","Shared","0.35,0.8","8","0.35","trustrating_stim/white_00120_931230_fa_edt.bmp","1","87","12"
"html-keyboard-response","173","348314","0.0-19.0-1.12","60fefd59226b2b1d87bc36db","bdp_trlrn","Sun Mar 12 2023 17:01:32 GMT-0400 (EDT)","776367","Untrustworthy,Trustworthy","","305","","","","decision","","<div class='trialDiv'><img src='trustrating_stim/white_00519_940519_fb_edt.bmp'><br><font class='baseline'><strong>Richard</strong><p>Choose number of points to send.</font><div class='respPicDiv'><img src='img/responseButtonOffersNo0L.png' class='respPic'></div></div>","5","5","Richard","3","Kept","0.8,0.35","11","0.8","trustrating_stim/white_00519_940519_fb_edt.bmp","1","92","13"
"html-keyboard-response","174","348566","0.0-19.0-2.12","60fefd59226b2b1d87bc36db","bdp_trlrn","Sun Mar 12 2023 17:01:32 GMT-0400 (EDT)","776367","Untrustworthy,Trustworthy","","null","","","","decisionFB","","<div class='trialDiv'><img src='trustrating_stim/white_00519_940519_fb_edt.bmp'><br><font class='baseline'><strong>Richard</strong><p>Choose number of points to send.</font><div class='respPicDiv'><img src='img/responseButtonOffersNo0L5.png' class='respPic'></div></div>","null","5","Richard","3","Kept","0.8,0.35","11","0.8","trustrating_stim/white_00519_940519_fb_edt.bmp","1","87","13"
"html-keyboard-response","175","349569","0.0-19.0-3.12","60fefd59226b2b1d87bc36db","bdp_trlrn","Sun Mar 12 2023 17:01:32 GMT-0400 (EDT)","776367","Untrustworthy,Trustworthy","","null","","","","feedback","","<div class='trialDiv'><img src='trustrating_stim/white_00519_940519_fb_edt.bmp'><br><font class='baseline'><strong>Richard</strong><p>Received: <strong>20</strong></font> &nbsp; &nbsp; &nbsp; &nbsp; &nbsp; &nbsp;<font class='negOutcome'>Shared back: <strong>0</strong></font></font><div class='respPicDiv'><img src='img/responseButtonOffersNo0_wht.png' class='respPic'></div></div>","null","5","Richard","3","Kept","0.8,0.35","11","0.8","trustrating_stim/white_00519_940519_fb_edt.bmp","1","87","13"
"html-keyboard-response","176","349793","0.0-19.0-1.13","60fefd59226b2b1d87bc36db","bdp_trlrn","Sun Mar 12 2023 17:01:32 GMT-0400 (EDT)","776367","Untrustworthy,Trustworthy","","222","","","","decision","","<div class='trialDiv'><img src='trustrating_stim/white_00120_931230_fa_edt.bmp'><br><font class='baseline'><strong>Anthony</strong><p>Choose number of points to send.</font><div class='respPicDiv'><img src='img/responseButtonOffersNo0L.png' class='respPic'></div></div>","4","5","Anthony","5","Shared","0.35,0.8","8","0.35","trustrating_stim/white_00120_931230_fa_edt.bmp","1","92","14"
"html-keyboard-response","177","350045","0.0-19.0-2.13","60fefd59226b2b1d87bc36db","bdp_trlrn","Sun Mar 12 2023 17:01:32 GMT-0400 (EDT)","776367","Untrustworthy,Trustworthy","","null","","","","decisionFB","","<div class='trialDiv'><img src='trustrating_stim/white_00120_931230_fa_edt.bmp'><br><font class='baseline'><strong>Anthony</strong><p>Choose number of points to send.</font><div class='respPicDiv'><img src='img/responseButtonOffersNo0L4.png' class='respPic'></div></div>","null","5","Anthony","5","Shared","0.35,0.8","8","0.35","trustrating_stim/white_00120_931230_fa_edt.bmp","1","88","14"
"html-keyboard-response","178","351049","0.0-19.0-3.13","60fefd59226b2b1d87bc36db","bdp_trlrn","Sun Mar 12 2023 17:01:32 GMT-0400 (EDT)","776367","Untrustworthy,Trustworthy","","null","","","","feedback","","<div class='trialDiv'><img src='trustrating_stim/white_00120_931230_fa_edt.bmp'><br><font class='baseline'><strong>Anthony</strong><p>Received: <strong>16</strong></font> &nbsp; &nbsp; &nbsp; &nbsp; &nbsp; &nbsp;<font class='posOutcome'>Shared back: <strong>8</strong></font></font><div class='respPicDiv'><img src='img/responseButtonOffersNo0_wht.png' class='respPic'></div></div>","null","5","Anthony","5","Shared","0.35,0.8","8","0.35","trustrating_stim/white_00120_931230_fa_edt.bmp","1","96","14"
"html-keyboard-response","179","352984","0.0-19.0-1.14","60fefd59226b2b1d87bc36db","bdp_trlrn","Sun Mar 12 2023 17:01:32 GMT-0400 (EDT)","776367","Untrustworthy,Trustworthy","","1934","","","","decision","","<div class='trialDiv'><img src='trustrating_stim/white_00223_940128_fb_edt.bmp'><br><font class='baseline'><strong>Alex</strong><p>Choose number of points to send.</font><div class='respPicDiv'><img src='img/responseButtonOffersNo0L.png' class='respPic'></div></div>","3","5","Alex","9","Shared","0.65,0.35","11","0.65","trustrating_stim/white_00223_940128_fb_edt.bmp","1","101","15"
"html-keyboard-response","180","353237","0.0-19.0-2.14","60fefd59226b2b1d87bc36db","bdp_trlrn","Sun Mar 12 2023 17:01:32 GMT-0400 (EDT)","776367","Untrustworthy,Trustworthy","","null","","","","decisionFB","","<div class='trialDiv'><img src='trustrating_stim/white_00223_940128_fb_edt.bmp'><br><font class='baseline'><strong>Alex</strong><p>Choose number of points to send.</font><div class='respPicDiv'><img src='img/responseButtonOffersNo0L3.png' class='respPic'></div></div>","null","5","Alex","9","Shared","0.65,0.35","11","0.65","trustrating_stim/white_00223_940128_fb_edt.bmp","1","98","15"
"html-keyboard-response","181","354239","0.0-19.0-3.14","60fefd59226b2b1d87bc36db","bdp_trlrn","Sun Mar 12 2023 17:01:32 GMT-0400 (EDT)","776367","Untrustworthy,Trustworthy","","null","","","","feedback","","<div class='trialDiv'><img src='trustrating_stim/white_00223_940128_fb_edt.bmp'><br><font class='baseline'><strong>Alex</strong><p>Received: <strong>12</strong></font> &nbsp; &nbsp; &nbsp; &nbsp; &nbsp; &nbsp;<font class='posOutcome'>Shared back: <strong>6</strong></font></font><div class='respPicDiv'><img src='img/responseButtonOffersNo0_wht.png' class='respPic'></div></div>","null","5","Alex","9","Shared","0.65,0.35","11","0.65","trustrating_stim/white_00223_940128_fb_edt.bmp","1","104","15"
"html-keyboard-response","182","354891","0.0-19.0-1.15","60fefd59226b2b1d87bc36db","bdp_trlrn","Sun Mar 12 2023 17:01:32 GMT-0400 (EDT)","776367","Untrustworthy,Trustworthy","","651","","","","decision","","<div class='trialDiv'><img src='trustrating_stim/white_00519_940519_fb_edt.bmp'><br><font class='baseline'><strong>Richard</strong><p>Choose number of points to send.</font><div class='respPicDiv'><img src='img/responseButtonOffersNo0L.png' class='respPic'></div></div>","3","6","Richard","3","Shared","0.8,0.35","11","0.8","trustrating_stim/white_00519_940519_fb_edt.bmp","1","109","16"
"html-keyboard-response","183","355143","0.0-19.0-2.15","60fefd59226b2b1d87bc36db","bdp_trlrn","Sun Mar 12 2023 17:01:32 GMT-0400 (EDT)","776367","Untrustworthy,Trustworthy","","null","","","","decisionFB","","<div class='trialDiv'><img src='trustrating_stim/white_00519_940519_fb_edt.bmp'><br><font class='baseline'><strong>Richard</strong><p>Choose number of points to send.</font><div class='respPicDiv'><img src='img/responseButtonOffersNo0L3.png' class='respPic'></div></div>","null","6","Richard","3","Shared","0.8,0.35","11","0.8","trustrating_stim/white_00519_940519_fb_edt.bmp","1","106","16"
"html-keyboard-response","184","356146","0.0-19.0-3.15","60fefd59226b2b1d87bc36db","bdp_trlrn","Sun Mar 12 2023 17:01:32 GMT-0400 (EDT)","776367","Untrustworthy,Trustworthy","","null","","","","feedback","","<div class='trialDiv'><img src='trustrating_stim/white_00519_940519_fb_edt.bmp'><br><font class='baseline'><strong>Richard</strong><p>Received: <strong>12</strong></font> &nbsp; &nbsp; &nbsp; &nbsp; &nbsp; &nbsp;<font class='posOutcome'>Shared back: <strong>6</strong></font></font><div class='respPicDiv'><img src='img/responseButtonOffersNo0_wht.png' class='respPic'></div></div>","null","6","Richard","3","Shared","0.8,0.35","11","0.8","trustrating_stim/white_00519_940519_fb_edt.bmp","1","112","16"
"html-keyboard-response","185","359799","0.0-19.0-1.16","60fefd59226b2b1d87bc36db","bdp_trlrn","Sun Mar 12 2023 17:01:32 GMT-0400 (EDT)","776367","Untrustworthy,Trustworthy","","3652","","","","decision","","<div class='trialDiv'><img src='trustrating_stim/white_00223_940128_fb_edt.bmp'><br><font class='baseline'><strong>Alex</strong><p>Choose number of points to send.</font><div class='respPicDiv'><img src='img/responseButtonOffersNo0L.png' class='respPic'></div></div>","1","6","Alex","9","Shared","0.65,0.35","11","0.65","trustrating_stim/white_00223_940128_fb_edt.bmp","1","117","17"
"html-keyboard-response","186","360053","0.0-19.0-2.16","60fefd59226b2b1d87bc36db","bdp_trlrn","Sun Mar 12 2023 17:01:32 GMT-0400 (EDT)","776367","Untrustworthy,Trustworthy","","null","","","","decisionFB","","<div class='trialDiv'><img src='trustrating_stim/white_00223_940128_fb_edt.bmp'><br><font class='baseline'><strong>Alex</strong><p>Choose number of points to send.</font><div class='respPicDiv'><img src='img/responseButtonOffersNo0L1.png' class='respPic'></div></div>","null","6","Alex","9","Shared","0.65,0.35","11","0.65","trustrating_stim/white_00223_940128_fb_edt.bmp","1","116","17"
"html-keyboard-response","187","361055","0.0-19.0-3.16","60fefd59226b2b1d87bc36db","bdp_trlrn","Sun Mar 12 2023 17:01:32 GMT-0400 (EDT)","776367","Untrustworthy,Trustworthy","","null","","","","feedback","","<div class='trialDiv'><img src='trustrating_stim/white_00223_940128_fb_edt.bmp'><br><font class='baseline'><strong>Alex</strong><p>Received: <strong>4</strong></font> &nbsp; &nbsp; &nbsp; &nbsp; &nbsp; &nbsp;<font class='posOutcome'>Shared back: <strong>2</strong></font></font><div class='respPicDiv'><img src='img/responseButtonOffersNo0_wht.png' class='respPic'></div></div>","null","6","Alex","9","Shared","0.65,0.35","11","0.65","trustrating_stim/white_00223_940128_fb_edt.bmp","1","118","17"
"html-keyboard-response","188","361393","0.0-19.0-1.17","60fefd59226b2b1d87bc36db","bdp_trlrn","Sun Mar 12 2023 17:01:32 GMT-0400 (EDT)","776367","Untrustworthy,Trustworthy","","336","","","","decision","","<div class='trialDiv'><img src='trustrating_stim/white_00120_931230_fa_edt.bmp'><br><font class='baseline'><strong>Anthony</strong><p>Choose number of points to send.</font><div class='respPicDiv'><img src='img/responseButtonOffersNo0L.png' class='respPic'></div></div>","1","6","Anthony","5","Kept","0.35,0.8","8","0.35","trustrating_stim/white_00120_931230_fa_edt.bmp","1","123","18"
"html-keyboard-response","189","361646","0.0-19.0-2.17","60fefd59226b2b1d87bc36db","bdp_trlrn","Sun Mar 12 2023 17:01:32 GMT-0400 (EDT)","776367","Untrustworthy,Trustworthy","","null","","","","decisionFB","","<div class='trialDiv'><img src='trustrating_stim/white_00120_931230_fa_edt.bmp'><br><font class='baseline'><strong>Anthony</strong><p>Choose number of points to send.</font><div class='respPicDiv'><img src='img/responseButtonOffersNo0L1.png' class='respPic'></div></div>","null","6","Anthony","5","Kept","0.35,0.8","8","0.35","trustrating_stim/white_00120_931230_fa_edt.bmp","1","122","18"
"html-keyboard-response","190","362648","0.0-19.0-3.17","60fefd59226b2b1d87bc36db","bdp_trlrn","Sun Mar 12 2023 17:01:32 GMT-0400 (EDT)","776367","Untrustworthy,Trustworthy","","null","","","","feedback","","<div class='trialDiv'><img src='trustrating_stim/white_00120_931230_fa_edt.bmp'><br><font class='baseline'><strong>Anthony</strong><p>Received: <strong>4</strong></font> &nbsp; &nbsp; &nbsp; &nbsp; &nbsp; &nbsp;<font class='negOutcome'>Shared back: <strong>0</strong></font></font><div class='respPicDiv'><img src='img/responseButtonOffersNo0_wht.png' class='respPic'></div></div>","null","6","Anthony","5","Kept","0.35,0.8","8","0.35","trustrating_stim/white_00120_931230_fa_edt.bmp","1","122","18"
"html-keyboard-response","191","363911","0.0-19.0-1.18","60fefd59226b2b1d87bc36db","bdp_trlrn","Sun Mar 12 2023 17:01:32 GMT-0400 (EDT)","776367","Untrustworthy,Trustworthy","","1262","","","","decision","","<div class='trialDiv'><img src='trustrating_stim/white_00223_940128_fb_edt.bmp'><br><font class='baseline'><strong>Alex</strong><p>Choose number of points to send.</font><div class='respPicDiv'><img src='img/responseButtonOffersNo0L.png' class='respPic'></div></div>","5","7","Alex","9","Shared","0.65,0.35","11","0.65","trustrating_stim/white_00223_940128_fb_edt.bmp","1","127","19"
"html-keyboard-response","192","364164","0.0-19.0-2.18","60fefd59226b2b1d87bc36db","bdp_trlrn","Sun Mar 12 2023 17:01:32 GMT-0400 (EDT)","776367","Untrustworthy,Trustworthy","","null","","","","decisionFB","","<div class='trialDiv'><img src='trustrating_stim/white_00223_940128_fb_edt.bmp'><br><font class='baseline'><strong>Alex</strong><p>Choose number of points to send.</font><div class='respPicDiv'><img src='img/responseButtonOffersNo0L5.png' class='respPic'></div></div>","null","7","Alex","9","Shared","0.65,0.35","11","0.65","trustrating_stim/white_00223_940128_fb_edt.bmp","1","122","19"
"html-keyboard-response","193","365166","0.0-19.0-3.18","60fefd59226b2b1d87bc36db","bdp_trlrn","Sun Mar 12 2023 17:01:32 GMT-0400 (EDT)","776367","Untrustworthy,Trustworthy","","null","","","","feedback","","<div class='trialDiv'><img src='trustrating_stim/white_00223_940128_fb_edt.bmp'><br><font class='baseline'><strong>Alex</strong><p>Received: <strong>20</strong></font> &nbsp; &nbsp; &nbsp; &nbsp; &nbsp; &nbsp;<font class='posOutcome'>Shared back: <strong>10</strong></font></font><div class='respPicDiv'><img src='img/responseButtonOffersNo0_wht.png' class='respPic'></div></div>","null","7","Alex","9","Shared","0.65,0.35","11","0.65","trustrating_stim/white_00223_940128_fb_edt.bmp","1","132","19"
"html-keyboard-response","194","365896","0.0-19.0-1.19","60fefd59226b2b1d87bc36db","bdp_trlrn","Sun Mar 12 2023 17:01:32 GMT-0400 (EDT)","776367","Untrustworthy,Trustworthy","","728","","","","decision","","<div class='trialDiv'><img src='trustrating_stim/white_00120_931230_fa_edt.bmp'><br><font class='baseline'><strong>Anthony</strong><p>Choose number of points to send.</font><div class='respPicDiv'><img src='img/responseButtonOffersNo0L.png' class='respPic'></div></div>","5","7","Anthony","5","Kept","0.35,0.8","8","0.35","trustrating_stim/white_00120_931230_fa_edt.bmp","1","137","20"
"html-keyboard-response","195","366148","0.0-19.0-2.19","60fefd59226b2b1d87bc36db","bdp_trlrn","Sun Mar 12 2023 17:01:32 GMT-0400 (EDT)","776367","Untrustworthy,Trustworthy","","null","","","","decisionFB","","<div class='trialDiv'><img src='trustrating_stim/white_00120_931230_fa_edt.bmp'><br><font class='baseline'><strong>Anthony</strong><p>Choose number of points to send.</font><div class='respPicDiv'><img src='img/responseButtonOffersNo0L5.png' class='respPic'></div></div>","null","7","Anthony","5","Kept","0.35,0.8","8","0.35","trustrating_stim/white_00120_931230_fa_edt.bmp","1","132","20"
"html-keyboard-response","196","367150","0.0-19.0-3.19","60fefd59226b2b1d87bc36db","bdp_trlrn","Sun Mar 12 2023 17:01:32 GMT-0400 (EDT)","776367","Untrustworthy,Trustworthy","","null","","","","feedback","","<div class='trialDiv'><img src='trustrating_stim/white_00120_931230_fa_edt.bmp'><br><font class='baseline'><strong>Anthony</strong><p>Received: <strong>20</strong></font> &nbsp; &nbsp; &nbsp; &nbsp; &nbsp; &nbsp;<font class='negOutcome'>Shared back: <strong>0</strong></font></font><div class='respPicDiv'><img src='img/responseButtonOffersNo0_wht.png' class='respPic'></div></div>","null","7","Anthony","5","Kept","0.35,0.8","8","0.35","trustrating_stim/white_00120_931230_fa_edt.bmp","1","132","20"
"html-keyboard-response","197","367755","0.0-19.0-1.20","60fefd59226b2b1d87bc36db","bdp_trlrn","Sun Mar 12 2023 17:01:32 GMT-0400 (EDT)","776367","Untrustworthy,Trustworthy","","604","","","","decision","","<div class='trialDiv'><img src='trustrating_stim/white_00519_940519_fb_edt.bmp'><br><font class='baseline'><strong>Richard</strong><p>Choose number of points to send.</font><div class='respPicDiv'><img src='img/responseButtonOffersNo0L.png' class='respPic'></div></div>","3","7","Richard","3","Shared","0.8,0.35","11","0.8","trustrating_stim/white_00519_940519_fb_edt.bmp","1","137","21"
"html-keyboard-response","198","368008","0.0-19.0-2.20","60fefd59226b2b1d87bc36db","bdp_trlrn","Sun Mar 12 2023 17:01:32 GMT-0400 (EDT)","776367","Untrustworthy,Trustworthy","","null","","","","decisionFB","","<div class='trialDiv'><img src='trustrating_stim/white_00519_940519_fb_edt.bmp'><br><font class='baseline'><strong>Richard</strong><p>Choose number of points to send.</font><div class='respPicDiv'><img src='img/responseButtonOffersNo0L3.png' class='respPic'></div></div>","null","7","Richard","3","Shared","0.8,0.35","11","0.8","trustrating_stim/white_00519_940519_fb_edt.bmp","1","134","21"
"html-keyboard-response","199","369009","0.0-19.0-3.20","60fefd59226b2b1d87bc36db","bdp_trlrn","Sun Mar 12 2023 17:01:32 GMT-0400 (EDT)","776367","Untrustworthy,Trustworthy","","null","","","","feedback","","<div class='trialDiv'><img src='trustrating_stim/white_00519_940519_fb_edt.bmp'><br><font class='baseline'><strong>Richard</strong><p>Received: <strong>12</strong></font> &nbsp; &nbsp; &nbsp; &nbsp; &nbsp; &nbsp;<font class='posOutcome'>Shared back: <strong>6</strong></font></font><div class='respPicDiv'><img src='img/responseButtonOffersNo0_wht.png' class='respPic'></div></div>","null","7","Richard","3","Shared","0.8,0.35","11","0.8","trustrating_stim/white_00519_940519_fb_edt.bmp","1","140","21"
"html-keyboard-response","200","369595","0.0-19.0-1.21","60fefd59226b2b1d87bc36db","bdp_trlrn","Sun Mar 12 2023 17:01:32 GMT-0400 (EDT)","776367","Untrustworthy,Trustworthy","","585","","","","decision","","<div class='trialDiv'><img src='trustrating_stim/white_00120_931230_fa_edt.bmp'><br><font class='baseline'><strong>Anthony</strong><p>Choose number of points to send.</font><div class='respPicDiv'><img src='img/responseButtonOffersNo0L.png' class='respPic'></div></div>","3","8","Anthony","5","Kept","0.35,0.8","8","0.35","trustrating_stim/white_00120_931230_fa_edt.bmp","1","145","22"
"html-keyboard-response","201","369848","0.0-19.0-2.21","60fefd59226b2b1d87bc36db","bdp_trlrn","Sun Mar 12 2023 17:01:32 GMT-0400 (EDT)","776367","Untrustworthy,Trustworthy","","null","","","","decisionFB","","<div class='trialDiv'><img src='trustrating_stim/white_00120_931230_fa_edt.bmp'><br><font class='baseline'><strong>Anthony</strong><p>Choose number of points to send.</font><div class='respPicDiv'><img src='img/responseButtonOffersNo0L3.png' class='respPic'></div></div>","null","8","Anthony","5","Kept","0.35,0.8","8","0.35","trustrating_stim/white_00120_931230_fa_edt.bmp","1","142","22"
"html-keyboard-response","202","370850","0.0-19.0-3.21","60fefd59226b2b1d87bc36db","bdp_trlrn","Sun Mar 12 2023 17:01:32 GMT-0400 (EDT)","776367","Untrustworthy,Trustworthy","","null","","","","feedback","","<div class='trialDiv'><img src='trustrating_stim/white_00120_931230_fa_edt.bmp'><br><font class='baseline'><strong>Anthony</strong><p>Received: <strong>12</strong></font> &nbsp; &nbsp; &nbsp; &nbsp; &nbsp; &nbsp;<font class='negOutcome'>Shared back: <strong>0</strong></font></font><div class='respPicDiv'><img src='img/responseButtonOffersNo0_wht.png' class='respPic'></div></div>","null","8","Anthony","5","Kept","0.35,0.8","8","0.35","trustrating_stim/white_00120_931230_fa_edt.bmp","1","142","22"
"html-keyboard-response","203","371851","0.0-19.0-1.22","60fefd59226b2b1d87bc36db","bdp_trlrn","Sun Mar 12 2023 17:01:32 GMT-0400 (EDT)","776367","Untrustworthy,Trustworthy","","1000","","","","decision","","<div class='trialDiv'><img src='trustrating_stim/white_00519_940519_fb_edt.bmp'><br><font class='baseline'><strong>Richard</strong><p>Choose number of points to send.</font><div class='respPicDiv'><img src='img/responseButtonOffersNo0L.png' class='respPic'></div></div>","5","8","Richard","3","Shared","0.8,0.35","11","0.8","trustrating_stim/white_00519_940519_fb_edt.bmp","1","147","23"
"html-keyboard-response","204","372104","0.0-19.0-2.22","60fefd59226b2b1d87bc36db","bdp_trlrn","Sun Mar 12 2023 17:01:32 GMT-0400 (EDT)","776367","Untrustworthy,Trustworthy","","null","","","","decisionFB","","<div class='trialDiv'><img src='trustrating_stim/white_00519_940519_fb_edt.bmp'><br><font class='baseline'><strong>Richard</strong><p>Choose number of points to send.</font><div class='respPicDiv'><img src='img/responseButtonOffersNo0L5.png' class='respPic'></div></div>","null","8","Richard","3","Shared","0.8,0.35","11","0.8","trustrating_stim/white_00519_940519_fb_edt.bmp","1","142","23"
"html-keyboard-response","205","373106","0.0-19.0-3.22","60fefd59226b2b1d87bc36db","bdp_trlrn","Sun Mar 12 2023 17:01:32 GMT-0400 (EDT)","776367","Untrustworthy,Trustworthy","","null","","","","feedback","","<div class='trialDiv'><img src='trustrating_stim/white_00519_940519_fb_edt.bmp'><br><font class='baseline'><strong>Richard</strong><p>Received: <strong>20</strong></font> &nbsp; &nbsp; &nbsp; &nbsp; &nbsp; &nbsp;<font class='posOutcome'>Shared back: <strong>10</strong></font></font><div class='respPicDiv'><img src='img/responseButtonOffersNo0_wht.png' class='respPic'></div></div>","null","8","Richard","3","Shared","0.8,0.35","11","0.8","trustrating_stim/white_00519_940519_fb_edt.bmp","1","152","23"
"html-keyboard-response","206","373372","0.0-19.0-1.23","60fefd59226b2b1d87bc36db","bdp_trlrn","Sun Mar 12 2023 17:01:32 GMT-0400 (EDT)","776367","Untrustworthy,Trustworthy","","264","","","","decision","","<div class='trialDiv'><img src='trustrating_stim/white_00223_940128_fb_edt.bmp'><br><font class='baseline'><strong>Alex</strong><p>Choose number of points to send.</font><div class='respPicDiv'><img src='img/responseButtonOffersNo0L.png' class='respPic'></div></div>","4","8","Alex","9","Kept","0.65,0.35","11","0.65","trustrating_stim/white_00223_940128_fb_edt.bmp","1","157","24"
"html-keyboard-response","207","373625","0.0-19.0-2.23","60fefd59226b2b1d87bc36db","bdp_trlrn","Sun Mar 12 2023 17:01:32 GMT-0400 (EDT)","776367","Untrustworthy,Trustworthy","","null","","","","decisionFB","","<div class='trialDiv'><img src='trustrating_stim/white_00223_940128_fb_edt.bmp'><br><font class='baseline'><strong>Alex</strong><p>Choose number of points to send.</font><div class='respPicDiv'><img src='img/responseButtonOffersNo0L4.png' class='respPic'></div></div>","null","8","Alex","9","Kept","0.65,0.35","11","0.65","trustrating_stim/white_00223_940128_fb_edt.bmp","1","153","24"
"html-keyboard-response","208","374627","0.0-19.0-3.23","60fefd59226b2b1d87bc36db","bdp_trlrn","Sun Mar 12 2023 17:01:32 GMT-0400 (EDT)","776367","Untrustworthy,Trustworthy","","null","","","","feedback","","<div class='trialDiv'><img src='trustrating_stim/white_00223_940128_fb_edt.bmp'><br><font class='baseline'><strong>Alex</strong><p>Received: <strong>16</strong></font> &nbsp; &nbsp; &nbsp; &nbsp; &nbsp; &nbsp;<font class='negOutcome'>Shared back: <strong>0</strong></font></font><div class='respPicDiv'><img src='img/responseButtonOffersNo0_wht.png' class='respPic'></div></div>","null","8","Alex","9","Kept","0.65,0.35","11","0.65","trustrating_stim/white_00223_940128_fb_edt.bmp","1","153","24"
"html-keyboard-response","209","378750","0.0-19.0-1.24","60fefd59226b2b1d87bc36db","bdp_trlrn","Sun Mar 12 2023 17:01:32 GMT-0400 (EDT)","776367","Untrustworthy,Trustworthy","","4122","","","","decision","","<div class='trialDiv'><img src='trustrating_stim/white_00120_931230_fa_edt.bmp'><br><font class='baseline'><strong>Anthony</strong><p>Choose number of points to send.</font><div class='respPicDiv'><img src='img/responseButtonOffersNo0L.png' class='respPic'></div></div>","5","9","Anthony","5","Shared","0.35,0.8","8","0.35","trustrating_stim/white_00120_931230_fa_edt.bmp","1","158","25"
"html-keyboard-response","210","379003","0.0-19.0-2.24","60fefd59226b2b1d87bc36db","bdp_trlrn","Sun Mar 12 2023 17:01:32 GMT-0400 (EDT)","776367","Untrustworthy,Trustworthy","","null","","","","decisionFB","","<div class='trialDiv'><img src='trustrating_stim/white_00120_931230_fa_edt.bmp'><br><font class='baseline'><strong>Anthony</strong><p>Choose number of points to send.</font><div class='respPicDiv'><img src='img/responseButtonOffersNo0L5.png' class='respPic'></div></div>","null","9","Anthony","5","Shared","0.35,0.8","8","0.35","trustrating_stim/white_00120_931230_fa_edt.bmp","1","153","25"
"html-keyboard-response","211","380005","0.0-19.0-3.24","60fefd59226b2b1d87bc36db","bdp_trlrn","Sun Mar 12 2023 17:01:32 GMT-0400 (EDT)","776367","Untrustworthy,Trustworthy","","null","","","","feedback","","<div class='trialDiv'><img src='trustrating_stim/white_00120_931230_fa_edt.bmp'><br><font class='baseline'><strong>Anthony</strong><p>Received: <strong>20</strong></font> &nbsp; &nbsp; &nbsp; &nbsp; &nbsp; &nbsp;<font class='posOutcome'>Shared back: <strong>10</strong></font></font><div class='respPicDiv'><img src='img/responseButtonOffersNo0_wht.png' class='respPic'></div></div>","null","9","Anthony","5","Shared","0.35,0.8","8","0.35","trustrating_stim/white_00120_931230_fa_edt.bmp","1","163","25"
"html-keyboard-response","212","387579","0.0-19.0-1.25","60fefd59226b2b1d87bc36db","bdp_trlrn","Sun Mar 12 2023 17:01:32 GMT-0400 (EDT)","776367","Untrustworthy,Trustworthy","","7573","","","","decision","","<div class='trialDiv'><img src='trustrating_stim/white_00519_940519_fb_edt.bmp'><br><font class='baseline'><strong>Richard</strong><p>Choose number of points to send.</font><div class='respPicDiv'><img src='img/responseButtonOffersNo0L.png' class='respPic'></div></div>","1","9","Richard","3","Kept","0.8,0.35","11","0.8","trustrating_stim/white_00519_940519_fb_edt.bmp","1","168","26"
"html-keyboard-response","213","387832","0.0-19.0-2.25","60fefd59226b2b1d87bc36db","bdp_trlrn","Sun Mar 12 2023 17:01:32 GMT-0400 (EDT)","776367","Untrustworthy,Trustworthy","","null","","","","decisionFB","","<div class='trialDiv'><img src='trustrating_stim/white_00519_940519_fb_edt.bmp'><br><font class='baseline'><strong>Richard</strong><p>Choose number of points to send.</font><div class='respPicDiv'><img src='img/responseButtonOffersNo0L1.png' class='respPic'></div></div>","null","9","Richard","3","Kept","0.8,0.35","11","0.8","trustrating_stim/white_00519_940519_fb_edt.bmp","1","167","26"
"html-keyboard-response","214","388834","0.0-19.0-3.25","60fefd59226b2b1d87bc36db","bdp_trlrn","Sun Mar 12 2023 17:01:32 GMT-0400 (EDT)","776367","Untrustworthy,Trustworthy","","null","","","","feedback","","<div class='trialDiv'><img src='trustrating_stim/white_00519_940519_fb_edt.bmp'><br><font class='baseline'><strong>Richard</strong><p>Received: <strong>4</strong></font> &nbsp; &nbsp; &nbsp; &nbsp; &nbsp; &nbsp;<font class='negOutcome'>Shared back: <strong>0</strong></font></font><div class='respPicDiv'><img src='img/responseButtonOffersNo0_wht.png' class='respPic'></div></div>","null","9","Richard","3","Kept","0.8,0.35","11","0.8","trustrating_stim/white_00519_940519_fb_edt.bmp","1","167","26"
"html-keyboard-response","215","397457","0.0-19.0-1.26","60fefd59226b2b1d87bc36db","bdp_trlrn","Sun Mar 12 2023 17:01:32 GMT-0400 (EDT)","776367","Untrustworthy,Trustworthy","","8621","","","","decision","","<div class='trialDiv'><img src='trustrating_stim/white_00223_940128_fb_edt.bmp'><br><font class='baseline'><strong>Alex</strong><p>Choose number of points to send.</font><div class='respPicDiv'><img src='img/responseButtonOffersNo0L.png' class='respPic'></div></div>","3","9","Alex","9","Shared","0.65,0.35","11","0.65","trustrating_stim/white_00223_940128_fb_edt.bmp","1","172","27"
"html-keyboard-response","216","397711","0.0-19.0-2.26","60fefd59226b2b1d87bc36db","bdp_trlrn","Sun Mar 12 2023 17:01:32 GMT-0400 (EDT)","776367","Untrustworthy,Trustworthy","","null","","","","decisionFB","","<div class='trialDiv'><img src='trustrating_stim/white_00223_940128_fb_edt.bmp'><br><font class='baseline'><strong>Alex</strong><p>Choose number of points to send.</font><div class='respPicDiv'><img src='img/responseButtonOffersNo0L3.png' class='respPic'></div></div>","null","9","Alex","9","Shared","0.65,0.35","11","0.65","trustrating_stim/white_00223_940128_fb_edt.bmp","1","169","27"
"html-keyboard-response","217","398714","0.0-19.0-3.26","60fefd59226b2b1d87bc36db","bdp_trlrn","Sun Mar 12 2023 17:01:32 GMT-0400 (EDT)","776367","Untrustworthy,Trustworthy","","null","","","","feedback","","<div class='trialDiv'><img src='trustrating_stim/white_00223_940128_fb_edt.bmp'><br><font class='baseline'><strong>Alex</strong><p>Received: <strong>12</strong></font> &nbsp; &nbsp; &nbsp; &nbsp; &nbsp; &nbsp;<font class='posOutcome'>Shared back: <strong>6</strong></font></font><div class='respPicDiv'><img src='img/responseButtonOffersNo0_wht.png' class='respPic'></div></div>","null","9","Alex","9","Shared","0.65,0.35","11","0.65","trustrating_stim/white_00223_940128_fb_edt.bmp","1","175","27"
"html-keyboard-response","218","399310","0.0-19.0-1.27","60fefd59226b2b1d87bc36db","bdp_trlrn","Sun Mar 12 2023 17:01:32 GMT-0400 (EDT)","776367","Untrustworthy,Trustworthy","","595","","","","decision","","<div class='trialDiv'><img src='trustrating_stim/white_00120_931230_fa_edt.bmp'><br><font class='baseline'><strong>Anthony</strong><p>Choose number of points to send.</font><div class='respPicDiv'><img src='img/responseButtonOffersNo0L.png' class='respPic'></div></div>","3","10","Anthony","5","Shared","0.35,0.8","8","0.35","trustrating_stim/white_00120_931230_fa_edt.bmp","1","180","28"
"html-keyboard-response","219","399562","0.0-19.0-2.27","60fefd59226b2b1d87bc36db","bdp_trlrn","Sun Mar 12 2023 17:01:32 GMT-0400 (EDT)","776367","Untrustworthy,Trustworthy","","null","","","","decisionFB","","<div class='trialDiv'><img src='trustrating_stim/white_00120_931230_fa_edt.bmp'><br><font class='baseline'><strong>Anthony</strong><p>Choose number of points to send.</font><div class='respPicDiv'><img src='img/responseButtonOffersNo0L3.png' class='respPic'></div></div>","null","10","Anthony","5","Shared","0.35,0.8","8","0.35","trustrating_stim/white_00120_931230_fa_edt.bmp","1","177","28"
"html-keyboard-response","220","400565","0.0-19.0-3.27","60fefd59226b2b1d87bc36db","bdp_trlrn","Sun Mar 12 2023 17:01:32 GMT-0400 (EDT)","776367","Untrustworthy,Trustworthy","","null","","","","feedback","","<div class='trialDiv'><img src='trustrating_stim/white_00120_931230_fa_edt.bmp'><br><font class='baseline'><strong>Anthony</strong><p>Received: <strong>12</strong></font> &nbsp; &nbsp; &nbsp; &nbsp; &nbsp; &nbsp;<font class='posOutcome'>Shared back: <strong>6</strong></font></font><div class='respPicDiv'><img src='img/responseButtonOffersNo0_wht.png' class='respPic'></div></div>","null","10","Anthony","5","Shared","0.35,0.8","8","0.35","trustrating_stim/white_00120_931230_fa_edt.bmp","1","183","28"
"html-keyboard-response","221","401012","0.0-19.0-1.28","60fefd59226b2b1d87bc36db","bdp_trlrn","Sun Mar 12 2023 17:01:32 GMT-0400 (EDT)","776367","Untrustworthy,Trustworthy","","446","","","","decision","","<div class='trialDiv'><img src='trustrating_stim/white_00519_940519_fb_edt.bmp'><br><font class='baseline'><strong>Richard</strong><p>Choose number of points to send.</font><div class='respPicDiv'><img src='img/responseButtonOffersNo0L.png' class='respPic'></div></div>","3","10","Richard","3","Shared","0.8,0.35","11","0.8","trustrating_stim/white_00519_940519_fb_edt.bmp","1","188","29"
"html-keyboard-response","222","401265","0.0-19.0-2.28","60fefd59226b2b1d87bc36db","bdp_trlrn","Sun Mar 12 2023 17:01:32 GMT-0400 (EDT)","776367","Untrustworthy,Trustworthy","","null","","","","decisionFB","","<div class='trialDiv'><img src='trustrating_stim/white_00519_940519_fb_edt.bmp'><br><font class='baseline'><strong>Richard</strong><p>Choose number of points to send.</font><div class='respPicDiv'><img src='img/responseButtonOffersNo0L3.png' class='respPic'></div></div>","null","10","Richard","3","Shared","0.8,0.35","11","0.8","trustrating_stim/white_00519_940519_fb_edt.bmp","1","185","29"
"html-keyboard-response","223","402267","0.0-19.0-3.28","60fefd59226b2b1d87bc36db","bdp_trlrn","Sun Mar 12 2023 17:01:32 GMT-0400 (EDT)","776367","Untrustworthy,Trustworthy","","null","","","","feedback","","<div class='trialDiv'><img src='trustrating_stim/white_00519_940519_fb_edt.bmp'><br><font class='baseline'><strong>Richard</strong><p>Received: <strong>12</strong></font> &nbsp; &nbsp; &nbsp; &nbsp; &nbsp; &nbsp;<font class='posOutcome'>Shared back: <strong>6</strong></font></font><div class='respPicDiv'><img src='img/responseButtonOffersNo0_wht.png' class='respPic'></div></div>","null","10","Richard","3","Shared","0.8,0.35","11","0.8","trustrating_stim/white_00519_940519_fb_edt.bmp","1","191","29"
"html-keyboard-response","224","440007","0.0-19.0-1.29","60fefd59226b2b1d87bc36db","bdp_trlrn","Sun Mar 12 2023 17:01:32 GMT-0400 (EDT)","776367","Untrustworthy,Trustworthy","","37738","","","","decision","","<div class='trialDiv'><img src='trustrating_stim/white_00223_940128_fb_edt.bmp'><br><font class='baseline'><strong>Alex</strong><p>Choose number of points to send.</font><div class='respPicDiv'><img src='img/responseButtonOffersNo0L.png' class='respPic'></div></div>","5","10","Alex","9","Kept","0.65,0.35","11","0.65","trustrating_stim/white_00223_940128_fb_edt.bmp","1","196","30"
"html-keyboard-response","225","440261","0.0-19.0-2.29","60fefd59226b2b1d87bc36db","bdp_trlrn","Sun Mar 12 2023 17:01:32 GMT-0400 (EDT)","776367","Untrustworthy,Trustworthy","","null","","","","decisionFB","","<div class='trialDiv'><img src='trustrating_stim/white_00223_940128_fb_edt.bmp'><br><font class='baseline'><strong>Alex</strong><p>Choose number of points to send.</font><div class='respPicDiv'><img src='img/responseButtonOffersNo0L5.png' class='respPic'></div></div>","null","10","Alex","9","Kept","0.65,0.35","11","0.65","trustrating_stim/white_00223_940128_fb_edt.bmp","1","191","30"
