"trial_type","trial_index","time_elapsed","internal_node_id","subject_id","task","startTime","totalTime","labels","event","trial","time","trialtype","numBlurs","view_history","rt","success","stimulus","key_press","aground","name","faceID","outcome","agenttype","agentswpt","agentcurrpshare","face","avgRating","point_total","round"
"pavlovia","0","29","0.0-0.0","5d1b0776e1c05200018b582d","bdp_trlrn","Tue Mar 14 2023 22:04:49 GMT-0400 (Eastern Daylight Time)","607255","Untrustworthy,Trustworthy","","","","","","","","","","","","","","","","","","","","",""
"","","","","5d1b0776e1c05200018b582d","bdp_trlrn","Tue Mar 14 2023 22:04:49 GMT-0400 (Eastern Daylight Time)","607255","Untrustworthy,Trustworthy","blur","1","4705","blurevent","1","","","","","","","","","","","","","","","",""
"","","","","5d1b0776e1c05200018b582d","bdp_trlrn","Tue Mar 14 2023 22:04:49 GMT-0400 (Eastern Daylight Time)","607255","Untrustworthy,Trustworthy","focus","1","11219","focusevent","","","","","","","","","","","","","","","","",""
"instructions","1","13794","0.0-1.0","5d1b0776e1c05200018b582d","bdp_trlrn","Tue Mar 14 2023 22:04:49 GMT-0400 (Eastern Daylight Time)","607255","Untrustworthy,Trustworthy","","","","","","[{""page_index"":0,""viewing_time"":13763}]","13763","","","","","","","","","","","","","",""
"","","","","5d1b0776e1c05200018b582d","bdp_trlrn","Tue Mar 14 2023 22:04:49 GMT-0400 (Eastern Daylight Time)","607255","Untrustworthy,Trustworthy","fullscreenenter","2","20042","fullscreenenter","","","","","","","","","","","","","","","","",""
"fullscreen","2","20981","0.0-2.0","5d1b0776e1c05200018b582d","bdp_trlrn","Tue Mar 14 2023 22:04:49 GMT-0400 (Eastern Daylight Time)","607255","Untrustworthy,Trustworthy","","","","","","","","true","","","","","","","","","","","","",""
"instructions","3","36032","0.0-4.0","5d1b0776e1c05200018b582d","bdp_trlrn","Tue Mar 14 2023 22:04:49 GMT-0400 (Eastern Daylight Time)","607255","Untrustworthy,Trustworthy","","","","","","[{""page_index"":0,""viewing_time"":9248},{""page_index"":1,""viewing_time"":5797}]","15046","","","","","","","","","","","","","",""
"instructions","4","37765","0.0-5.0","5d1b0776e1c05200018b582d","bdp_trlrn","Tue Mar 14 2023 22:04:49 GMT-0400 (Eastern Daylight Time)","607255","Untrustworthy,Trustworthy","","","","","","[{""page_index"":0,""viewing_time"":1731}]","1731","","","","","","","","","","","","","",""
"image-keyboard-response","5","40146","0.0-6.0-1.0","5d1b0776e1c05200018b582d","bdp_trlrn","Tue Mar 14 2023 22:04:49 GMT-0400 (Eastern Daylight Time)","607255","Untrustworthy,Trustworthy","","","","rating","","","2265","","trustrating_stim/white_00577_940928_fa_edt.bmp","6","","","","","","","","","","",""
"image-keyboard-response","6","40354","0.0-6.0-2.0","5d1b0776e1c05200018b582d","bdp_trlrn","Tue Mar 14 2023 22:04:49 GMT-0400 (Eastern Daylight Time)","607255","Untrustworthy,Trustworthy","","","","ratingFB","","","null","","trustrating_stim/white_00577_940928_fa_edt.bmp","null","","","","","","","","","","",""
"image-keyboard-response","7","41694","0.0-6.0-1.1","5d1b0776e1c05200018b582d","bdp_trlrn","Tue Mar 14 2023 22:04:49 GMT-0400 (Eastern Daylight Time)","607255","Untrustworthy,Trustworthy","","","","rating","","","1210","","trustrating_stim/white_mw033.bmp","7","","","","","","","","","","",""
"image-keyboard-response","8","41897","0.0-6.0-2.1","5d1b0776e1c05200018b582d","bdp_trlrn","Tue Mar 14 2023 22:04:49 GMT-0400 (Eastern Daylight Time)","607255","Untrustworthy,Trustworthy","","","","ratingFB","","","null","","trustrating_stim/white_mw033.bmp","null","","","","","","","","","","",""
"image-keyboard-response","9","43375","0.0-6.0-1.2","5d1b0776e1c05200018b582d","bdp_trlrn","Tue Mar 14 2023 22:04:49 GMT-0400 (Eastern Daylight Time)","607255","Untrustworthy,Trustworthy","","","","rating","","","1369","","trustrating_stim/white_mw035.bmp","7","","","","","","","","","","",""
"image-keyboard-response","10","43579","0.0-6.0-2.2","5d1b0776e1c05200018b582d","bdp_trlrn","Tue Mar 14 2023 22:04:49 GMT-0400 (Eastern Daylight Time)","607255","Untrustworthy,Trustworthy","","","","ratingFB","","","null","","trustrating_stim/white_mw035.bmp","null","","","","","","","","","","",""
"image-keyboard-response","11","44675","0.0-6.0-1.3","5d1b0776e1c05200018b582d","bdp_trlrn","Tue Mar 14 2023 22:04:49 GMT-0400 (Eastern Daylight Time)","607255","Untrustworthy,Trustworthy","","","","rating","","","990","","trustrating_stim/white_00120_931230_fa_edt.bmp","7","","","","","","","","","","",""
"image-keyboard-response","12","44878","0.0-6.0-2.3","5d1b0776e1c05200018b582d","bdp_trlrn","Tue Mar 14 2023 22:04:49 GMT-0400 (Eastern Daylight Time)","607255","Untrustworthy,Trustworthy","","","","ratingFB","","","null","","trustrating_stim/white_00120_931230_fa_edt.bmp","null","","","","","","","","","","",""
"image-keyboard-response","13","45995","0.0-6.0-1.4","5d1b0776e1c05200018b582d","bdp_trlrn","Tue Mar 14 2023 22:04:49 GMT-0400 (Eastern Daylight Time)","607255","Untrustworthy,Trustworthy","","","","rating","","","1011","","trustrating_stim/white_00659_941121_fa_edt.bmp","6","","","","","","","","","","",""
"image-keyboard-response","14","46199","0.0-6.0-2.4","5d1b0776e1c05200018b582d","bdp_trlrn","Tue Mar 14 2023 22:04:49 GMT-0400 (Eastern Daylight Time)","607255","Untrustworthy,Trustworthy","","","","ratingFB","","","null","","trustrating_stim/white_00659_941121_fa_edt.bmp","null","","","","","","","","","","",""
"image-keyboard-response","15","47571","0.0-6.0-1.5","5d1b0776e1c05200018b582d","bdp_trlrn","Tue Mar 14 2023 22:04:49 GMT-0400 (Eastern Daylight Time)","607255","Untrustworthy,Trustworthy","","","","rating","","","1268","","trustrating_stim/white_mw097.bmp","5","","","","","","","","","","",""
"image-keyboard-response","16","47774","0.0-6.0-2.5","5d1b0776e1c05200018b582d","bdp_trlrn","Tue Mar 14 2023 22:04:49 GMT-0400 (Eastern Daylight Time)","607255","Untrustworthy,Trustworthy","","","","ratingFB","","","null","","trustrating_stim/white_mw097.bmp","null","","","","","","","","","","",""
"image-keyboard-response","17","49099","0.0-6.0-1.6","5d1b0776e1c05200018b582d","bdp_trlrn","Tue Mar 14 2023 22:04:49 GMT-0400 (Eastern Daylight Time)","607255","Untrustworthy,Trustworthy","","","","rating","","","1221","","trustrating_stim/white_00299_940422_fa_edt.bmp","6","","","","","","","","","","",""
"image-keyboard-response","18","49305","0.0-6.0-2.6","5d1b0776e1c05200018b582d","bdp_trlrn","Tue Mar 14 2023 22:04:49 GMT-0400 (Eastern Daylight Time)","607255","Untrustworthy,Trustworthy","","","","ratingFB","","","null","","trustrating_stim/white_00299_940422_fa_edt.bmp","null","","","","","","","","","","",""
"image-keyboard-response","19","50424","0.0-6.0-1.7","5d1b0776e1c05200018b582d","bdp_trlrn","Tue Mar 14 2023 22:04:49 GMT-0400 (Eastern Daylight Time)","607255","Untrustworthy,Trustworthy","","","","rating","","","1013","","trustrating_stim/white_mw063.bmp","5","","","","","","","","","","",""
"image-keyboard-response","20","50627","0.0-6.0-2.7","5d1b0776e1c05200018b582d","bdp_trlrn","Tue Mar 14 2023 22:04:49 GMT-0400 (Eastern Daylight Time)","607255","Untrustworthy,Trustworthy","","","","ratingFB","","","null","","trustrating_stim/white_mw063.bmp","null","","","","","","","","","","",""
"image-keyboard-response","21","52045","0.0-6.0-1.8","5d1b0776e1c05200018b582d","bdp_trlrn","Tue Mar 14 2023 22:04:49 GMT-0400 (Eastern Daylight Time)","607255","Untrustworthy,Trustworthy","","","","rating","","","1313","","trustrating_stim/white_00519_940519_fb_edt.bmp","4","","","","","","","","","","",""
"image-keyboard-response","22","52247","0.0-6.0-2.8","5d1b0776e1c05200018b582d","bdp_trlrn","Tue Mar 14 2023 22:04:49 GMT-0400 (Eastern Daylight Time)","607255","Untrustworthy,Trustworthy","","","","ratingFB","","","null","","trustrating_stim/white_00519_940519_fb_edt.bmp","null","","","","","","","","","","",""
"image-keyboard-response","23","53400","0.0-6.0-1.9","5d1b0776e1c05200018b582d","bdp_trlrn","Tue Mar 14 2023 22:04:49 GMT-0400 (Eastern Daylight Time)","607255","Untrustworthy,Trustworthy","","","","rating","","","1044","","trustrating_stim/white_mw060.bmp","5","","","","","","","","","","",""
"image-keyboard-response","24","53604","0.0-6.0-2.9","5d1b0776e1c05200018b582d","bdp_trlrn","Tue Mar 14 2023 22:04:49 GMT-0400 (Eastern Daylight Time)","607255","Untrustworthy,Trustworthy","","","","ratingFB","","","null","","trustrating_stim/white_mw060.bmp","null","","","","","","","","","","",""
"image-keyboard-response","25","54810","0.0-6.0-1.10","5d1b0776e1c05200018b582d","bdp_trlrn","Tue Mar 14 2023 22:04:49 GMT-0400 (Eastern Daylight Time)","607255","Untrustworthy,Trustworthy","","","","rating","","","1099","","trustrating_stim/white_00602_940928_fb_edt.bmp","5","","","","","","","","","","",""
"image-keyboard-response","26","55023","0.0-6.0-2.10","5d1b0776e1c05200018b582d","bdp_trlrn","Tue Mar 14 2023 22:04:49 GMT-0400 (Eastern Daylight Time)","607255","Untrustworthy,Trustworthy","","","","ratingFB","","","null","","trustrating_stim/white_00602_940928_fb_edt.bmp","null","","","","","","","","","","",""
"image-keyboard-response","27","56192","0.0-6.0-1.11","5d1b0776e1c05200018b582d","bdp_trlrn","Tue Mar 14 2023 22:04:49 GMT-0400 (Eastern Daylight Time)","607255","Untrustworthy,Trustworthy","","","","rating","","","1062","","trustrating_stim/white_mw099.bmp","5","","","","","","","","","","",""
"image-keyboard-response","28","56395","0.0-6.0-2.11","5d1b0776e1c05200018b582d","bdp_trlrn","Tue Mar 14 2023 22:04:49 GMT-0400 (Eastern Daylight Time)","607255","Untrustworthy,Trustworthy","","","","ratingFB","","","null","","trustrating_stim/white_mw099.bmp","null","","","","","","","","","","",""
"image-keyboard-response","29","57467","0.0-6.0-1.12","5d1b0776e1c05200018b582d","bdp_trlrn","Tue Mar 14 2023 22:04:49 GMT-0400 (Eastern Daylight Time)","607255","Untrustworthy,Trustworthy","","","","rating","","","967","","trustrating_stim/white_00109_931230_fa_edt.bmp","6","","","","","","","","","","",""
"image-keyboard-response","30","57673","0.0-6.0-2.12","5d1b0776e1c05200018b582d","bdp_trlrn","Tue Mar 14 2023 22:04:49 GMT-0400 (Eastern Daylight Time)","607255","Untrustworthy,Trustworthy","","","","ratingFB","","","null","","trustrating_stim/white_00109_931230_fa_edt.bmp","null","","","","","","","","","","",""
"image-keyboard-response","31","58884","0.0-6.0-1.13","5d1b0776e1c05200018b582d","bdp_trlrn","Tue Mar 14 2023 22:04:49 GMT-0400 (Eastern Daylight Time)","607255","Untrustworthy,Trustworthy","","","","rating","","","1107","","trustrating_stim/white_00223_940128_fb_edt.bmp","5","","","","","","","","","","",""
"image-keyboard-response","32","59089","0.0-6.0-2.13","5d1b0776e1c05200018b582d","bdp_trlrn","Tue Mar 14 2023 22:04:49 GMT-0400 (Eastern Daylight Time)","607255","Untrustworthy,Trustworthy","","","","ratingFB","","","null","","trustrating_stim/white_00223_940128_fb_edt.bmp","null","","","","","","","","","","",""
"image-keyboard-response","33","60299","0.0-6.0-1.14","5d1b0776e1c05200018b582d","bdp_trlrn","Tue Mar 14 2023 22:04:49 GMT-0400 (Eastern Daylight Time)","607255","Untrustworthy,Trustworthy","","","","rating","","","1102","","trustrating_stim/white_00898_960530_fa_edt.bmp","6","","","","","","","","","","",""
"image-keyboard-response","34","60503","0.0-6.0-2.14","5d1b0776e1c05200018b582d","bdp_trlrn","Tue Mar 14 2023 22:04:49 GMT-0400 (Eastern Daylight Time)","607255","Untrustworthy,Trustworthy","","","","ratingFB","","","null","","trustrating_stim/white_00898_960530_fa_edt.bmp","null","","","","","","","","","","",""
"image-keyboard-response","35","61709","0.0-6.0-1.15","5d1b0776e1c05200018b582d","bdp_trlrn","Tue Mar 14 2023 22:04:49 GMT-0400 (Eastern Daylight Time)","607255","Untrustworthy,Trustworthy","","","","rating","","","1098","","trustrating_stim/white_mw048.bmp","5","","","","","","","","","","",""
"image-keyboard-response","36","61912","0.0-6.0-2.15","5d1b0776e1c05200018b582d","bdp_trlrn","Tue Mar 14 2023 22:04:49 GMT-0400 (Eastern Daylight Time)","607255","Untrustworthy,Trustworthy","","","","ratingFB","","","null","","trustrating_stim/white_mw048.bmp","null","","","","","","","","","","",""
"image-keyboard-response","37","63198","0.0-6.0-1.16","5d1b0776e1c05200018b582d","bdp_trlrn","Tue Mar 14 2023 22:04:49 GMT-0400 (Eastern Daylight Time)","607255","Untrustworthy,Trustworthy","","","","rating","","","1174","","trustrating_stim/white_mw049.bmp","7","","","","","","","","","","",""
"image-keyboard-response","38","63402","0.0-6.0-2.16","5d1b0776e1c05200018b582d","bdp_trlrn","Tue Mar 14 2023 22:04:49 GMT-0400 (Eastern Daylight Time)","607255","Untrustworthy,Trustworthy","","","","ratingFB","","","null","","trustrating_stim/white_mw049.bmp","null","","","","","","","","","","",""
"image-keyboard-response","39","64320","0.0-6.0-1.17","5d1b0776e1c05200018b582d","bdp_trlrn","Tue Mar 14 2023 22:04:49 GMT-0400 (Eastern Daylight Time)","607255","Untrustworthy,Trustworthy","","","","rating","","","806","","trustrating_stim/white_mw056.bmp","6","","","","","","","","","","",""
"image-keyboard-response","40","64523","0.0-6.0-2.17","5d1b0776e1c05200018b582d","bdp_trlrn","Tue Mar 14 2023 22:04:49 GMT-0400 (Eastern Daylight Time)","607255","Untrustworthy,Trustworthy","","","","ratingFB","","","null","","trustrating_stim/white_mw056.bmp","null","","","","","","","","","","",""
"image-keyboard-response","41","65432","0.0-6.0-1.18","5d1b0776e1c05200018b582d","bdp_trlrn","Tue Mar 14 2023 22:04:49 GMT-0400 (Eastern Daylight Time)","607255","Untrustworthy,Trustworthy","","","","rating","","","802","","trustrating_stim/white_mw053.bmp","5","","","","","","","","","","",""
"image-keyboard-response","42","65638","0.0-6.0-2.18","5d1b0776e1c05200018b582d","bdp_trlrn","Tue Mar 14 2023 22:04:49 GMT-0400 (Eastern Daylight Time)","607255","Untrustworthy,Trustworthy","","","","ratingFB","","","null","","trustrating_stim/white_mw053.bmp","null","","","","","","","","","","",""
"image-keyboard-response","43","67218","0.0-6.0-1.19","5d1b0776e1c05200018b582d","bdp_trlrn","Tue Mar 14 2023 22:04:49 GMT-0400 (Eastern Daylight Time)","607255","Untrustworthy,Trustworthy","","","","rating","","","1473","","trustrating_stim/white_00340_940422_fa_edt.bmp","4","","","","","","","","","","",""
"image-keyboard-response","44","67423","0.0-6.0-2.19","5d1b0776e1c05200018b582d","bdp_trlrn","Tue Mar 14 2023 22:04:49 GMT-0400 (Eastern Daylight Time)","607255","Untrustworthy,Trustworthy","","","","ratingFB","","","null","","trustrating_stim/white_00340_940422_fa_edt.bmp","null","","","","","","","","","","",""
"image-keyboard-response","45","68657","0.0-6.0-1.20","5d1b0776e1c05200018b582d","bdp_trlrn","Tue Mar 14 2023 22:04:49 GMT-0400 (Eastern Daylight Time)","607255","Untrustworthy,Trustworthy","","","","rating","","","1124","","trustrating_stim/white_00807_941205_fb_edt.bmp","5","","","","","","","","","","",""
"image-keyboard-response","46","68861","0.0-6.0-2.20","5d1b0776e1c05200018b582d","bdp_trlrn","Tue Mar 14 2023 22:04:49 GMT-0400 (Eastern Daylight Time)","607255","Untrustworthy,Trustworthy","","","","ratingFB","","","null","","trustrating_stim/white_00807_941205_fb_edt.bmp","null","","","","","","","","","","",""
"image-keyboard-response","47","69913","0.0-6.0-1.21","5d1b0776e1c05200018b582d","bdp_trlrn","Tue Mar 14 2023 22:04:49 GMT-0400 (Eastern Daylight Time)","607255","Untrustworthy,Trustworthy","","","","rating","","","947","","trustrating_stim/white_00129_931230_fb_edt.bmp","5","","","","","","","","","","",""
"image-keyboard-response","48","70118","0.0-6.0-2.21","5d1b0776e1c05200018b582d","bdp_trlrn","Tue Mar 14 2023 22:04:49 GMT-0400 (Eastern Daylight Time)","607255","Untrustworthy,Trustworthy","","","","ratingFB","","","null","","trustrating_stim/white_00129_931230_fb_edt.bmp","null","","","","","","","","","","",""
"image-keyboard-response","49","71210","0.0-6.0-1.22","5d1b0776e1c05200018b582d","bdp_trlrn","Tue Mar 14 2023 22:04:49 GMT-0400 (Eastern Daylight Time)","607255","Untrustworthy,Trustworthy","","","","rating","","","981","","trustrating_stim/white_mw071.bmp","5","","","","","","","","","","",""
"image-keyboard-response","50","71415","0.0-6.0-2.22","5d1b0776e1c05200018b582d","bdp_trlrn","Tue Mar 14 2023 22:04:49 GMT-0400 (Eastern Daylight Time)","607255","Untrustworthy,Trustworthy","","","","ratingFB","","","null","","trustrating_stim/white_mw071.bmp","null","","","","","","","","","","",""
"image-keyboard-response","51","72696","0.0-6.0-1.23","5d1b0776e1c05200018b582d","bdp_trlrn","Tue Mar 14 2023 22:04:49 GMT-0400 (Eastern Daylight Time)","607255","Untrustworthy,Trustworthy","","","","rating","","","1174","","trustrating_stim/white_00757_941201_fa_edt.bmp","4","","","","","","","","","","",""
"image-keyboard-response","52","72900","0.0-6.0-2.23","5d1b0776e1c05200018b582d","bdp_trlrn","Tue Mar 14 2023 22:04:49 GMT-0400 (Eastern Daylight Time)","607255","Untrustworthy,Trustworthy","","","","ratingFB","","","null","","trustrating_stim/white_00757_941201_fa_edt.bmp","null","","","","","","","","","","",""
"image-keyboard-response","53","73883","0.0-6.0-1.24","5d1b0776e1c05200018b582d","bdp_trlrn","Tue Mar 14 2023 22:04:49 GMT-0400 (Eastern Daylight Time)","607255","Untrustworthy,Trustworthy","","","","rating","","","874","","trustrating_stim/white_00761_941201_fb_edt.bmp","4","","","","","","","","","","",""
"image-keyboard-response","54","74086","0.0-6.0-2.24","5d1b0776e1c05200018b582d","bdp_trlrn","Tue Mar 14 2023 22:04:49 GMT-0400 (Eastern Daylight Time)","607255","Untrustworthy,Trustworthy","","","","ratingFB","","","null","","trustrating_stim/white_00761_941201_fb_edt.bmp","null","","","","","","","","","","",""
"image-keyboard-response","55","75154","0.0-6.0-1.25","5d1b0776e1c05200018b582d","bdp_trlrn","Tue Mar 14 2023 22:04:49 GMT-0400 (Eastern Daylight Time)","607255","Untrustworthy,Trustworthy","","","","rating","","","961","","trustrating_stim/white_mw066.bmp","6","","","","","","","","","","",""
"image-keyboard-response","56","75360","0.0-6.0-2.25","5d1b0776e1c05200018b582d","bdp_trlrn","Tue Mar 14 2023 22:04:49 GMT-0400 (Eastern Daylight Time)","607255","Untrustworthy,Trustworthy","","","","ratingFB","","","null","","trustrating_stim/white_mw066.bmp","null","","","","","","","","","","",""
"image-keyboard-response","57","76683","0.0-6.0-1.26","5d1b0776e1c05200018b582d","bdp_trlrn","Tue Mar 14 2023 22:04:49 GMT-0400 (Eastern Daylight Time)","607255","Untrustworthy,Trustworthy","","","","rating","","","1211","","trustrating_stim/white_mw089.bmp","7","","","","","","","","","","",""
"image-keyboard-response","58","76886","0.0-6.0-2.26","5d1b0776e1c05200018b582d","bdp_trlrn","Tue Mar 14 2023 22:04:49 GMT-0400 (Eastern Daylight Time)","607255","Untrustworthy,Trustworthy","","","","ratingFB","","","null","","trustrating_stim/white_mw089.bmp","null","","","","","","","","","","",""
"image-keyboard-response","59","77819","0.0-6.0-1.27","5d1b0776e1c05200018b582d","bdp_trlrn","Tue Mar 14 2023 22:04:49 GMT-0400 (Eastern Daylight Time)","607255","Untrustworthy,Trustworthy","","","","rating","","","824","","trustrating_stim/white_mw084.bmp","6","","","","","","","","","","",""
"image-keyboard-response","60","78023","0.0-6.0-2.27","5d1b0776e1c05200018b582d","bdp_trlrn","Tue Mar 14 2023 22:04:49 GMT-0400 (Eastern Daylight Time)","607255","Untrustworthy,Trustworthy","","","","ratingFB","","","null","","trustrating_stim/white_mw084.bmp","null","","","","","","","","","","",""
"image-keyboard-response","61","79091","0.0-6.0-1.28","5d1b0776e1c05200018b582d","bdp_trlrn","Tue Mar 14 2023 22:04:49 GMT-0400 (Eastern Daylight Time)","607255","Untrustworthy,Trustworthy","","","","rating","","","956","","trustrating_stim/white_00785_941205_fb_edt.bmp","5","","","","","","","","","","",""
"image-keyboard-response","62","79295","0.0-6.0-2.28","5d1b0776e1c05200018b582d","bdp_trlrn","Tue Mar 14 2023 22:04:49 GMT-0400 (Eastern Daylight Time)","607255","Untrustworthy,Trustworthy","","","","ratingFB","","","null","","trustrating_stim/white_00785_941205_fb_edt.bmp","null","","","","","","","","","","",""
"image-keyboard-response","63","80346","0.0-6.0-1.29","5d1b0776e1c05200018b582d","bdp_trlrn","Tue Mar 14 2023 22:04:49 GMT-0400 (Eastern Daylight Time)","607255","Untrustworthy,Trustworthy","","","","rating","","","941","","trustrating_stim/white_mw046.bmp","5","","","","","","","","","","",""
"image-keyboard-response","64","80550","0.0-6.0-2.29","5d1b0776e1c05200018b582d","bdp_trlrn","Tue Mar 14 2023 22:04:49 GMT-0400 (Eastern Daylight Time)","607255","Untrustworthy,Trustworthy","","","","ratingFB","","","null","","trustrating_stim/white_mw046.bmp","null","","","","","","","","","","",""
"image-keyboard-response","65","81534","0.0-6.0-1.30","5d1b0776e1c05200018b582d","bdp_trlrn","Tue Mar 14 2023 22:04:49 GMT-0400 (Eastern Daylight Time)","607255","Untrustworthy,Trustworthy","","","","rating","","","878","","trustrating_stim/white_00757_941201_fa_edt.bmp","5","","","","","","","","","","",""
"image-keyboard-response","66","81738","0.0-6.0-2.30","5d1b0776e1c05200018b582d","bdp_trlrn","Tue Mar 14 2023 22:04:49 GMT-0400 (Eastern Daylight Time)","607255","Untrustworthy,Trustworthy","","","","ratingFB","","","null","","trustrating_stim/white_00757_941201_fa_edt.bmp","null","","","","","","","","","","",""
"image-keyboard-response","67","83237","0.0-6.0-1.31","5d1b0776e1c05200018b582d","bdp_trlrn","Tue Mar 14 2023 22:04:49 GMT-0400 (Eastern Daylight Time)","607255","Untrustworthy,Trustworthy","","","","rating","","","1393","","trustrating_stim/white_mw089.bmp","7","","","","","","","","","","",""
"image-keyboard-response","68","83440","0.0-6.0-2.31","5d1b0776e1c05200018b582d","bdp_trlrn","Tue Mar 14 2023 22:04:49 GMT-0400 (Eastern Daylight Time)","607255","Untrustworthy,Trustworthy","","","","ratingFB","","","null","","trustrating_stim/white_mw089.bmp","null","","","","","","","","","","",""
"image-keyboard-response","69","85131","0.0-6.0-1.32","5d1b0776e1c05200018b582d","bdp_trlrn","Tue Mar 14 2023 22:04:49 GMT-0400 (Eastern Daylight Time)","607255","Untrustworthy,Trustworthy","","","","rating","","","1580","","trustrating_stim/white_00761_941201_fb_edt.bmp","4","","","","","","","","","","",""
"image-keyboard-response","70","85334","0.0-6.0-2.32","5d1b0776e1c05200018b582d","bdp_trlrn","Tue Mar 14 2023 22:04:49 GMT-0400 (Eastern Daylight Time)","607255","Untrustworthy,Trustworthy","","","","ratingFB","","","null","","trustrating_stim/white_00761_941201_fb_edt.bmp","null","","","","","","","","","","",""
"image-keyboard-response","71","86600","0.0-6.0-1.33","5d1b0776e1c05200018b582d","bdp_trlrn","Tue Mar 14 2023 22:04:49 GMT-0400 (Eastern Daylight Time)","607255","Untrustworthy,Trustworthy","","","","rating","","","1152","","trustrating_stim/white_00223_940128_fb_edt.bmp","5","","","","","","","","","","",""
"image-keyboard-response","72","86804","0.0-6.0-2.33","5d1b0776e1c05200018b582d","bdp_trlrn","Tue Mar 14 2023 22:04:49 GMT-0400 (Eastern Daylight Time)","607255","Untrustworthy,Trustworthy","","","","ratingFB","","","null","","trustrating_stim/white_00223_940128_fb_edt.bmp","null","","","","","","","","","","",""
"image-keyboard-response","73","87961","0.0-6.0-1.34","5d1b0776e1c05200018b582d","bdp_trlrn","Tue Mar 14 2023 22:04:49 GMT-0400 (Eastern Daylight Time)","607255","Untrustworthy,Trustworthy","","","","rating","","","1037","","trustrating_stim/white_00129_931230_fb_edt.bmp","6","","","","","","","","","","",""
"image-keyboard-response","74","88166","0.0-6.0-2.34","5d1b0776e1c05200018b582d","bdp_trlrn","Tue Mar 14 2023 22:04:49 GMT-0400 (Eastern Daylight Time)","607255","Untrustworthy,Trustworthy","","","","ratingFB","","","null","","trustrating_stim/white_00129_931230_fb_edt.bmp","null","","","","","","","","","","",""
"image-keyboard-response","75","89250","0.0-6.0-1.35","5d1b0776e1c05200018b582d","bdp_trlrn","Tue Mar 14 2023 22:04:49 GMT-0400 (Eastern Daylight Time)","607255","Untrustworthy,Trustworthy","","","","rating","","","972","","trustrating_stim/white_00299_940422_fa_edt.bmp","6","","","","","","","","","","",""
"image-keyboard-response","76","89453","0.0-6.0-2.35","5d1b0776e1c05200018b582d","bdp_trlrn","Tue Mar 14 2023 22:04:49 GMT-0400 (Eastern Daylight Time)","607255","Untrustworthy,Trustworthy","","","","ratingFB","","","null","","trustrating_stim/white_00299_940422_fa_edt.bmp","null","","","","","","","","","","",""
"image-keyboard-response","77","90447","0.0-6.0-1.36","5d1b0776e1c05200018b582d","bdp_trlrn","Tue Mar 14 2023 22:04:49 GMT-0400 (Eastern Daylight Time)","607255","Untrustworthy,Trustworthy","","","","rating","","","880","","trustrating_stim/white_mw049.bmp","6","","","","","","","","","","",""
"image-keyboard-response","78","90656","0.0-6.0-2.36","5d1b0776e1c05200018b582d","bdp_trlrn","Tue Mar 14 2023 22:04:49 GMT-0400 (Eastern Daylight Time)","607255","Untrustworthy,Trustworthy","","","","ratingFB","","","null","","trustrating_stim/white_mw049.bmp","null","","","","","","","","","","",""
"image-keyboard-response","79","91575","0.0-6.0-1.37","5d1b0776e1c05200018b582d","bdp_trlrn","Tue Mar 14 2023 22:04:49 GMT-0400 (Eastern Daylight Time)","607255","Untrustworthy,Trustworthy","","","","rating","","","809","","trustrating_stim/white_mw071.bmp","5","","","","","","","","","","",""
"image-keyboard-response","80","91780","0.0-6.0-2.37","5d1b0776e1c05200018b582d","bdp_trlrn","Tue Mar 14 2023 22:04:49 GMT-0400 (Eastern Daylight Time)","607255","Untrustworthy,Trustworthy","","","","ratingFB","","","null","","trustrating_stim/white_mw071.bmp","null","","","","","","","","","","",""
"image-keyboard-response","81","92605","0.0-6.0-1.38","5d1b0776e1c05200018b582d","bdp_trlrn","Tue Mar 14 2023 22:04:49 GMT-0400 (Eastern Daylight Time)","607255","Untrustworthy,Trustworthy","","","","rating","","","714","","trustrating_stim/white_mw053.bmp","5","","","","","","","","","","",""
"image-keyboard-response","82","92810","0.0-6.0-2.38","5d1b0776e1c05200018b582d","bdp_trlrn","Tue Mar 14 2023 22:04:49 GMT-0400 (Eastern Daylight Time)","607255","Untrustworthy,Trustworthy","","","","ratingFB","","","null","","trustrating_stim/white_mw053.bmp","null","","","","","","","","","","",""
"image-keyboard-response","83","94215","0.0-6.0-1.39","5d1b0776e1c05200018b582d","bdp_trlrn","Tue Mar 14 2023 22:04:49 GMT-0400 (Eastern Daylight Time)","607255","Untrustworthy,Trustworthy","","","","rating","","","1298","","trustrating_stim/white_mw060.bmp","5","","","","","","","","","","",""
"image-keyboard-response","84","94418","0.0-6.0-2.39","5d1b0776e1c05200018b582d","bdp_trlrn","Tue Mar 14 2023 22:04:49 GMT-0400 (Eastern Daylight Time)","607255","Untrustworthy,Trustworthy","","","","ratingFB","","","null","","trustrating_stim/white_mw060.bmp","null","","","","","","","","","","",""
"image-keyboard-response","85","95313","0.0-6.0-1.40","5d1b0776e1c05200018b582d","bdp_trlrn","Tue Mar 14 2023 22:04:49 GMT-0400 (Eastern Daylight Time)","607255","Untrustworthy,Trustworthy","","","","rating","","","785","","trustrating_stim/white_00340_940422_fa_edt.bmp","4","","","","","","","","","","",""
"image-keyboard-response","86","95516","0.0-6.0-2.40","5d1b0776e1c05200018b582d","bdp_trlrn","Tue Mar 14 2023 22:04:49 GMT-0400 (Eastern Daylight Time)","607255","Untrustworthy,Trustworthy","","","","ratingFB","","","null","","trustrating_stim/white_00340_940422_fa_edt.bmp","null","","","","","","","","","","",""
"image-keyboard-response","87","96732","0.0-6.0-1.41","5d1b0776e1c05200018b582d","bdp_trlrn","Tue Mar 14 2023 22:04:49 GMT-0400 (Eastern Daylight Time)","607255","Untrustworthy,Trustworthy","","","","rating","","","1101","","trustrating_stim/white_00807_941205_fb_edt.bmp","5","","","","","","","","","","",""
"image-keyboard-response","88","96938","0.0-6.0-2.41","5d1b0776e1c05200018b582d","bdp_trlrn","Tue Mar 14 2023 22:04:49 GMT-0400 (Eastern Daylight Time)","607255","Untrustworthy,Trustworthy","","","","ratingFB","","","null","","trustrating_stim/white_00807_941205_fb_edt.bmp","null","","","","","","","","","","",""
"image-keyboard-response","89","98107","0.0-6.0-1.42","5d1b0776e1c05200018b582d","bdp_trlrn","Tue Mar 14 2023 22:04:49 GMT-0400 (Eastern Daylight Time)","607255","Untrustworthy,Trustworthy","","","","rating","","","1052","","trustrating_stim/white_00602_940928_fb_edt.bmp","6","","","","","","","","","","",""
"image-keyboard-response","90","98310","0.0-6.0-2.42","5d1b0776e1c05200018b582d","bdp_trlrn","Tue Mar 14 2023 22:04:49 GMT-0400 (Eastern Daylight Time)","607255","Untrustworthy,Trustworthy","","","","ratingFB","","","null","","trustrating_stim/white_00602_940928_fb_edt.bmp","null","","","","","","","","","","",""
"image-keyboard-response","91","99209","0.0-6.0-1.43","5d1b0776e1c05200018b582d","bdp_trlrn","Tue Mar 14 2023 22:04:49 GMT-0400 (Eastern Daylight Time)","607255","Untrustworthy,Trustworthy","","","","rating","","","783","","trustrating_stim/white_00120_931230_fa_edt.bmp","6","","","","","","","","","","",""
"image-keyboard-response","92","99413","0.0-6.0-2.43","5d1b0776e1c05200018b582d","bdp_trlrn","Tue Mar 14 2023 22:04:49 GMT-0400 (Eastern Daylight Time)","607255","Untrustworthy,Trustworthy","","","","ratingFB","","","null","","trustrating_stim/white_00120_931230_fa_edt.bmp","null","","","","","","","","","","",""
"image-keyboard-response","93","100348","0.0-6.0-1.44","5d1b0776e1c05200018b582d","bdp_trlrn","Tue Mar 14 2023 22:04:49 GMT-0400 (Eastern Daylight Time)","607255","Untrustworthy,Trustworthy","","","","rating","","","824","","trustrating_stim/white_mw063.bmp","5","","","","","","","","","","",""
"image-keyboard-response","94","100553","0.0-6.0-2.44","5d1b0776e1c05200018b582d","bdp_trlrn","Tue Mar 14 2023 22:04:49 GMT-0400 (Eastern Daylight Time)","607255","Untrustworthy,Trustworthy","","","","ratingFB","","","null","","trustrating_stim/white_mw063.bmp","null","","","","","","","","","","",""
"image-keyboard-response","95","101409","0.0-6.0-1.45","5d1b0776e1c05200018b582d","bdp_trlrn","Tue Mar 14 2023 22:04:49 GMT-0400 (Eastern Daylight Time)","607255","Untrustworthy,Trustworthy","","","","rating","","","746","","trustrating_stim/white_mw046.bmp","5","","","","","","","","","","",""
"image-keyboard-response","96","101614","0.0-6.0-2.45","5d1b0776e1c05200018b582d","bdp_trlrn","Tue Mar 14 2023 22:04:49 GMT-0400 (Eastern Daylight Time)","607255","Untrustworthy,Trustworthy","","","","ratingFB","","","null","","trustrating_stim/white_mw046.bmp","null","","","","","","","","","","",""
"image-keyboard-response","97","102467","0.0-6.0-1.46","5d1b0776e1c05200018b582d","bdp_trlrn","Tue Mar 14 2023 22:04:49 GMT-0400 (Eastern Daylight Time)","607255","Untrustworthy,Trustworthy","","","","rating","","","734","","trustrating_stim/white_00659_941121_fa_edt.bmp","5","","","","","","","","","","",""
"image-keyboard-response","98","102672","0.0-6.0-2.46","5d1b0776e1c05200018b582d","bdp_trlrn","Tue Mar 14 2023 22:04:49 GMT-0400 (Eastern Daylight Time)","607255","Untrustworthy,Trustworthy","","","","ratingFB","","","null","","trustrating_stim/white_00659_941121_fa_edt.bmp","null","","","","","","","","","","",""
"image-keyboard-response","99","103668","0.0-6.0-1.47","5d1b0776e1c05200018b582d","bdp_trlrn","Tue Mar 14 2023 22:04:49 GMT-0400 (Eastern Daylight Time)","607255","Untrustworthy,Trustworthy","","","","rating","","","890","","trustrating_stim/white_mw033.bmp","6","","","","","","","","","","",""
"image-keyboard-response","100","103871","0.0-6.0-2.47","5d1b0776e1c05200018b582d","bdp_trlrn","Tue Mar 14 2023 22:04:49 GMT-0400 (Eastern Daylight Time)","607255","Untrustworthy,Trustworthy","","","","ratingFB","","","null","","trustrating_stim/white_mw033.bmp","null","","","","","","","","","","",""
"image-keyboard-response","101","104890","0.0-6.0-1.48","5d1b0776e1c05200018b582d","bdp_trlrn","Tue Mar 14 2023 22:04:49 GMT-0400 (Eastern Daylight Time)","607255","Untrustworthy,Trustworthy","","","","rating","","","907","","trustrating_stim/white_00898_960530_fa_edt.bmp","6","","","","","","","","","","",""
"image-keyboard-response","102","105095","0.0-6.0-2.48","5d1b0776e1c05200018b582d","bdp_trlrn","Tue Mar 14 2023 22:04:49 GMT-0400 (Eastern Daylight Time)","607255","Untrustworthy,Trustworthy","","","","ratingFB","","","null","","trustrating_stim/white_00898_960530_fa_edt.bmp","null","","","","","","","","","","",""
"image-keyboard-response","103","106421","0.0-6.0-1.49","5d1b0776e1c05200018b582d","bdp_trlrn","Tue Mar 14 2023 22:04:49 GMT-0400 (Eastern Daylight Time)","607255","Untrustworthy,Trustworthy","","","","rating","","","1216","","trustrating_stim/white_mw099.bmp","6","","","","","","","","","","",""
"image-keyboard-response","104","106625","0.0-6.0-2.49","5d1b0776e1c05200018b582d","bdp_trlrn","Tue Mar 14 2023 22:04:49 GMT-0400 (Eastern Daylight Time)","607255","Untrustworthy,Trustworthy","","","","ratingFB","","","null","","trustrating_stim/white_mw099.bmp","null","","","","","","","","","","",""
"image-keyboard-response","105","107576","0.0-6.0-1.50","5d1b0776e1c05200018b582d","bdp_trlrn","Tue Mar 14 2023 22:04:49 GMT-0400 (Eastern Daylight Time)","607255","Untrustworthy,Trustworthy","","","","rating","","","842","","trustrating_stim/white_mw066.bmp","6","","","","","","","","","","",""
"image-keyboard-response","106","107779","0.0-6.0-2.50","5d1b0776e1c05200018b582d","bdp_trlrn","Tue Mar 14 2023 22:04:49 GMT-0400 (Eastern Daylight Time)","607255","Untrustworthy,Trustworthy","","","","ratingFB","","","null","","trustrating_stim/white_mw066.bmp","null","","","","","","","","","","",""
"image-keyboard-response","107","108709","0.0-6.0-1.51","5d1b0776e1c05200018b582d","bdp_trlrn","Tue Mar 14 2023 22:04:49 GMT-0400 (Eastern Daylight Time)","607255","Untrustworthy,Trustworthy","","","","rating","","","818","","trustrating_stim/white_mw084.bmp","6","","","","","","","","","","",""
"image-keyboard-response","108","108911","0.0-6.0-2.51","5d1b0776e1c05200018b582d","bdp_trlrn","Tue Mar 14 2023 22:04:49 GMT-0400 (Eastern Daylight Time)","607255","Untrustworthy,Trustworthy","","","","ratingFB","","","null","","trustrating_stim/white_mw084.bmp","null","","","","","","","","","","",""
"image-keyboard-response","109","110278","0.0-6.0-1.52","5d1b0776e1c05200018b582d","bdp_trlrn","Tue Mar 14 2023 22:04:49 GMT-0400 (Eastern Daylight Time)","607255","Untrustworthy,Trustworthy","","","","rating","","","1261","","trustrating_stim/white_00109_931230_fa_edt.bmp","7","","","","","","","","","","",""
"image-keyboard-response","110","110485","0.0-6.0-2.52","5d1b0776e1c05200018b582d","bdp_trlrn","Tue Mar 14 2023 22:04:49 GMT-0400 (Eastern Daylight Time)","607255","Untrustworthy,Trustworthy","","","","ratingFB","","","null","","trustrating_stim/white_00109_931230_fa_edt.bmp","null","","","","","","","","","","",""
"image-keyboard-response","111","111700","0.0-6.0-1.53","5d1b0776e1c05200018b582d","bdp_trlrn","Tue Mar 14 2023 22:04:49 GMT-0400 (Eastern Daylight Time)","607255","Untrustworthy,Trustworthy","","","","rating","","","1098","","trustrating_stim/white_00785_941205_fb_edt.bmp","5","","","","","","","","","","",""
"image-keyboard-response","112","111903","0.0-6.0-2.53","5d1b0776e1c05200018b582d","bdp_trlrn","Tue Mar 14 2023 22:04:49 GMT-0400 (Eastern Daylight Time)","607255","Untrustworthy,Trustworthy","","","","ratingFB","","","null","","trustrating_stim/white_00785_941205_fb_edt.bmp","null","","","","","","","","","","",""
"image-keyboard-response","113","112892","0.0-6.0-1.54","5d1b0776e1c05200018b582d","bdp_trlrn","Tue Mar 14 2023 22:04:49 GMT-0400 (Eastern Daylight Time)","607255","Untrustworthy,Trustworthy","","","","rating","","","874","","trustrating_stim/white_mw097.bmp","4","","","","","","","","","","",""
"image-keyboard-response","114","113096","0.0-6.0-2.54","5d1b0776e1c05200018b582d","bdp_trlrn","Tue Mar 14 2023 22:04:49 GMT-0400 (Eastern Daylight Time)","607255","Untrustworthy,Trustworthy","","","","ratingFB","","","null","","trustrating_stim/white_mw097.bmp","null","","","","","","","","","","",""
"image-keyboard-response","115","114255","0.0-6.0-1.55","5d1b0776e1c05200018b582d","bdp_trlrn","Tue Mar 14 2023 22:04:49 GMT-0400 (Eastern Daylight Time)","607255","Untrustworthy,Trustworthy","","","","rating","","","1049","","trustrating_stim/white_mw056.bmp","5","","","","","","","","","","",""
"image-keyboard-response","116","114459","0.0-6.0-2.55","5d1b0776e1c05200018b582d","bdp_trlrn","Tue Mar 14 2023 22:04:49 GMT-0400 (Eastern Daylight Time)","607255","Untrustworthy,Trustworthy","","","","ratingFB","","","null","","trustrating_stim/white_mw056.bmp","null","","","","","","","","","","",""
"image-keyboard-response","117","115342","0.0-6.0-1.56","5d1b0776e1c05200018b582d","bdp_trlrn","Tue Mar 14 2023 22:04:49 GMT-0400 (Eastern Daylight Time)","607255","Untrustworthy,Trustworthy","","","","rating","","","766","","trustrating_stim/white_mw048.bmp","5","","","","","","","","","","",""
"image-keyboard-response","118","115546","0.0-6.0-2.56","5d1b0776e1c05200018b582d","bdp_trlrn","Tue Mar 14 2023 22:04:49 GMT-0400 (Eastern Daylight Time)","607255","Untrustworthy,Trustworthy","","","","ratingFB","","","null","","trustrating_stim/white_mw048.bmp","null","","","","","","","","","","",""
"image-keyboard-response","119","116858","0.0-6.0-1.57","5d1b0776e1c05200018b582d","bdp_trlrn","Tue Mar 14 2023 22:04:49 GMT-0400 (Eastern Daylight Time)","607255","Untrustworthy,Trustworthy","","","","rating","","","1197","","trustrating_stim/white_mw035.bmp","5","","","","","","","","","","",""
"image-keyboard-response","120","117063","0.0-6.0-2.57","5d1b0776e1c05200018b582d","bdp_trlrn","Tue Mar 14 2023 22:04:49 GMT-0400 (Eastern Daylight Time)","607255","Untrustworthy,Trustworthy","","","","ratingFB","","","null","","trustrating_stim/white_mw035.bmp","null","","","","","","","","","","",""
"image-keyboard-response","121","117805","0.0-6.0-1.58","5d1b0776e1c05200018b582d","bdp_trlrn","Tue Mar 14 2023 22:04:49 GMT-0400 (Eastern Daylight Time)","607255","Untrustworthy,Trustworthy","","","","rating","","","629","","trustrating_stim/white_00577_940928_fa_edt.bmp","5","","","","","","","","","","",""
"image-keyboard-response","122","118009","0.0-6.0-2.58","5d1b0776e1c05200018b582d","bdp_trlrn","Tue Mar 14 2023 22:04:49 GMT-0400 (Eastern Daylight Time)","607255","Untrustworthy,Trustworthy","","","","ratingFB","","","null","","trustrating_stim/white_00577_940928_fa_edt.bmp","null","","","","","","","","","","",""
"image-keyboard-response","123","118891","0.0-6.0-1.59","5d1b0776e1c05200018b582d","bdp_trlrn","Tue Mar 14 2023 22:04:49 GMT-0400 (Eastern Daylight Time)","607255","Untrustworthy,Trustworthy","","","","rating","","","771","","trustrating_stim/white_00519_940519_fb_edt.bmp","4","","","","","","","","","","",""
"image-keyboard-response","124","119094","0.0-6.0-2.59","5d1b0776e1c05200018b582d","bdp_trlrn","Tue Mar 14 2023 22:04:49 GMT-0400 (Eastern Daylight Time)","607255","Untrustworthy,Trustworthy","","","","ratingFB","","","null","","trustrating_stim/white_00519_940519_fb_edt.bmp","null","","","","","","","","","","",""
"instructions","125","122085","0.0-7.0","5d1b0776e1c05200018b582d","bdp_trlrn","Tue Mar 14 2023 22:04:49 GMT-0400 (Eastern Daylight Time)","607255","Untrustworthy,Trustworthy","","","","","","[{""page_index"":0,""viewing_time"":2885}]","2886","","","","","","","","","","","","","",""
"instructions","126","210363","0.0-8.0","5d1b0776e1c05200018b582d","bdp_trlrn","Tue Mar 14 2023 22:04:49 GMT-0400 (Eastern Daylight Time)","607255","Untrustworthy,Trustworthy","","","","","","[{""page_index"":0,""viewing_time"":14729},{""page_index"":1,""viewing_time"":13251},{""page_index"":2,""viewing_time"":8842},{""page_index"":3,""viewing_time"":9752},{""page_index"":4,""viewing_time"":5475},{""page_index"":5,""viewing_time"":17677},{""page_index"":6,""viewing_time"":14270},{""page_index"":7,""viewing_time"":4173}]","88170","","","","","","","","","","","","","",""
"html-keyboard-response","127","217053","0.0-9.0","5d1b0776e1c05200018b582d","bdp_trlrn","Tue Mar 14 2023 22:04:49 GMT-0400 (Eastern Daylight Time)","607255","Untrustworthy,Trustworthy","","","","","","","6687","","<div class='header' style='text-align:left; position: absolute; top: 5%; left: 5%;'><small>Task 3 of 5</small></div><div class='instruxDiv'><p><strong>1) What is the minimum number of points you can choose to send to your partner?</strong></p><p>a) 0</p><p>b) 1</p><p>c) 5</p>","C","","","","","","","","","","",""
"html-keyboard-response","128","221937","0.0-10.0","5d1b0776e1c05200018b582d","bdp_trlrn","Tue Mar 14 2023 22:04:49 GMT-0400 (Eastern Daylight Time)","607255","Untrustworthy,Trustworthy","","","","","","","4774","","<div class='header' style='text-align:left; position: absolute; top: 5%; left: 5%;'><small>Task 3 of 5</small></div><div class='instruxDiv'><p><strong>1) What is the minimum number of points you can choose to send to your partner?</strong></p><p>a) 1</p><p>b) 1</p><p style='color:#FF0000'>c) 5</p><h3 style='color:#FF0000'>Incorrect!</h3><h3 class='center-content'>The correct response is b).</h3><h3 class='center-content'>The minimum number of points you can choose to send to your partner is 1 point.</h3><p><em>Press SPACEBAR to continue</em></p></div>"," ","","","","","","","","","","",""
"html-keyboard-response","129","226877","0.0-11.0","5d1b0776e1c05200018b582d","bdp_trlrn","Tue Mar 14 2023 22:04:49 GMT-0400 (Eastern Daylight Time)","607255","Untrustworthy,Trustworthy","","","","","","","4836","","<div class='header' style='text-align:left; position: absolute; top: 5%; left: 5%;'><small>Task 3 of 5</small></div><div class='instruxDiv'><p><strong>2) What is the maximum number of points you can choose to send to your partner?</strong></p><p>a) 8</p><p>b) 5</p><p>c) 3</p>","B","","","","","","","","","","",""
"html-keyboard-response","130","228073","0.0-12.0","5d1b0776e1c05200018b582d","bdp_trlrn","Tue Mar 14 2023 22:04:49 GMT-0400 (Eastern Daylight Time)","607255","Untrustworthy,Trustworthy","","","","","","","1086","","<div class='header' style='text-align:left; position: absolute; top: 5%; left: 5%;'><small>Task 3 of 5</small></div><div class='instruxDiv'><p><strong>2) What is the maximum number of points you can choose to send to your partner?</strong></p><p>a) 8</p><p style='color:#00FF00'>b) 5</p><p>c) 3</p><h3 style='color:#00FF00'>Correct!</h3><h3 class='center-content'>The correct response is b).</h3><h3 class='center-content'>The maximum number of points you can choose to send to your partner is 5 points.</h3><p><em>Press SPACEBAR to continue</em></p></div>"," ","","","","","","","","","","",""
"html-keyboard-response","131","233091","0.0-13.0","5d1b0776e1c05200018b582d","bdp_trlrn","Tue Mar 14 2023 22:04:49 GMT-0400 (Eastern Daylight Time)","607255","Untrustworthy,Trustworthy","","","","","","","4912","","<div class='header' style='text-align:left; position: absolute; top: 5%; left: 5%;'><small>Task 3 of 5</small></div><div class='instruxDiv'><p><strong>3) What happens to the amount of points you send to your partner?</strong></p><p>a) Nothing</p><p>b) It doubles</p><p>c) It quadruples</p>","C","","","","","","","","","","",""
"html-keyboard-response","132","234130","0.0-14.0","5d1b0776e1c05200018b582d","bdp_trlrn","Tue Mar 14 2023 22:04:49 GMT-0400 (Eastern Daylight Time)","607255","Untrustworthy,Trustworthy","","","","","","","935","","<div class='header' style='text-align:left; position: absolute; top: 5%; left: 5%;'><small>Task 3 of 5</small></div><div class='instruxDiv'><p><strong>3) What happens to the amount of points you send to your partner?</strong></p><p>a) Nothing</p><p>b) It doubles</p><p style='color:#00FF00'>c) It quadruples</p><h3 style='color:#00FF00'>Correct!</h3><h3 class='center-content'>The correct response is c).</h3><h3 class='center-content'>The amount of points you send to your partner quadruples.</h3><p><em>Press SPACEBAR to continue</em></p></div>"," ","","","","","","","","","","",""
"html-keyboard-response","133","245545","0.0-15.0","5d1b0776e1c05200018b582d","bdp_trlrn","Tue Mar 14 2023 22:04:49 GMT-0400 (Eastern Daylight Time)","607255","Untrustworthy,Trustworthy","","","","","","","11312","","<div class='header' style='text-align:left; position: absolute; top: 5%; left: 5%;'><small>Task 3 of 5</small></div><div class='instruxDiv'><p><strong>4) If you decided to share 4 out of 5 points with your partner, and they decided to share half of the amount they received with you, how many points would you receive back from them on this round?</strong></p><p>a) 16</p><p>b) 0</p><p>c) 8</p>","A","","","","","","","","","","",""
"html-keyboard-response","134","266679","0.0-16.0","5d1b0776e1c05200018b582d","bdp_trlrn","Tue Mar 14 2023 22:04:49 GMT-0400 (Eastern Daylight Time)","607255","Untrustworthy,Trustworthy","","","","","","","21029","","<div class='header' style='text-align:left; position: absolute; top: 5%; left: 5%;'><small>Task 3 of 5</small></div><div class='instruxDiv'><p><strong>4) If you decided to share 4 out of 5 points with your partner, and they decided to share half of the amount they received with you, how many points would you receive back from them on this round?</strong></p><p style='color:#FF0000'>a) 16</p><p>b) 0</p><p>c) 8</p><h3 style='color:#FF0000'>Incorrect!</h3><h3 class='center-content'>The correct response is c).</h3><h3 class='center-content'>If you shared 4 out of 5 points with your partner and they decided to share half of the amount they received with you, you would receive 8 points back (i.e. (4 x 4)/2 = 8).</h3><p><em>Press SPACEBAR to continue</em></p></div>"," ","","","","","","","","","","",""
"html-keyboard-response","135","271784","0.0-17.0","5d1b0776e1c05200018b582d","bdp_trlrn","Tue Mar 14 2023 22:04:49 GMT-0400 (Eastern Daylight Time)","607255","Untrustworthy,Trustworthy","","","","","","","null","","<div class='header' style='text-align:left; position: absolute; top: 5%; left: 5%;'><small>Task 3 of 5</small></div><div class='instruxDiv'><p>Thank you for completing the quiz<p>These are the actual partners you will be interacting with in the next block:<p><div class='tc' align='center'><img class='introPic' src='trustrating_stim/white_00340_940422_fa_edt.bmp'><br><strong>Benjamin</strong></div><div class='bl' align='center'><img class='introPic' src='trustrating_stim/white_00807_941205_fb_edt.bmp'><br><strong>Gavin</strong></div><div class='br' align='center'><img class='introPic' src='trustrating_stim/white_00109_931230_fa_edt.bmp'><br><strong>Ethan</strong></div></div><p>Across <strong>66 rounds</strong> you will interact with each partner <strong>22 times</strong> (in random order).<p style='align:center; color:white'><font <em>Press SPACEBAR to continue</em></p>","null","","","","","","","","","","",""
"instructions","136","276974","0.0-18.0","5d1b0776e1c05200018b582d","bdp_trlrn","Tue Mar 14 2023 22:04:49 GMT-0400 (Eastern Daylight Time)","607255","Untrustworthy,Trustworthy","","","","","","[{""page_index"":0,""viewing_time"":1540},{""page_index"":1,""viewing_time"":3646}]","5187","","","","","","","","","","","","","",""
"html-keyboard-response","137","280004","0.0-19.0-1.0","5d1b0776e1c05200018b582d","bdp_trlrn","Tue Mar 14 2023 22:04:49 GMT-0400 (Eastern Daylight Time)","607255","Untrustworthy,Trustworthy","","","","decision","","","2918","","<div class='trialDiv'><img src='trustrating_stim/white_00340_940422_fa_edt.bmp'><br><font class='baseline'><strong>Benjamin</strong><p>Choose number of points to send.</font><div class='respPicDiv'><img src='img/responseButtonOffersNo0L.png' class='respPic'></div></div>","1","1","Benjamin","1","Kept","0.8,0.35","10","0.8","trustrating_stim/white_00340_940422_fa_edt.bmp","4","5","1"
"html-keyboard-response","138","280259","0.0-19.0-2.0","5d1b0776e1c05200018b582d","bdp_trlrn","Tue Mar 14 2023 22:04:49 GMT-0400 (Eastern Daylight Time)","607255","Untrustworthy,Trustworthy","","","","decisionFB","","","null","","<div class='trialDiv'><img src='trustrating_stim/white_00340_940422_fa_edt.bmp'><br><font class='baseline'><strong>Benjamin</strong><p>Choose number of points to send.</font><div class='respPicDiv'><img src='img/responseButtonOffersNo0L1.png' class='respPic'></div></div>","null","1","Benjamin","1","Kept","0.8,0.35","10","0.8","trustrating_stim/white_00340_940422_fa_edt.bmp","4","4","1"
"html-keyboard-response","139","281265","0.0-19.0-3.0","5d1b0776e1c05200018b582d","bdp_trlrn","Tue Mar 14 2023 22:04:49 GMT-0400 (Eastern Daylight Time)","607255","Untrustworthy,Trustworthy","","","","feedback","","","null","","<div class='trialDiv'><img src='trustrating_stim/white_00340_940422_fa_edt.bmp'><br><font class='baseline'><strong>Benjamin</strong><p>Received: <strong>4</strong></font> &nbsp; &nbsp; &nbsp; &nbsp; &nbsp; &nbsp;<font class='negOutcome'>Shared back: <strong>0</strong></font></font><div class='respPicDiv'><img src='img/responseButtonOffersNo0_wht.png' class='respPic'></div></div>","null","1","Benjamin","1","Kept","0.8,0.35","10","0.8","trustrating_stim/white_00340_940422_fa_edt.bmp","4","4","1"
"html-keyboard-response","140","282911","0.0-19.0-1.1","5d1b0776e1c05200018b582d","bdp_trlrn","Tue Mar 14 2023 22:04:49 GMT-0400 (Eastern Daylight Time)","607255","Untrustworthy,Trustworthy","","","","decision","","","1643","","<div class='trialDiv'><img src='trustrating_stim/white_00807_941205_fb_edt.bmp'><br><font class='baseline'><strong>Gavin</strong><p>Choose number of points to send.</font><div class='respPicDiv'><img src='img/responseButtonOffersNo0L.png' class='respPic'></div></div>","1","1","Gavin","4","Kept","0.35,0.8","13","0.35","trustrating_stim/white_00807_941205_fb_edt.bmp","5","9","2"
"html-keyboard-response","141","283164","0.0-19.0-2.1","5d1b0776e1c05200018b582d","bdp_trlrn","Tue Mar 14 2023 22:04:49 GMT-0400 (Eastern Daylight Time)","607255","Untrustworthy,Trustworthy","","","","decisionFB","","","null","","<div class='trialDiv'><img src='trustrating_stim/white_00807_941205_fb_edt.bmp'><br><font class='baseline'><strong>Gavin</strong><p>Choose number of points to send.</font><div class='respPicDiv'><img src='img/responseButtonOffersNo0L1.png' class='respPic'></div></div>","null","1","Gavin","4","Kept","0.35,0.8","13","0.35","trustrating_stim/white_00807_941205_fb_edt.bmp","5","8","2"
"html-keyboard-response","142","284171","0.0-19.0-3.1","5d1b0776e1c05200018b582d","bdp_trlrn","Tue Mar 14 2023 22:04:49 GMT-0400 (Eastern Daylight Time)","607255","Untrustworthy,Trustworthy","","","","feedback","","","null","","<div class='trialDiv'><img src='trustrating_stim/white_00807_941205_fb_edt.bmp'><br><font class='baseline'><strong>Gavin</strong><p>Received: <strong>4</strong></font> &nbsp; &nbsp; &nbsp; &nbsp; &nbsp; &nbsp;<font class='negOutcome'>Shared back: <strong>0</strong></font></font><div class='respPicDiv'><img src='img/responseButtonOffersNo0_wht.png' class='respPic'></div></div>","null","1","Gavin","4","Kept","0.35,0.8","13","0.35","trustrating_stim/white_00807_941205_fb_edt.bmp","5","8","2"
"html-keyboard-response","143","285713","0.0-19.0-1.2","5d1b0776e1c05200018b582d","bdp_trlrn","Tue Mar 14 2023 22:04:49 GMT-0400 (Eastern Daylight Time)","607255","Untrustworthy,Trustworthy","","","","decision","","","1535","","<div class='trialDiv'><img src='trustrating_stim/white_00109_931230_fa_edt.bmp'><br><font class='baseline'><strong>Ethan</strong><p>Choose number of points to send.</font><div class='respPicDiv'><img src='img/responseButtonOffersNo0L.png' class='respPic'></div></div>","1","1","Ethan","9","Shared","0.35,0.65","9","0.35","trustrating_stim/white_00109_931230_fa_edt.bmp","6.5","13","3"
"html-keyboard-response","144","285970","0.0-19.0-2.2","5d1b0776e1c05200018b582d","bdp_trlrn","Tue Mar 14 2023 22:04:49 GMT-0400 (Eastern Daylight Time)","607255","Untrustworthy,Trustworthy","","","","decisionFB","","","null","","<div class='trialDiv'><img src='trustrating_stim/white_00109_931230_fa_edt.bmp'><br><font class='baseline'><strong>Ethan</strong><p>Choose number of points to send.</font><div class='respPicDiv'><img src='img/responseButtonOffersNo0L1.png' class='respPic'></div></div>","null","1","Ethan","9","Shared","0.35,0.65","9","0.35","trustrating_stim/white_00109_931230_fa_edt.bmp","6.5","12","3"
"html-keyboard-response","145","286977","0.0-19.0-3.2","5d1b0776e1c05200018b582d","bdp_trlrn","Tue Mar 14 2023 22:04:49 GMT-0400 (Eastern Daylight Time)","607255","Untrustworthy,Trustworthy","","","","feedback","","","null","","<div class='trialDiv'><img src='trustrating_stim/white_00109_931230_fa_edt.bmp'><br><font class='baseline'><strong>Ethan</strong><p>Received: <strong>4</strong></font> &nbsp; &nbsp; &nbsp; &nbsp; &nbsp; &nbsp;<font class='posOutcome'>Shared back: <strong>2</strong></font></font><div class='respPicDiv'><img src='img/responseButtonOffersNo0_wht.png' class='respPic'></div></div>","null","1","Ethan","9","Shared","0.35,0.65","9","0.35","trustrating_stim/white_00109_931230_fa_edt.bmp","6.5","14","3"
"html-keyboard-response","146","287823","0.0-19.0-1.3","5d1b0776e1c05200018b582d","bdp_trlrn","Tue Mar 14 2023 22:04:49 GMT-0400 (Eastern Daylight Time)","607255","Untrustworthy,Trustworthy","","","","decision","","","841","","<div class='trialDiv'><img src='trustrating_stim/white_00340_940422_fa_edt.bmp'><br><font class='baseline'><strong>Benjamin</strong><p>Choose number of points to send.</font><div class='respPicDiv'><img src='img/responseButtonOffersNo0L.png' class='respPic'></div></div>","1","2","Benjamin","1","Shared","0.8,0.35","10","0.8","trustrating_stim/white_00340_940422_fa_edt.bmp","4","19","4"
"html-keyboard-response","147","288078","0.0-19.0-2.3","5d1b0776e1c05200018b582d","bdp_trlrn","Tue Mar 14 2023 22:04:49 GMT-0400 (Eastern Daylight Time)","607255","Untrustworthy,Trustworthy","","","","decisionFB","","","null","","<div class='trialDiv'><img src='trustrating_stim/white_00340_940422_fa_edt.bmp'><br><font class='baseline'><strong>Benjamin</strong><p>Choose number of points to send.</font><div class='respPicDiv'><img src='img/responseButtonOffersNo0L1.png' class='respPic'></div></div>","null","2","Benjamin","1","Shared","0.8,0.35","10","0.8","trustrating_stim/white_00340_940422_fa_edt.bmp","4","18","4"
"html-keyboard-response","148","289086","0.0-19.0-3.3","5d1b0776e1c05200018b582d","bdp_trlrn","Tue Mar 14 2023 22:04:49 GMT-0400 (Eastern Daylight Time)","607255","Untrustworthy,Trustworthy","","","","feedback","","","null","","<div class='trialDiv'><img src='trustrating_stim/white_00340_940422_fa_edt.bmp'><br><font class='baseline'><strong>Benjamin</strong><p>Received: <strong>4</strong></font> &nbsp; &nbsp; &nbsp; &nbsp; &nbsp; &nbsp;<font class='posOutcome'>Shared back: <strong>2</strong></font></font><div class='respPicDiv'><img src='img/responseButtonOffersNo0_wht.png' class='respPic'></div></div>","null","2","Benjamin","1","Shared","0.8,0.35","10","0.8","trustrating_stim/white_00340_940422_fa_edt.bmp","4","20","4"
"html-keyboard-response","149","290994","0.0-19.0-1.4","5d1b0776e1c05200018b582d","bdp_trlrn","Tue Mar 14 2023 22:04:49 GMT-0400 (Eastern Daylight Time)","607255","Untrustworthy,Trustworthy","","","","decision","","","1901","","<div class='trialDiv'><img src='trustrating_stim/white_00807_941205_fb_edt.bmp'><br><font class='baseline'><strong>Gavin</strong><p>Choose number of points to send.</font><div class='respPicDiv'><img src='img/responseButtonOffersNo0L.png' class='respPic'></div></div>","3","2","Gavin","4","Kept","0.35,0.8","13","0.35","trustrating_stim/white_00807_941205_fb_edt.bmp","5","25","5"
"html-keyboard-response","150","291248","0.0-19.0-2.4","5d1b0776e1c05200018b582d","bdp_trlrn","Tue Mar 14 2023 22:04:49 GMT-0400 (Eastern Daylight Time)","607255","Untrustworthy,Trustworthy","","","","decisionFB","","","null","","<div class='trialDiv'><img src='trustrating_stim/white_00807_941205_fb_edt.bmp'><br><font class='baseline'><strong>Gavin</strong><p>Choose number of points to send.</font><div class='respPicDiv'><img src='img/responseButtonOffersNo0L3.png' class='respPic'></div></div>","null","2","Gavin","4","Kept","0.35,0.8","13","0.35","trustrating_stim/white_00807_941205_fb_edt.bmp","5","22","5"
"html-keyboard-response","151","292254","0.0-19.0-3.4","5d1b0776e1c05200018b582d","bdp_trlrn","Tue Mar 14 2023 22:04:49 GMT-0400 (Eastern Daylight Time)","607255","Untrustworthy,Trustworthy","","","","feedback","","","null","","<div class='trialDiv'><img src='trustrating_stim/white_00807_941205_fb_edt.bmp'><br><font class='baseline'><strong>Gavin</strong><p>Received: <strong>12</strong></font> &nbsp; &nbsp; &nbsp; &nbsp; &nbsp; &nbsp;<font class='negOutcome'>Shared back: <strong>0</strong></font></font><div class='respPicDiv'><img src='img/responseButtonOffersNo0_wht.png' class='respPic'></div></div>","null","2","Gavin","4","Kept","0.35,0.8","13","0.35","trustrating_stim/white_00807_941205_fb_edt.bmp","5","22","5"
"html-keyboard-response","152","293772","0.0-19.0-1.5","5d1b0776e1c05200018b582d","bdp_trlrn","Tue Mar 14 2023 22:04:49 GMT-0400 (Eastern Daylight Time)","607255","Untrustworthy,Trustworthy","","","","decision","","","1514","","<div class='trialDiv'><img src='trustrating_stim/white_00109_931230_fa_edt.bmp'><br><font class='baseline'><strong>Ethan</strong><p>Choose number of points to send.</font><div class='respPicDiv'><img src='img/responseButtonOffersNo0L.png' class='respPic'></div></div>","4","2","Ethan","9","Shared","0.35,0.65","9","0.35","trustrating_stim/white_00109_931230_fa_edt.bmp","6.5","27","6"
"html-keyboard-response","153","294024","0.0-19.0-2.5","5d1b0776e1c05200018b582d","bdp_trlrn","Tue Mar 14 2023 22:04:49 GMT-0400 (Eastern Daylight Time)","607255","Untrustworthy,Trustworthy","","","","decisionFB","","","null","","<div class='trialDiv'><img src='trustrating_stim/white_00109_931230_fa_edt.bmp'><br><font class='baseline'><strong>Ethan</strong><p>Choose number of points to send.</font><div class='respPicDiv'><img src='img/responseButtonOffersNo0L4.png' class='respPic'></div></div>","null","2","Ethan","9","Shared","0.35,0.65","9","0.35","trustrating_stim/white_00109_931230_fa_edt.bmp","6.5","23","6"
"html-keyboard-response","154","295028","0.0-19.0-3.5","5d1b0776e1c05200018b582d","bdp_trlrn","Tue Mar 14 2023 22:04:49 GMT-0400 (Eastern Daylight Time)","607255","Untrustworthy,Trustworthy","","","","feedback","","","null","","<div class='trialDiv'><img src='trustrating_stim/white_00109_931230_fa_edt.bmp'><br><font class='baseline'><strong>Ethan</strong><p>Received: <strong>16</strong></font> &nbsp; &nbsp; &nbsp; &nbsp; &nbsp; &nbsp;<font class='posOutcome'>Shared back: <strong>8</strong></font></font><div class='respPicDiv'><img src='img/responseButtonOffersNo0_wht.png' class='respPic'></div></div>","null","2","Ethan","9","Shared","0.35,0.65","9","0.35","trustrating_stim/white_00109_931230_fa_edt.bmp","6.5","31","6"
"html-keyboard-response","155","297246","0.0-19.0-1.6","5d1b0776e1c05200018b582d","bdp_trlrn","Tue Mar 14 2023 22:04:49 GMT-0400 (Eastern Daylight Time)","607255","Untrustworthy,Trustworthy","","","","decision","","","2211","","<div class='trialDiv'><img src='trustrating_stim/white_00340_940422_fa_edt.bmp'><br><font class='baseline'><strong>Benjamin</strong><p>Choose number of points to send.</font><div class='respPicDiv'><img src='img/responseButtonOffersNo0L.png' class='respPic'></div></div>","1","3","Benjamin","1","Shared","0.8,0.35","10","0.8","trustrating_stim/white_00340_940422_fa_edt.bmp","4","36","7"
"html-keyboard-response","156","297501","0.0-19.0-2.6","5d1b0776e1c05200018b582d","bdp_trlrn","Tue Mar 14 2023 22:04:49 GMT-0400 (Eastern Daylight Time)","607255","Untrustworthy,Trustworthy","","","","decisionFB","","","null","","<div class='trialDiv'><img src='trustrating_stim/white_00340_940422_fa_edt.bmp'><br><font class='baseline'><strong>Benjamin</strong><p>Choose number of points to send.</font><div class='respPicDiv'><img src='img/responseButtonOffersNo0L1.png' class='respPic'></div></div>","null","3","Benjamin","1","Shared","0.8,0.35","10","0.8","trustrating_stim/white_00340_940422_fa_edt.bmp","4","35","7"
"html-keyboard-response","157","298510","0.0-19.0-3.6","5d1b0776e1c05200018b582d","bdp_trlrn","Tue Mar 14 2023 22:04:49 GMT-0400 (Eastern Daylight Time)","607255","Untrustworthy,Trustworthy","","","","feedback","","","null","","<div class='trialDiv'><img src='trustrating_stim/white_00340_940422_fa_edt.bmp'><br><font class='baseline'><strong>Benjamin</strong><p>Received: <strong>4</strong></font> &nbsp; &nbsp; &nbsp; &nbsp; &nbsp; &nbsp;<font class='posOutcome'>Shared back: <strong>2</strong></font></font><div class='respPicDiv'><img src='img/responseButtonOffersNo0_wht.png' class='respPic'></div></div>","null","3","Benjamin","1","Shared","0.8,0.35","10","0.8","trustrating_stim/white_00340_940422_fa_edt.bmp","4","37","7"
"html-keyboard-response","158","300275","0.0-19.0-1.7","5d1b0776e1c05200018b582d","bdp_trlrn","Tue Mar 14 2023 22:04:49 GMT-0400 (Eastern Daylight Time)","607255","Untrustworthy,Trustworthy","","","","decision","","","1759","","<div class='trialDiv'><img src='trustrating_stim/white_00109_931230_fa_edt.bmp'><br><font class='baseline'><strong>Ethan</strong><p>Choose number of points to send.</font><div class='respPicDiv'><img src='img/responseButtonOffersNo0L.png' class='respPic'></div></div>","2","3","Ethan","9","Shared","0.35,0.65","9","0.35","trustrating_stim/white_00109_931230_fa_edt.bmp","6.5","42","8"
"html-keyboard-response","159","300530","0.0-19.0-2.7","5d1b0776e1c05200018b582d","bdp_trlrn","Tue Mar 14 2023 22:04:49 GMT-0400 (Eastern Daylight Time)","607255","Untrustworthy,Trustworthy","","","","decisionFB","","","null","","<div class='trialDiv'><img src='trustrating_stim/white_00109_931230_fa_edt.bmp'><br><font class='baseline'><strong>Ethan</strong><p>Choose number of points to send.</font><div class='respPicDiv'><img src='img/responseButtonOffersNo0L2.png' class='respPic'></div></div>","null","3","Ethan","9","Shared","0.35,0.65","9","0.35","trustrating_stim/white_00109_931230_fa_edt.bmp","6.5","40","8"
"html-keyboard-response","160","301539","0.0-19.0-3.7","5d1b0776e1c05200018b582d","bdp_trlrn","Tue Mar 14 2023 22:04:49 GMT-0400 (Eastern Daylight Time)","607255","Untrustworthy,Trustworthy","","","","feedback","","","null","","<div class='trialDiv'><img src='trustrating_stim/white_00109_931230_fa_edt.bmp'><br><font class='baseline'><strong>Ethan</strong><p>Received: <strong>8</strong></font> &nbsp; &nbsp; &nbsp; &nbsp; &nbsp; &nbsp;<font class='posOutcome'>Shared back: <strong>4</strong></font></font><div class='respPicDiv'><img src='img/responseButtonOffersNo0_wht.png' class='respPic'></div></div>","null","3","Ethan","9","Shared","0.35,0.65","9","0.35","trustrating_stim/white_00109_931230_fa_edt.bmp","6.5","44","8"
"html-keyboard-response","161","302950","0.0-19.0-1.8","5d1b0776e1c05200018b582d","bdp_trlrn","Tue Mar 14 2023 22:04:49 GMT-0400 (Eastern Daylight Time)","607255","Untrustworthy,Trustworthy","","","","decision","","","1406","","<div class='trialDiv'><img src='trustrating_stim/white_00807_941205_fb_edt.bmp'><br><font class='baseline'><strong>Gavin</strong><p>Choose number of points to send.</font><div class='respPicDiv'><img src='img/responseButtonOffersNo0L.png' class='respPic'></div></div>","2","3","Gavin","4","Kept","0.35,0.8","13","0.35","trustrating_stim/white_00807_941205_fb_edt.bmp","5","49","9"
"html-keyboard-response","162","303203","0.0-19.0-2.8","5d1b0776e1c05200018b582d","bdp_trlrn","Tue Mar 14 2023 22:04:49 GMT-0400 (Eastern Daylight Time)","607255","Untrustworthy,Trustworthy","","","","decisionFB","","","null","","<div class='trialDiv'><img src='trustrating_stim/white_00807_941205_fb_edt.bmp'><br><font class='baseline'><strong>Gavin</strong><p>Choose number of points to send.</font><div class='respPicDiv'><img src='img/responseButtonOffersNo0L2.png' class='respPic'></div></div>","null","3","Gavin","4","Kept","0.35,0.8","13","0.35","trustrating_stim/white_00807_941205_fb_edt.bmp","5","47","9"
"html-keyboard-response","163","304206","0.0-19.0-3.8","5d1b0776e1c05200018b582d","bdp_trlrn","Tue Mar 14 2023 22:04:49 GMT-0400 (Eastern Daylight Time)","607255","Untrustworthy,Trustworthy","","","","feedback","","","null","","<div class='trialDiv'><img src='trustrating_stim/white_00807_941205_fb_edt.bmp'><br><font class='baseline'><strong>Gavin</strong><p>Received: <strong>8</strong></font> &nbsp; &nbsp; &nbsp; &nbsp; &nbsp; &nbsp;<font class='negOutcome'>Shared back: <strong>0</strong></font></font><div class='respPicDiv'><img src='img/responseButtonOffersNo0_wht.png' class='respPic'></div></div>","null","3","Gavin","4","Kept","0.35,0.8","13","0.35","trustrating_stim/white_00807_941205_fb_edt.bmp","5","47","9"
"html-keyboard-response","164","305071","0.0-19.0-1.9","5d1b0776e1c05200018b582d","bdp_trlrn","Tue Mar 14 2023 22:04:49 GMT-0400 (Eastern Daylight Time)","607255","Untrustworthy,Trustworthy","","","","decision","","","860","","<div class='trialDiv'><img src='trustrating_stim/white_00340_940422_fa_edt.bmp'><br><font class='baseline'><strong>Benjamin</strong><p>Choose number of points to send.</font><div class='respPicDiv'><img src='img/responseButtonOffersNo0L.png' class='respPic'></div></div>","1","4","Benjamin","1","Shared","0.8,0.35","10","0.8","trustrating_stim/white_00340_940422_fa_edt.bmp","4","52","10"
"html-keyboard-response","165","305328","0.0-19.0-2.9","5d1b0776e1c05200018b582d","bdp_trlrn","Tue Mar 14 2023 22:04:49 GMT-0400 (Eastern Daylight Time)","607255","Untrustworthy,Trustworthy","","","","decisionFB","","","null","","<div class='trialDiv'><img src='trustrating_stim/white_00340_940422_fa_edt.bmp'><br><font class='baseline'><strong>Benjamin</strong><p>Choose number of points to send.</font><div class='respPicDiv'><img src='img/responseButtonOffersNo0L1.png' class='respPic'></div></div>","null","4","Benjamin","1","Shared","0.8,0.35","10","0.8","trustrating_stim/white_00340_940422_fa_edt.bmp","4","51","10"
"html-keyboard-response","166","306331","0.0-19.0-3.9","5d1b0776e1c05200018b582d","bdp_trlrn","Tue Mar 14 2023 22:04:49 GMT-0400 (Eastern Daylight Time)","607255","Untrustworthy,Trustworthy","","","","feedback","","","null","","<div class='trialDiv'><img src='trustrating_stim/white_00340_940422_fa_edt.bmp'><br><font class='baseline'><strong>Benjamin</strong><p>Received: <strong>4</strong></font> &nbsp; &nbsp; &nbsp; &nbsp; &nbsp; &nbsp;<font class='posOutcome'>Shared back: <strong>2</strong></font></font><div class='respPicDiv'><img src='img/responseButtonOffersNo0_wht.png' class='respPic'></div></div>","null","4","Benjamin","1","Shared","0.8,0.35","10","0.8","trustrating_stim/white_00340_940422_fa_edt.bmp","4","53","10"
"html-keyboard-response","167","307360","0.0-19.0-1.10","5d1b0776e1c05200018b582d","bdp_trlrn","Tue Mar 14 2023 22:04:49 GMT-0400 (Eastern Daylight Time)","607255","Untrustworthy,Trustworthy","","","","decision","","","1025","","<div class='trialDiv'><img src='trustrating_stim/white_00807_941205_fb_edt.bmp'><br><font class='baseline'><strong>Gavin</strong><p>Choose number of points to send.</font><div class='respPicDiv'><img src='img/responseButtonOffersNo0L.png' class='respPic'></div></div>","2","4","Gavin","4","Kept","0.35,0.8","13","0.35","trustrating_stim/white_00807_941205_fb_edt.bmp","5","58","11"
"html-keyboard-response","168","307612","0.0-19.0-2.10","5d1b0776e1c05200018b582d","bdp_trlrn","Tue Mar 14 2023 22:04:49 GMT-0400 (Eastern Daylight Time)","607255","Untrustworthy,Trustworthy","","","","decisionFB","","","null","","<div class='trialDiv'><img src='trustrating_stim/white_00807_941205_fb_edt.bmp'><br><font class='baseline'><strong>Gavin</strong><p>Choose number of points to send.</font><div class='respPicDiv'><img src='img/responseButtonOffersNo0L2.png' class='respPic'></div></div>","null","4","Gavin","4","Kept","0.35,0.8","13","0.35","trustrating_stim/white_00807_941205_fb_edt.bmp","5","56","11"
"html-keyboard-response","169","308615","0.0-19.0-3.10","5d1b0776e1c05200018b582d","bdp_trlrn","Tue Mar 14 2023 22:04:49 GMT-0400 (Eastern Daylight Time)","607255","Untrustworthy,Trustworthy","","","","feedback","","","null","","<div class='trialDiv'><img src='trustrating_stim/white_00807_941205_fb_edt.bmp'><br><font class='baseline'><strong>Gavin</strong><p>Received: <strong>8</strong></font> &nbsp; &nbsp; &nbsp; &nbsp; &nbsp; &nbsp;<font class='negOutcome'>Shared back: <strong>0</strong></font></font><div class='respPicDiv'><img src='img/responseButtonOffersNo0_wht.png' class='respPic'></div></div>","null","4","Gavin","4","Kept","0.35,0.8","13","0.35","trustrating_stim/white_00807_941205_fb_edt.bmp","5","56","11"
"html-keyboard-response","170","309690","0.0-19.0-1.11","5d1b0776e1c05200018b582d","bdp_trlrn","Tue Mar 14 2023 22:04:49 GMT-0400 (Eastern Daylight Time)","607255","Untrustworthy,Trustworthy","","","","decision","","","1070","","<div class='trialDiv'><img src='trustrating_stim/white_00109_931230_fa_edt.bmp'><br><font class='baseline'><strong>Ethan</strong><p>Choose number of points to send.</font><div class='respPicDiv'><img src='img/responseButtonOffersNo0L.png' class='respPic'></div></div>","1","4","Ethan","9","Kept","0.35,0.65","9","0.35","trustrating_stim/white_00109_931230_fa_edt.bmp","6.5","61","12"
"html-keyboard-response","171","309945","0.0-19.0-2.11","5d1b0776e1c05200018b582d","bdp_trlrn","Tue Mar 14 2023 22:04:49 GMT-0400 (Eastern Daylight Time)","607255","Untrustworthy,Trustworthy","","","","decisionFB","","","null","","<div class='trialDiv'><img src='trustrating_stim/white_00109_931230_fa_edt.bmp'><br><font class='baseline'><strong>Ethan</strong><p>Choose number of points to send.</font><div class='respPicDiv'><img src='img/responseButtonOffersNo0L1.png' class='respPic'></div></div>","null","4","Ethan","9","Kept","0.35,0.65","9","0.35","trustrating_stim/white_00109_931230_fa_edt.bmp","6.5","60","12"
"html-keyboard-response","172","310952","0.0-19.0-3.11","5d1b0776e1c05200018b582d","bdp_trlrn","Tue Mar 14 2023 22:04:49 GMT-0400 (Eastern Daylight Time)","607255","Untrustworthy,Trustworthy","","","","feedback","","","null","","<div class='trialDiv'><img src='trustrating_stim/white_00109_931230_fa_edt.bmp'><br><font class='baseline'><strong>Ethan</strong><p>Received: <strong>4</strong></font> &nbsp; &nbsp; &nbsp; &nbsp; &nbsp; &nbsp;<font class='negOutcome'>Shared back: <strong>0</strong></font></font><div class='respPicDiv'><img src='img/responseButtonOffersNo0_wht.png' class='respPic'></div></div>","null","4","Ethan","9","Kept","0.35,0.65","9","0.35","trustrating_stim/white_00109_931230_fa_edt.bmp","6.5","60","12"
"html-keyboard-response","173","311857","0.0-19.0-1.12","5d1b0776e1c05200018b582d","bdp_trlrn","Tue Mar 14 2023 22:04:49 GMT-0400 (Eastern Daylight Time)","607255","Untrustworthy,Trustworthy","","","","decision","","","898","","<div class='trialDiv'><img src='trustrating_stim/white_00340_940422_fa_edt.bmp'><br><font class='baseline'><strong>Benjamin</strong><p>Choose number of points to send.</font><div class='respPicDiv'><img src='img/responseButtonOffersNo0L.png' class='respPic'></div></div>","1","5","Benjamin","1","Kept","0.8,0.35","10","0.8","trustrating_stim/white_00340_940422_fa_edt.bmp","4","65","13"
"html-keyboard-response","174","312112","0.0-19.0-2.12","5d1b0776e1c05200018b582d","bdp_trlrn","Tue Mar 14 2023 22:04:49 GMT-0400 (Eastern Daylight Time)","607255","Untrustworthy,Trustworthy","","","","decisionFB","","","null","","<div class='trialDiv'><img src='trustrating_stim/white_00340_940422_fa_edt.bmp'><br><font class='baseline'><strong>Benjamin</strong><p>Choose number of points to send.</font><div class='respPicDiv'><img src='img/responseButtonOffersNo0L1.png' class='respPic'></div></div>","null","5","Benjamin","1","Kept","0.8,0.35","10","0.8","trustrating_stim/white_00340_940422_fa_edt.bmp","4","64","13"
"html-keyboard-response","175","313118","0.0-19.0-3.12","5d1b0776e1c05200018b582d","bdp_trlrn","Tue Mar 14 2023 22:04:49 GMT-0400 (Eastern Daylight Time)","607255","Untrustworthy,Trustworthy","","","","feedback","","","null","","<div class='trialDiv'><img src='trustrating_stim/white_00340_940422_fa_edt.bmp'><br><font class='baseline'><strong>Benjamin</strong><p>Received: <strong>4</strong></font> &nbsp; &nbsp; &nbsp; &nbsp; &nbsp; &nbsp;<font class='negOutcome'>Shared back: <strong>0</strong></font></font><div class='respPicDiv'><img src='img/responseButtonOffersNo0_wht.png' class='respPic'></div></div>","null","5","Benjamin","1","Kept","0.8,0.35","10","0.8","trustrating_stim/white_00340_940422_fa_edt.bmp","4","64","13"
"html-keyboard-response","176","314799","0.0-19.0-1.13","5d1b0776e1c05200018b582d","bdp_trlrn","Tue Mar 14 2023 22:04:49 GMT-0400 (Eastern Daylight Time)","607255","Untrustworthy,Trustworthy","","","","decision","","","1674","","<div class='trialDiv'><img src='trustrating_stim/white_00807_941205_fb_edt.bmp'><br><font class='baseline'><strong>Gavin</strong><p>Choose number of points to send.</font><div class='respPicDiv'><img src='img/responseButtonOffersNo0L.png' class='respPic'></div></div>","4","5","Gavin","4","Shared","0.35,0.8","13","0.35","trustrating_stim/white_00807_941205_fb_edt.bmp","5","69","14"
"html-keyboard-response","177","315056","0.0-19.0-2.13","5d1b0776e1c05200018b582d","bdp_trlrn","Tue Mar 14 2023 22:04:49 GMT-0400 (Eastern Daylight Time)","607255","Untrustworthy,Trustworthy","","","","decisionFB","","","null","","<div class='trialDiv'><img src='trustrating_stim/white_00807_941205_fb_edt.bmp'><br><font class='baseline'><strong>Gavin</strong><p>Choose number of points to send.</font><div class='respPicDiv'><img src='img/responseButtonOffersNo0L4.png' class='respPic'></div></div>","null","5","Gavin","4","Shared","0.35,0.8","13","0.35","trustrating_stim/white_00807_941205_fb_edt.bmp","5","65","14"
"html-keyboard-response","178","316060","0.0-19.0-3.13","5d1b0776e1c05200018b582d","bdp_trlrn","Tue Mar 14 2023 22:04:49 GMT-0400 (Eastern Daylight Time)","607255","Untrustworthy,Trustworthy","","","","feedback","","","null","","<div class='trialDiv'><img src='trustrating_stim/white_00807_941205_fb_edt.bmp'><br><font class='baseline'><strong>Gavin</strong><p>Received: <strong>16</strong></font> &nbsp; &nbsp; &nbsp; &nbsp; &nbsp; &nbsp;<font class='posOutcome'>Shared back: <strong>8</strong></font></font><div class='respPicDiv'><img src='img/responseButtonOffersNo0_wht.png' class='respPic'></div></div>","null","5","Gavin","4","Shared","0.35,0.8","13","0.35","trustrating_stim/white_00807_941205_fb_edt.bmp","5","73","14"
"html-keyboard-response","179","317555","0.0-19.0-1.14","5d1b0776e1c05200018b582d","bdp_trlrn","Tue Mar 14 2023 22:04:49 GMT-0400 (Eastern Daylight Time)","607255","Untrustworthy,Trustworthy","","","","decision","","","1487","","<div class='trialDiv'><img src='trustrating_stim/white_00109_931230_fa_edt.bmp'><br><font class='baseline'><strong>Ethan</strong><p>Choose number of points to send.</font><div class='respPicDiv'><img src='img/responseButtonOffersNo0L.png' class='respPic'></div></div>","4","5","Ethan","9","Kept","0.35,0.65","9","0.35","trustrating_stim/white_00109_931230_fa_edt.bmp","6.5","78","15"
"html-keyboard-response","180","317807","0.0-19.0-2.14","5d1b0776e1c05200018b582d","bdp_trlrn","Tue Mar 14 2023 22:04:49 GMT-0400 (Eastern Daylight Time)","607255","Untrustworthy,Trustworthy","","","","decisionFB","","","null","","<div class='trialDiv'><img src='trustrating_stim/white_00109_931230_fa_edt.bmp'><br><font class='baseline'><strong>Ethan</strong><p>Choose number of points to send.</font><div class='respPicDiv'><img src='img/responseButtonOffersNo0L4.png' class='respPic'></div></div>","null","5","Ethan","9","Kept","0.35,0.65","9","0.35","trustrating_stim/white_00109_931230_fa_edt.bmp","6.5","74","15"
"html-keyboard-response","181","318813","0.0-19.0-3.14","5d1b0776e1c05200018b582d","bdp_trlrn","Tue Mar 14 2023 22:04:49 GMT-0400 (Eastern Daylight Time)","607255","Untrustworthy,Trustworthy","","","","feedback","","","null","","<div class='trialDiv'><img src='trustrating_stim/white_00109_931230_fa_edt.bmp'><br><font class='baseline'><strong>Ethan</strong><p>Received: <strong>16</strong></font> &nbsp; &nbsp; &nbsp; &nbsp; &nbsp; &nbsp;<font class='negOutcome'>Shared back: <strong>0</strong></font></font><div class='respPicDiv'><img src='img/responseButtonOffersNo0_wht.png' class='respPic'></div></div>","null","5","Ethan","9","Kept","0.35,0.65","9","0.35","trustrating_stim/white_00109_931230_fa_edt.bmp","6.5","74","15"
"html-keyboard-response","182","319956","0.0-19.0-1.15","5d1b0776e1c05200018b582d","bdp_trlrn","Tue Mar 14 2023 22:04:49 GMT-0400 (Eastern Daylight Time)","607255","Untrustworthy,Trustworthy","","","","decision","","","1139","","<div class='trialDiv'><img src='trustrating_stim/white_00807_941205_fb_edt.bmp'><br><font class='baseline'><strong>Gavin</strong><p>Choose number of points to send.</font><div class='respPicDiv'><img src='img/responseButtonOffersNo0L.png' class='respPic'></div></div>","2","6","Gavin","4","Kept","0.35,0.8","13","0.35","trustrating_stim/white_00807_941205_fb_edt.bmp","5","79","16"
"html-keyboard-response","183","320211","0.0-19.0-2.15","5d1b0776e1c05200018b582d","bdp_trlrn","Tue Mar 14 2023 22:04:49 GMT-0400 (Eastern Daylight Time)","607255","Untrustworthy,Trustworthy","","","","decisionFB","","","null","","<div class='trialDiv'><img src='trustrating_stim/white_00807_941205_fb_edt.bmp'><br><font class='baseline'><strong>Gavin</strong><p>Choose number of points to send.</font><div class='respPicDiv'><img src='img/responseButtonOffersNo0L2.png' class='respPic'></div></div>","null","6","Gavin","4","Kept","0.35,0.8","13","0.35","trustrating_stim/white_00807_941205_fb_edt.bmp","5","77","16"
"html-keyboard-response","184","321216","0.0-19.0-3.15","5d1b0776e1c05200018b582d","bdp_trlrn","Tue Mar 14 2023 22:04:49 GMT-0400 (Eastern Daylight Time)","607255","Untrustworthy,Trustworthy","","","","feedback","","","null","","<div class='trialDiv'><img src='trustrating_stim/white_00807_941205_fb_edt.bmp'><br><font class='baseline'><strong>Gavin</strong><p>Received: <strong>8</strong></font> &nbsp; &nbsp; &nbsp; &nbsp; &nbsp; &nbsp;<font class='negOutcome'>Shared back: <strong>0</strong></font></font><div class='respPicDiv'><img src='img/responseButtonOffersNo0_wht.png' class='respPic'></div></div>","null","6","Gavin","4","Kept","0.35,0.8","13","0.35","trustrating_stim/white_00807_941205_fb_edt.bmp","5","77","16"
"html-keyboard-response","185","321991","0.0-19.0-1.16","5d1b0776e1c05200018b582d","bdp_trlrn","Tue Mar 14 2023 22:04:49 GMT-0400 (Eastern Daylight Time)","607255","Untrustworthy,Trustworthy","","","","decision","","","770","","<div class='trialDiv'><img src='trustrating_stim/white_00109_931230_fa_edt.bmp'><br><font class='baseline'><strong>Ethan</strong><p>Choose number of points to send.</font><div class='respPicDiv'><img src='img/responseButtonOffersNo0L.png' class='respPic'></div></div>","1","6","Ethan","9","Shared","0.35,0.65","9","0.35","trustrating_stim/white_00109_931230_fa_edt.bmp","6.5","82","17"
"html-keyboard-response","186","322245","0.0-19.0-2.16","5d1b0776e1c05200018b582d","bdp_trlrn","Tue Mar 14 2023 22:04:49 GMT-0400 (Eastern Daylight Time)","607255","Untrustworthy,Trustworthy","","","","decisionFB","","","null","","<div class='trialDiv'><img src='trustrating_stim/white_00109_931230_fa_edt.bmp'><br><font class='baseline'><strong>Ethan</strong><p>Choose number of points to send.</font><div class='respPicDiv'><img src='img/responseButtonOffersNo0L1.png' class='respPic'></div></div>","null","6","Ethan","9","Shared","0.35,0.65","9","0.35","trustrating_stim/white_00109_931230_fa_edt.bmp","6.5","81","17"
"html-keyboard-response","187","323251","0.0-19.0-3.16","5d1b0776e1c05200018b582d","bdp_trlrn","Tue Mar 14 2023 22:04:49 GMT-0400 (Eastern Daylight Time)","607255","Untrustworthy,Trustworthy","","","","feedback","","","null","","<div class='trialDiv'><img src='trustrating_stim/white_00109_931230_fa_edt.bmp'><br><font class='baseline'><strong>Ethan</strong><p>Received: <strong>4</strong></font> &nbsp; &nbsp; &nbsp; &nbsp; &nbsp; &nbsp;<font class='posOutcome'>Shared back: <strong>2</strong></font></font><div class='respPicDiv'><img src='img/responseButtonOffersNo0_wht.png' class='respPic'></div></div>","null","6","Ethan","9","Shared","0.35,0.65","9","0.35","trustrating_stim/white_00109_931230_fa_edt.bmp","6.5","83","17"
"html-keyboard-response","188","324075","0.0-19.0-1.17","5d1b0776e1c05200018b582d","bdp_trlrn","Tue Mar 14 2023 22:04:49 GMT-0400 (Eastern Daylight Time)","607255","Untrustworthy,Trustworthy","","","","decision","","","822","","<div class='trialDiv'><img src='trustrating_stim/white_00340_940422_fa_edt.bmp'><br><font class='baseline'><strong>Benjamin</strong><p>Choose number of points to send.</font><div class='respPicDiv'><img src='img/responseButtonOffersNo0L.png' class='respPic'></div></div>","1","6","Benjamin","1","Shared","0.8,0.35","10","0.8","trustrating_stim/white_00340_940422_fa_edt.bmp","4","88","18"
"html-keyboard-response","189","324331","0.0-19.0-2.17","5d1b0776e1c05200018b582d","bdp_trlrn","Tue Mar 14 2023 22:04:49 GMT-0400 (Eastern Daylight Time)","607255","Untrustworthy,Trustworthy","","","","decisionFB","","","null","","<div class='trialDiv'><img src='trustrating_stim/white_00340_940422_fa_edt.bmp'><br><font class='baseline'><strong>Benjamin</strong><p>Choose number of points to send.</font><div class='respPicDiv'><img src='img/responseButtonOffersNo0L1.png' class='respPic'></div></div>","null","6","Benjamin","1","Shared","0.8,0.35","10","0.8","trustrating_stim/white_00340_940422_fa_edt.bmp","4","87","18"
"html-keyboard-response","190","325338","0.0-19.0-3.17","5d1b0776e1c05200018b582d","bdp_trlrn","Tue Mar 14 2023 22:04:49 GMT-0400 (Eastern Daylight Time)","607255","Untrustworthy,Trustworthy","","","","feedback","","","null","","<div class='trialDiv'><img src='trustrating_stim/white_00340_940422_fa_edt.bmp'><br><font class='baseline'><strong>Benjamin</strong><p>Received: <strong>4</strong></font> &nbsp; &nbsp; &nbsp; &nbsp; &nbsp; &nbsp;<font class='posOutcome'>Shared back: <strong>2</strong></font></font><div class='respPicDiv'><img src='img/responseButtonOffersNo0_wht.png' class='respPic'></div></div>","null","6","Benjamin","1","Shared","0.8,0.35","10","0.8","trustrating_stim/white_00340_940422_fa_edt.bmp","4","89","18"
"html-keyboard-response","191","326537","0.0-19.0-1.18","5d1b0776e1c05200018b582d","bdp_trlrn","Tue Mar 14 2023 22:04:49 GMT-0400 (Eastern Daylight Time)","607255","Untrustworthy,Trustworthy","","","","decision","","","1191","","<div class='trialDiv'><img src='trustrating_stim/white_00807_941205_fb_edt.bmp'><br><font class='baseline'><strong>Gavin</strong><p>Choose number of points to send.</font><div class='respPicDiv'><img src='img/responseButtonOffersNo0L.png' class='respPic'></div></div>","2","7","Gavin","4","Shared","0.35,0.8","13","0.35","trustrating_stim/white_00807_941205_fb_edt.bmp","5","94","19"
"html-keyboard-response","192","326796","0.0-19.0-2.18","5d1b0776e1c05200018b582d","bdp_trlrn","Tue Mar 14 2023 22:04:49 GMT-0400 (Eastern Daylight Time)","607255","Untrustworthy,Trustworthy","","","","decisionFB","","","null","","<div class='trialDiv'><img src='trustrating_stim/white_00807_941205_fb_edt.bmp'><br><font class='baseline'><strong>Gavin</strong><p>Choose number of points to send.</font><div class='respPicDiv'><img src='img/responseButtonOffersNo0L2.png' class='respPic'></div></div>","null","7","Gavin","4","Shared","0.35,0.8","13","0.35","trustrating_stim/white_00807_941205_fb_edt.bmp","5","92","19"
"html-keyboard-response","193","327800","0.0-19.0-3.18","5d1b0776e1c05200018b582d","bdp_trlrn","Tue Mar 14 2023 22:04:49 GMT-0400 (Eastern Daylight Time)","607255","Untrustworthy,Trustworthy","","","","feedback","","","null","","<div class='trialDiv'><img src='trustrating_stim/white_00807_941205_fb_edt.bmp'><br><font class='baseline'><strong>Gavin</strong><p>Received: <strong>8</strong></font> &nbsp; &nbsp; &nbsp; &nbsp; &nbsp; &nbsp;<font class='posOutcome'>Shared back: <strong>4</strong></font></font><div class='respPicDiv'><img src='img/responseButtonOffersNo0_wht.png' class='respPic'></div></div>","null","7","Gavin","4","Shared","0.35,0.8","13","0.35","trustrating_stim/white_00807_941205_fb_edt.bmp","5","96","19"
"html-keyboard-response","194","328832","0.0-19.0-1.19","5d1b0776e1c05200018b582d","bdp_trlrn","Tue Mar 14 2023 22:04:49 GMT-0400 (Eastern Daylight Time)","607255","Untrustworthy,Trustworthy","","","","decision","","","1029","","<div class='trialDiv'><img src='trustrating_stim/white_00109_931230_fa_edt.bmp'><br><font class='baseline'><strong>Ethan</strong><p>Choose number of points to send.</font><div class='respPicDiv'><img src='img/responseButtonOffersNo0L.png' class='respPic'></div></div>","2","7","Ethan","9","Shared","0.35,0.65","9","0.35","trustrating_stim/white_00109_931230_fa_edt.bmp","6.5","101","20"
"html-keyboard-response","195","329090","0.0-19.0-2.19","5d1b0776e1c05200018b582d","bdp_trlrn","Tue Mar 14 2023 22:04:49 GMT-0400 (Eastern Daylight Time)","607255","Untrustworthy,Trustworthy","","","","decisionFB","","","null","","<div class='trialDiv'><img src='trustrating_stim/white_00109_931230_fa_edt.bmp'><br><font class='baseline'><strong>Ethan</strong><p>Choose number of points to send.</font><div class='respPicDiv'><img src='img/responseButtonOffersNo0L2.png' class='respPic'></div></div>","null","7","Ethan","9","Shared","0.35,0.65","9","0.35","trustrating_stim/white_00109_931230_fa_edt.bmp","6.5","99","20"
"html-keyboard-response","196","330095","0.0-19.0-3.19","5d1b0776e1c05200018b582d","bdp_trlrn","Tue Mar 14 2023 22:04:49 GMT-0400 (Eastern Daylight Time)","607255","Untrustworthy,Trustworthy","","","","feedback","","","null","","<div class='trialDiv'><img src='trustrating_stim/white_00109_931230_fa_edt.bmp'><br><font class='baseline'><strong>Ethan</strong><p>Received: <strong>8</strong></font> &nbsp; &nbsp; &nbsp; &nbsp; &nbsp; &nbsp;<font class='posOutcome'>Shared back: <strong>4</strong></font></font><div class='respPicDiv'><img src='img/responseButtonOffersNo0_wht.png' class='respPic'></div></div>","null","7","Ethan","9","Shared","0.35,0.65","9","0.35","trustrating_stim/white_00109_931230_fa_edt.bmp","6.5","103","20"
"html-keyboard-response","197","331018","0.0-19.0-1.20","5d1b0776e1c05200018b582d","bdp_trlrn","Tue Mar 14 2023 22:04:49 GMT-0400 (Eastern Daylight Time)","607255","Untrustworthy,Trustworthy","","","","decision","","","916","","<div class='trialDiv'><img src='trustrating_stim/white_00340_940422_fa_edt.bmp'><br><font class='baseline'><strong>Benjamin</strong><p>Choose number of points to send.</font><div class='respPicDiv'><img src='img/responseButtonOffersNo0L.png' class='respPic'></div></div>","1","7","Benjamin","1","Kept","0.8,0.35","10","0.8","trustrating_stim/white_00340_940422_fa_edt.bmp","4","108","21"
"html-keyboard-response","198","331272","0.0-19.0-2.20","5d1b0776e1c05200018b582d","bdp_trlrn","Tue Mar 14 2023 22:04:49 GMT-0400 (Eastern Daylight Time)","607255","Untrustworthy,Trustworthy","","","","decisionFB","","","null","","<div class='trialDiv'><img src='trustrating_stim/white_00340_940422_fa_edt.bmp'><br><font class='baseline'><strong>Benjamin</strong><p>Choose number of points to send.</font><div class='respPicDiv'><img src='img/responseButtonOffersNo0L1.png' class='respPic'></div></div>","null","7","Benjamin","1","Kept","0.8,0.35","10","0.8","trustrating_stim/white_00340_940422_fa_edt.bmp","4","107","21"
"html-keyboard-response","199","332276","0.0-19.0-3.20","5d1b0776e1c05200018b582d","bdp_trlrn","Tue Mar 14 2023 22:04:49 GMT-0400 (Eastern Daylight Time)","607255","Untrustworthy,Trustworthy","","","","feedback","","","null","","<div class='trialDiv'><img src='trustrating_stim/white_00340_940422_fa_edt.bmp'><br><font class='baseline'><strong>Benjamin</strong><p>Received: <strong>4</strong></font> &nbsp; &nbsp; &nbsp; &nbsp; &nbsp; &nbsp;<font class='negOutcome'>Shared back: <strong>0</strong></font></font><div class='respPicDiv'><img src='img/responseButtonOffersNo0_wht.png' class='respPic'></div></div>","null","7","Benjamin","1","Kept","0.8,0.35","10","0.8","trustrating_stim/white_00340_940422_fa_edt.bmp","4","107","21"
"html-keyboard-response","200","333267","0.0-19.0-1.21","5d1b0776e1c05200018b582d","bdp_trlrn","Tue Mar 14 2023 22:04:49 GMT-0400 (Eastern Daylight Time)","607255","Untrustworthy,Trustworthy","","","","decision","","","984","","<div class='trialDiv'><img src='trustrating_stim/white_00807_941205_fb_edt.bmp'><br><font class='baseline'><strong>Gavin</strong><p>Choose number of points to send.</font><div class='respPicDiv'><img src='img/responseButtonOffersNo0L.png' class='respPic'></div></div>","2","8","Gavin","4","Kept","0.35,0.8","13","0.35","trustrating_stim/white_00807_941205_fb_edt.bmp","5","112","22"
"html-keyboard-response","201","333522","0.0-19.0-2.21","5d1b0776e1c05200018b582d","bdp_trlrn","Tue Mar 14 2023 22:04:49 GMT-0400 (Eastern Daylight Time)","607255","Untrustworthy,Trustworthy","","","","decisionFB","","","null","","<div class='trialDiv'><img src='trustrating_stim/white_00807_941205_fb_edt.bmp'><br><font class='baseline'><strong>Gavin</strong><p>Choose number of points to send.</font><div class='respPicDiv'><img src='img/responseButtonOffersNo0L2.png' class='respPic'></div></div>","null","8","Gavin","4","Kept","0.35,0.8","13","0.35","trustrating_stim/white_00807_941205_fb_edt.bmp","5","110","22"
"html-keyboard-response","202","334529","0.0-19.0-3.21","5d1b0776e1c05200018b582d","bdp_trlrn","Tue Mar 14 2023 22:04:49 GMT-0400 (Eastern Daylight Time)","607255","Untrustworthy,Trustworthy","","","","feedback","","","null","","<div class='trialDiv'><img src='trustrating_stim/white_00807_941205_fb_edt.bmp'><br><font class='baseline'><strong>Gavin</strong><p>Received: <strong>8</strong></font> &nbsp; &nbsp; &nbsp; &nbsp; &nbsp; &nbsp;<font class='negOutcome'>Shared back: <strong>0</strong></font></font><div class='respPicDiv'><img src='img/responseButtonOffersNo0_wht.png' class='respPic'></div></div>","null","8","Gavin","4","Kept","0.35,0.8","13","0.35","trustrating_stim/white_00807_941205_fb_edt.bmp","5","110","22"
"html-keyboard-response","203","335444","0.0-19.0-1.22","5d1b0776e1c05200018b582d","bdp_trlrn","Tue Mar 14 2023 22:04:49 GMT-0400 (Eastern Daylight Time)","607255","Untrustworthy,Trustworthy","","","","decision","","","909","","<div class='trialDiv'><img src='trustrating_stim/white_00109_931230_fa_edt.bmp'><br><font class='baseline'><strong>Ethan</strong><p>Choose number of points to send.</font><div class='respPicDiv'><img src='img/responseButtonOffersNo0L.png' class='respPic'></div></div>","2","8","Ethan","9","Kept","0.35,0.65","9","0.35","trustrating_stim/white_00109_931230_fa_edt.bmp","6.5","115","23"
"html-keyboard-response","204","335705","0.0-19.0-2.22","5d1b0776e1c05200018b582d","bdp_trlrn","Tue Mar 14 2023 22:04:49 GMT-0400 (Eastern Daylight Time)","607255","Untrustworthy,Trustworthy","","","","decisionFB","","","null","","<div class='trialDiv'><img src='trustrating_stim/white_00109_931230_fa_edt.bmp'><br><font class='baseline'><strong>Ethan</strong><p>Choose number of points to send.</font><div class='respPicDiv'><img src='img/responseButtonOffersNo0L2.png' class='respPic'></div></div>","null","8","Ethan","9","Kept","0.35,0.65","9","0.35","trustrating_stim/white_00109_931230_fa_edt.bmp","6.5","113","23"
"html-keyboard-response","205","336711","0.0-19.0-3.22","5d1b0776e1c05200018b582d","bdp_trlrn","Tue Mar 14 2023 22:04:49 GMT-0400 (Eastern Daylight Time)","607255","Untrustworthy,Trustworthy","","","","feedback","","","null","","<div class='trialDiv'><img src='trustrating_stim/white_00109_931230_fa_edt.bmp'><br><font class='baseline'><strong>Ethan</strong><p>Received: <strong>8</strong></font> &nbsp; &nbsp; &nbsp; &nbsp; &nbsp; &nbsp;<font class='negOutcome'>Shared back: <strong>0</strong></font></font><div class='respPicDiv'><img src='img/responseButtonOffersNo0_wht.png' class='respPic'></div></div>","null","8","Ethan","9","Kept","0.35,0.65","9","0.35","trustrating_stim/white_00109_931230_fa_edt.bmp","6.5","113","23"
"html-keyboard-response","206","337422","0.0-19.0-1.23","5d1b0776e1c05200018b582d","bdp_trlrn","Tue Mar 14 2023 22:04:49 GMT-0400 (Eastern Daylight Time)","607255","Untrustworthy,Trustworthy","","","","decision","","","705","","<div class='trialDiv'><img src='trustrating_stim/white_00340_940422_fa_edt.bmp'><br><font class='baseline'><strong>Benjamin</strong><p>Choose number of points to send.</font><div class='respPicDiv'><img src='img/responseButtonOffersNo0L.png' class='respPic'></div></div>","1","8","Benjamin","1","Shared","0.8,0.35","10","0.8","trustrating_stim/white_00340_940422_fa_edt.bmp","4","118","24"
"html-keyboard-response","207","337676","0.0-19.0-2.23","5d1b0776e1c05200018b582d","bdp_trlrn","Tue Mar 14 2023 22:04:49 GMT-0400 (Eastern Daylight Time)","607255","Untrustworthy,Trustworthy","","","","decisionFB","","","null","","<div class='trialDiv'><img src='trustrating_stim/white_00340_940422_fa_edt.bmp'><br><font class='baseline'><strong>Benjamin</strong><p>Choose number of points to send.</font><div class='respPicDiv'><img src='img/responseButtonOffersNo0L1.png' class='respPic'></div></div>","null","8","Benjamin","1","Shared","0.8,0.35","10","0.8","trustrating_stim/white_00340_940422_fa_edt.bmp","4","117","24"
"html-keyboard-response","208","338679","0.0-19.0-3.23","5d1b0776e1c05200018b582d","bdp_trlrn","Tue Mar 14 2023 22:04:49 GMT-0400 (Eastern Daylight Time)","607255","Untrustworthy,Trustworthy","","","","feedback","","","null","","<div class='trialDiv'><img src='trustrating_stim/white_00340_940422_fa_edt.bmp'><br><font class='baseline'><strong>Benjamin</strong><p>Received: <strong>4</strong></font> &nbsp; &nbsp; &nbsp; &nbsp; &nbsp; &nbsp;<font class='posOutcome'>Shared back: <strong>2</strong></font></font><div class='respPicDiv'><img src='img/responseButtonOffersNo0_wht.png' class='respPic'></div></div>","null","8","Benjamin","1","Shared","0.8,0.35","10","0.8","trustrating_stim/white_00340_940422_fa_edt.bmp","4","119","24"
"html-keyboard-response","209","339514","0.0-19.0-1.24","5d1b0776e1c05200018b582d","bdp_trlrn","Tue Mar 14 2023 22:04:49 GMT-0400 (Eastern Daylight Time)","607255","Untrustworthy,Trustworthy","","","","decision","","","831","","<div class='trialDiv'><img src='trustrating_stim/white_00109_931230_fa_edt.bmp'><br><font class='baseline'><strong>Ethan</strong><p>Choose number of points to send.</font><div class='respPicDiv'><img src='img/responseButtonOffersNo0L.png' class='respPic'></div></div>","2","9","Ethan","9","Shared","0.35,0.65","9","0.35","trustrating_stim/white_00109_931230_fa_edt.bmp","6.5","124","25"
"html-keyboard-response","210","339769","0.0-19.0-2.24","5d1b0776e1c05200018b582d","bdp_trlrn","Tue Mar 14 2023 22:04:49 GMT-0400 (Eastern Daylight Time)","607255","Untrustworthy,Trustworthy","","","","decisionFB","","","null","","<div class='trialDiv'><img src='trustrating_stim/white_00109_931230_fa_edt.bmp'><br><font class='baseline'><strong>Ethan</strong><p>Choose number of points to send.</font><div class='respPicDiv'><img src='img/responseButtonOffersNo0L2.png' class='respPic'></div></div>","null","9","Ethan","9","Shared","0.35,0.65","9","0.35","trustrating_stim/white_00109_931230_fa_edt.bmp","6.5","122","25"
"html-keyboard-response","211","340773","0.0-19.0-3.24","5d1b0776e1c05200018b582d","bdp_trlrn","Tue Mar 14 2023 22:04:49 GMT-0400 (Eastern Daylight Time)","607255","Untrustworthy,Trustworthy","","","","feedback","","","null","","<div class='trialDiv'><img src='trustrating_stim/white_00109_931230_fa_edt.bmp'><br><font class='baseline'><strong>Ethan</strong><p>Received: <strong>8</strong></font> &nbsp; &nbsp; &nbsp; &nbsp; &nbsp; &nbsp;<font class='posOutcome'>Shared back: <strong>4</strong></font></font><div class='respPicDiv'><img src='img/responseButtonOffersNo0_wht.png' class='respPic'></div></div>","null","9","Ethan","9","Shared","0.35,0.65","9","0.35","trustrating_stim/white_00109_931230_fa_edt.bmp","6.5","126","25"
"html-keyboard-response","212","341886","0.0-19.0-1.25","5d1b0776e1c05200018b582d","bdp_trlrn","Tue Mar 14 2023 22:04:49 GMT-0400 (Eastern Daylight Time)","607255","Untrustworthy,Trustworthy","","","","decision","","","1109","","<div class='trialDiv'><img src='trustrating_stim/white_00807_941205_fb_edt.bmp'><br><font class='baseline'><strong>Gavin</strong><p>Choose number of points to send.</font><div class='respPicDiv'><img src='img/responseButtonOffersNo0L.png' class='respPic'></div></div>","1","9","Gavin","4","Kept","0.35,0.8","13","0.35","trustrating_stim/white_00807_941205_fb_edt.bmp","5","131","26"
"html-keyboard-response","213","342143","0.0-19.0-2.25","5d1b0776e1c05200018b582d","bdp_trlrn","Tue Mar 14 2023 22:04:49 GMT-0400 (Eastern Daylight Time)","607255","Untrustworthy,Trustworthy","","","","decisionFB","","","null","","<div class='trialDiv'><img src='trustrating_stim/white_00807_941205_fb_edt.bmp'><br><font class='baseline'><strong>Gavin</strong><p>Choose number of points to send.</font><div class='respPicDiv'><img src='img/responseButtonOffersNo0L1.png' class='respPic'></div></div>","null","9","Gavin","4","Kept","0.35,0.8","13","0.35","trustrating_stim/white_00807_941205_fb_edt.bmp","5","130","26"
"html-keyboard-response","214","343149","0.0-19.0-3.25","5d1b0776e1c05200018b582d","bdp_trlrn","Tue Mar 14 2023 22:04:49 GMT-0400 (Eastern Daylight Time)","607255","Untrustworthy,Trustworthy","","","","feedback","","","null","","<div class='trialDiv'><img src='trustrating_stim/white_00807_941205_fb_edt.bmp'><br><font class='baseline'><strong>Gavin</strong><p>Received: <strong>4</strong></font> &nbsp; &nbsp; &nbsp; &nbsp; &nbsp; &nbsp;<font class='negOutcome'>Shared back: <strong>0</strong></font></font><div class='respPicDiv'><img src='img/responseButtonOffersNo0_wht.png' class='respPic'></div></div>","null","9","Gavin","4","Kept","0.35,0.8","13","0.35","trustrating_stim/white_00807_941205_fb_edt.bmp","5","130","26"
"html-keyboard-response","215","343957","0.0-19.0-1.26","5d1b0776e1c05200018b582d","bdp_trlrn","Tue Mar 14 2023 22:04:49 GMT-0400 (Eastern Daylight Time)","607255","Untrustworthy,Trustworthy","","","","decision","","","802","","<div class='trialDiv'><img src='trustrating_stim/white_00340_940422_fa_edt.bmp'><br><font class='baseline'><strong>Benjamin</strong><p>Choose number of points to send.</font><div class='respPicDiv'><img src='img/responseButtonOffersNo0L.png' class='respPic'></div></div>","1","9","Benjamin","1","Shared","0.8,0.35","10","0.8","trustrating_stim/white_00340_940422_fa_edt.bmp","4","135","27"
"html-keyboard-response","216","344210","0.0-19.0-2.26","5d1b0776e1c05200018b582d","bdp_trlrn","Tue Mar 14 2023 22:04:49 GMT-0400 (Eastern Daylight Time)","607255","Untrustworthy,Trustworthy","","","","decisionFB","","","null","","<div class='trialDiv'><img src='trustrating_stim/white_00340_940422_fa_edt.bmp'><br><font class='baseline'><strong>Benjamin</strong><p>Choose number of points to send.</font><div class='respPicDiv'><img src='img/responseButtonOffersNo0L1.png' class='respPic'></div></div>","null","9","Benjamin","1","Shared","0.8,0.35","10","0.8","trustrating_stim/white_00340_940422_fa_edt.bmp","4","134","27"
