"event","trial","time","trialtype","subject_id","task","startTime","totalTime","labels","trial_type","trial_index","time_elapsed","internal_node_id","view_history","rt","success","stimulus","key_press","numBlurs","aground","name","faceID","outcome","agenttype","agentswpt","agentcurrpshare","face","avgRating","point_total","round"
"focus","0","0","focusevent","5f721a81ee2a860fe028a8a4","bdp_trlrn","Sat Apr 08 2023 08:31:44 GMT-0700 (Pacific Daylight Time)","685836","Untrustworthy,Trustworthy","","","","","","","","","","","","","","","","","","","","",""
"","","","","5f721a81ee2a860fe028a8a4","bdp_trlrn","Sat Apr 08 2023 08:31:44 GMT-0700 (Pacific Daylight Time)","685836","Untrustworthy,Trustworthy","pavlovia","0","5","0.0-0.0","","","","","","","","","","","","","","","","",""
"","","","","5f721a81ee2a860fe028a8a4","bdp_trlrn","Sat Apr 08 2023 08:31:44 GMT-0700 (Pacific Daylight Time)","685836","Untrustworthy,Trustworthy","instructions","1","6964","0.0-1.0","[{""page_index"":0,""viewing_time"":6958}]","6958","","","","","","","","","","","","","","",""
"fullscreenexit","2","11950","fullscreenexit","5f721a81ee2a860fe028a8a4","bdp_trlrn","Sat Apr 08 2023 08:31:44 GMT-0700 (Pacific Daylight Time)","685836","Untrustworthy,Trustworthy","","","","","","","","","","","","","","","","","","","","",""
"","","","","5f721a81ee2a860fe028a8a4","bdp_trlrn","Sat Apr 08 2023 08:31:44 GMT-0700 (Pacific Daylight Time)","685836","Untrustworthy,Trustworthy","fullscreen","2","12745","0.0-2.0","","","true","","","","","","","","","","","","","",""
"fullscreenexit","3","16274","fullscreenexit","5f721a81ee2a860fe028a8a4","bdp_trlrn","Sat Apr 08 2023 08:31:44 GMT-0700 (Pacific Daylight Time)","685836","Untrustworthy,Trustworthy","","","","","","","","","","","","","","","","","","","","",""
"","","","fullscreenfail","5f721a81ee2a860fe028a8a4","bdp_trlrn","Sat Apr 08 2023 08:31:44 GMT-0700 (Pacific Daylight Time)","685836","Untrustworthy,Trustworthy","image-keyboard-response","3","16692","0.0-3.0-0.0","","3945","","","32","","","","","","","","","","","",""
"blur","4","20671","blurevent","5f721a81ee2a860fe028a8a4","bdp_trlrn","Sat Apr 08 2023 08:31:44 GMT-0700 (Pacific Daylight Time)","685836","Untrustworthy,Trustworthy","","","","","","","","","","1","","","","","","","","","","",""
"focus","4","21850","focusevent","5f721a81ee2a860fe028a8a4","bdp_trlrn","Sat Apr 08 2023 08:31:44 GMT-0700 (Pacific Daylight Time)","685836","Untrustworthy,Trustworthy","","","","","","","","","","","","","","","","","","","","",""
"","","","","5f721a81ee2a860fe028a8a4","bdp_trlrn","Sat Apr 08 2023 08:31:44 GMT-0700 (Pacific Daylight Time)","685836","Untrustworthy,Trustworthy","instructions","4","33507","0.0-4.0","[{""page_index"":0,""viewing_time"":15109},{""page_index"":1,""viewing_time"":1456}]","16565","","","","","","","","","","","","","","",""
"","","","","5f721a81ee2a860fe028a8a4","bdp_trlrn","Sat Apr 08 2023 08:31:44 GMT-0700 (Pacific Daylight Time)","685836","Untrustworthy,Trustworthy","instructions","5","34516","0.0-5.0","[{""page_index"":0,""viewing_time"":1007}]","1007","","","","","","","","","","","","","","",""
"","","","rating","5f721a81ee2a860fe028a8a4","bdp_trlrn","Sat Apr 08 2023 08:31:44 GMT-0700 (Pacific Daylight Time)","685836","Untrustworthy,Trustworthy","image-keyboard-response","6","44787","0.0-6.0-1.0","","10168","","trustrating_stim/white_00659_941121_fa_edt.bmp","5","","","","","","","","","","","",""
"","","","ratingFB","5f721a81ee2a860fe028a8a4","bdp_trlrn","Sat Apr 08 2023 08:31:44 GMT-0700 (Pacific Daylight Time)","685836","Untrustworthy,Trustworthy","image-keyboard-response","7","44996","0.0-6.0-2.0","","null","","trustrating_stim/white_00659_941121_fa_edt.bmp","null","","","","","","","","","","","",""
"","","","rating","5f721a81ee2a860fe028a8a4","bdp_trlrn","Sat Apr 08 2023 08:31:44 GMT-0700 (Pacific Daylight Time)","685836","Untrustworthy,Trustworthy","image-keyboard-response","8","49491","0.0-6.0-1.1","","4385","","trustrating_stim/white_00129_931230_fb_edt.bmp","6","","","","","","","","","","","",""
"","","","ratingFB","5f721a81ee2a860fe028a8a4","bdp_trlrn","Sat Apr 08 2023 08:31:44 GMT-0700 (Pacific Daylight Time)","685836","Untrustworthy,Trustworthy","image-keyboard-response","9","49693","0.0-6.0-2.1","","null","","trustrating_stim/white_00129_931230_fb_edt.bmp","null","","","","","","","","","","","",""
"","","","rating","5f721a81ee2a860fe028a8a4","bdp_trlrn","Sat Apr 08 2023 08:31:44 GMT-0700 (Pacific Daylight Time)","685836","Untrustworthy,Trustworthy","image-keyboard-response","10","51123","0.0-6.0-1.2","","1319","","trustrating_stim/white_00898_960530_fa_edt.bmp","5","","","","","","","","","","","",""
"","","","ratingFB","5f721a81ee2a860fe028a8a4","bdp_trlrn","Sat Apr 08 2023 08:31:44 GMT-0700 (Pacific Daylight Time)","685836","Untrustworthy,Trustworthy","image-keyboard-response","11","51330","0.0-6.0-2.2","","null","","trustrating_stim/white_00898_960530_fa_edt.bmp","null","","","","","","","","","","","",""
"","","","rating","5f721a81ee2a860fe028a8a4","bdp_trlrn","Sat Apr 08 2023 08:31:44 GMT-0700 (Pacific Daylight Time)","685836","Untrustworthy,Trustworthy","image-keyboard-response","12","53571","0.0-6.0-1.3","","2130","","trustrating_stim/white_mw060.bmp","4","","","","","","","","","","","",""
"","","","ratingFB","5f721a81ee2a860fe028a8a4","bdp_trlrn","Sat Apr 08 2023 08:31:44 GMT-0700 (Pacific Daylight Time)","685836","Untrustworthy,Trustworthy","image-keyboard-response","13","53773","0.0-6.0-2.3","","null","","trustrating_stim/white_mw060.bmp","null","","","","","","","","","","","",""
"","","","rating","5f721a81ee2a860fe028a8a4","bdp_trlrn","Sat Apr 08 2023 08:31:44 GMT-0700 (Pacific Daylight Time)","685836","Untrustworthy,Trustworthy","image-keyboard-response","14","57011","0.0-6.0-1.4","","3127","","trustrating_stim/white_mw035.bmp","6","","","","","","","","","","","",""
"","","","ratingFB","5f721a81ee2a860fe028a8a4","bdp_trlrn","Sat Apr 08 2023 08:31:44 GMT-0700 (Pacific Daylight Time)","685836","Untrustworthy,Trustworthy","image-keyboard-response","15","57220","0.0-6.0-2.4","","null","","trustrating_stim/white_mw035.bmp","null","","","","","","","","","","","",""
"","","","rating","5f721a81ee2a860fe028a8a4","bdp_trlrn","Sat Apr 08 2023 08:31:44 GMT-0700 (Pacific Daylight Time)","685836","Untrustworthy,Trustworthy","image-keyboard-response","16","59363","0.0-6.0-1.5","","2031","","trustrating_stim/white_mw066.bmp","7","","","","","","","","","","","",""
"","","","ratingFB","5f721a81ee2a860fe028a8a4","bdp_trlrn","Sat Apr 08 2023 08:31:44 GMT-0700 (Pacific Daylight Time)","685836","Untrustworthy,Trustworthy","image-keyboard-response","17","59580","0.0-6.0-2.5","","null","","trustrating_stim/white_mw066.bmp","null","","","","","","","","","","","",""
"","","","rating","5f721a81ee2a860fe028a8a4","bdp_trlrn","Sat Apr 08 2023 08:31:44 GMT-0700 (Pacific Daylight Time)","685836","Untrustworthy,Trustworthy","image-keyboard-response","18","61699","0.0-6.0-1.6","","2008","","trustrating_stim/white_00807_941205_fb_edt.bmp","4","","","","","","","","","","","",""
"","","","ratingFB","5f721a81ee2a860fe028a8a4","bdp_trlrn","Sat Apr 08 2023 08:31:44 GMT-0700 (Pacific Daylight Time)","685836","Untrustworthy,Trustworthy","image-keyboard-response","19","61904","0.0-6.0-2.6","","null","","trustrating_stim/white_00807_941205_fb_edt.bmp","null","","","","","","","","","","","",""
"","","","rating","5f721a81ee2a860fe028a8a4","bdp_trlrn","Sat Apr 08 2023 08:31:44 GMT-0700 (Pacific Daylight Time)","685836","Untrustworthy,Trustworthy","image-keyboard-response","20","64243","0.0-6.0-1.7","","2230","","trustrating_stim/white_mw049.bmp","6","","","","","","","","","","","",""
"","","","ratingFB","5f721a81ee2a860fe028a8a4","bdp_trlrn","Sat Apr 08 2023 08:31:44 GMT-0700 (Pacific Daylight Time)","685836","Untrustworthy,Trustworthy","image-keyboard-response","21","64456","0.0-6.0-2.7","","null","","trustrating_stim/white_mw049.bmp","null","","","","","","","","","","","",""
"","","","rating","5f721a81ee2a860fe028a8a4","bdp_trlrn","Sat Apr 08 2023 08:31:44 GMT-0700 (Pacific Daylight Time)","685836","Untrustworthy,Trustworthy","image-keyboard-response","22","67283","0.0-6.0-1.8","","2715","","trustrating_stim/white_mw089.bmp","4","","","","","","","","","","","",""
"","","","ratingFB","5f721a81ee2a860fe028a8a4","bdp_trlrn","Sat Apr 08 2023 08:31:44 GMT-0700 (Pacific Daylight Time)","685836","Untrustworthy,Trustworthy","image-keyboard-response","23","67495","0.0-6.0-2.8","","null","","trustrating_stim/white_mw089.bmp","null","","","","","","","","","","","",""
"","","","rating","5f721a81ee2a860fe028a8a4","bdp_trlrn","Sat Apr 08 2023 08:31:44 GMT-0700 (Pacific Daylight Time)","685836","Untrustworthy,Trustworthy","image-keyboard-response","24","70995","0.0-6.0-1.9","","3390","","trustrating_stim/white_mw033.bmp","5","","","","","","","","","","","",""
"","","","ratingFB","5f721a81ee2a860fe028a8a4","bdp_trlrn","Sat Apr 08 2023 08:31:44 GMT-0700 (Pacific Daylight Time)","685836","Untrustworthy,Trustworthy","image-keyboard-response","25","71197","0.0-6.0-2.9","","null","","trustrating_stim/white_mw033.bmp","null","","","","","","","","","","","",""
"","","","rating","5f721a81ee2a860fe028a8a4","bdp_trlrn","Sat Apr 08 2023 08:31:44 GMT-0700 (Pacific Daylight Time)","685836","Untrustworthy,Trustworthy","image-keyboard-response","26","72868","0.0-6.0-1.10","","1561","","trustrating_stim/white_00299_940422_fa_edt.bmp","5","","","","","","","","","","","",""
"","","","ratingFB","5f721a81ee2a860fe028a8a4","bdp_trlrn","Sat Apr 08 2023 08:31:44 GMT-0700 (Pacific Daylight Time)","685836","Untrustworthy,Trustworthy","image-keyboard-response","27","73072","0.0-6.0-2.10","","null","","trustrating_stim/white_00299_940422_fa_edt.bmp","null","","","","","","","","","","","",""
"","","","rating","5f721a81ee2a860fe028a8a4","bdp_trlrn","Sat Apr 08 2023 08:31:44 GMT-0700 (Pacific Daylight Time)","685836","Untrustworthy,Trustworthy","image-keyboard-response","28","75923","0.0-6.0-1.11","","2739","","trustrating_stim/white_00223_940128_fb_edt.bmp","4","","","","","","","","","","","",""
"","","","ratingFB","5f721a81ee2a860fe028a8a4","bdp_trlrn","Sat Apr 08 2023 08:31:44 GMT-0700 (Pacific Daylight Time)","685836","Untrustworthy,Trustworthy","image-keyboard-response","29","76131","0.0-6.0-2.11","","null","","trustrating_stim/white_00223_940128_fb_edt.bmp","null","","","","","","","","","","","",""
"","","","rating","5f721a81ee2a860fe028a8a4","bdp_trlrn","Sat Apr 08 2023 08:31:44 GMT-0700 (Pacific Daylight Time)","685836","Untrustworthy,Trustworthy","image-keyboard-response","30","79252","0.0-6.0-1.12","","3010","","trustrating_stim/white_00757_941201_fa_edt.bmp","3","","","","","","","","","","","",""
"","","","ratingFB","5f721a81ee2a860fe028a8a4","bdp_trlrn","Sat Apr 08 2023 08:31:44 GMT-0700 (Pacific Daylight Time)","685836","Untrustworthy,Trustworthy","image-keyboard-response","31","79455","0.0-6.0-2.12","","null","","trustrating_stim/white_00757_941201_fa_edt.bmp","null","","","","","","","","","","","",""
"","","","rating","5f721a81ee2a860fe028a8a4","bdp_trlrn","Sat Apr 08 2023 08:31:44 GMT-0700 (Pacific Daylight Time)","685836","Untrustworthy,Trustworthy","image-keyboard-response","32","84755","0.0-6.0-1.13","","5189","","trustrating_stim/white_00577_940928_fa_edt.bmp","4","","","","","","","","","","","",""
"","","","ratingFB","5f721a81ee2a860fe028a8a4","bdp_trlrn","Sat Apr 08 2023 08:31:44 GMT-0700 (Pacific Daylight Time)","685836","Untrustworthy,Trustworthy","image-keyboard-response","33","84957","0.0-6.0-2.13","","null","","trustrating_stim/white_00577_940928_fa_edt.bmp","null","","","","","","","","","","","",""
"","","","rating","5f721a81ee2a860fe028a8a4","bdp_trlrn","Sat Apr 08 2023 08:31:44 GMT-0700 (Pacific Daylight Time)","685836","Untrustworthy,Trustworthy","image-keyboard-response","34","86355","0.0-6.0-1.14","","1289","","trustrating_stim/white_mw084.bmp","6","","","","","","","","","","","",""
"","","","ratingFB","5f721a81ee2a860fe028a8a4","bdp_trlrn","Sat Apr 08 2023 08:31:44 GMT-0700 (Pacific Daylight Time)","685836","Untrustworthy,Trustworthy","image-keyboard-response","35","86569","0.0-6.0-2.14","","null","","trustrating_stim/white_mw084.bmp","null","","","","","","","","","","","",""
"","","","rating","5f721a81ee2a860fe028a8a4","bdp_trlrn","Sat Apr 08 2023 08:31:44 GMT-0700 (Pacific Daylight Time)","685836","Untrustworthy,Trustworthy","image-keyboard-response","36","90323","0.0-6.0-1.15","","3642","","trustrating_stim/white_mw053.bmp","6","","","","","","","","","","","",""
"","","","ratingFB","5f721a81ee2a860fe028a8a4","bdp_trlrn","Sat Apr 08 2023 08:31:44 GMT-0700 (Pacific Daylight Time)","685836","Untrustworthy,Trustworthy","image-keyboard-response","37","90528","0.0-6.0-2.15","","null","","trustrating_stim/white_mw053.bmp","null","","","","","","","","","","","",""
"","","","rating","5f721a81ee2a860fe028a8a4","bdp_trlrn","Sat Apr 08 2023 08:31:44 GMT-0700 (Pacific Daylight Time)","685836","Untrustworthy,Trustworthy","image-keyboard-response","38","92563","0.0-6.0-1.16","","1924","","trustrating_stim/white_00340_940422_fa_edt.bmp","4","","","","","","","","","","","",""
"","","","ratingFB","5f721a81ee2a860fe028a8a4","bdp_trlrn","Sat Apr 08 2023 08:31:44 GMT-0700 (Pacific Daylight Time)","685836","Untrustworthy,Trustworthy","image-keyboard-response","39","92772","0.0-6.0-2.16","","null","","trustrating_stim/white_00340_940422_fa_edt.bmp","null","","","","","","","","","","","",""
"","","","rating","5f721a81ee2a860fe028a8a4","bdp_trlrn","Sat Apr 08 2023 08:31:44 GMT-0700 (Pacific Daylight Time)","685836","Untrustworthy,Trustworthy","image-keyboard-response","40","96946","0.0-6.0-1.17","","4064","","trustrating_stim/white_00109_931230_fa_edt.bmp","6","","","","","","","","","","","",""
"","","","ratingFB","5f721a81ee2a860fe028a8a4","bdp_trlrn","Sat Apr 08 2023 08:31:44 GMT-0700 (Pacific Daylight Time)","685836","Untrustworthy,Trustworthy","image-keyboard-response","41","97155","0.0-6.0-2.17","","null","","trustrating_stim/white_00109_931230_fa_edt.bmp","null","","","","","","","","","","","",""
"","","","rating","5f721a81ee2a860fe028a8a4","bdp_trlrn","Sat Apr 08 2023 08:31:44 GMT-0700 (Pacific Daylight Time)","685836","Untrustworthy,Trustworthy","image-keyboard-response","42","98275","0.0-6.0-1.18","","1009","","trustrating_stim/white_mw099.bmp","6","","","","","","","","","","","",""
"","","","ratingFB","5f721a81ee2a860fe028a8a4","bdp_trlrn","Sat Apr 08 2023 08:31:44 GMT-0700 (Pacific Daylight Time)","685836","Untrustworthy,Trustworthy","image-keyboard-response","43","98479","0.0-6.0-2.18","","null","","trustrating_stim/white_mw099.bmp","null","","","","","","","","","","","",""
"","","","rating","5f721a81ee2a860fe028a8a4","bdp_trlrn","Sat Apr 08 2023 08:31:44 GMT-0700 (Pacific Daylight Time)","685836","Untrustworthy,Trustworthy","image-keyboard-response","44","100514","0.0-6.0-1.19","","1923","","trustrating_stim/white_mw046.bmp","6","","","","","","","","","","","",""
"","","","ratingFB","5f721a81ee2a860fe028a8a4","bdp_trlrn","Sat Apr 08 2023 08:31:44 GMT-0700 (Pacific Daylight Time)","685836","Untrustworthy,Trustworthy","image-keyboard-response","45","100720","0.0-6.0-2.19","","null","","trustrating_stim/white_mw046.bmp","null","","","","","","","","","","","",""
"","","","rating","5f721a81ee2a860fe028a8a4","bdp_trlrn","Sat Apr 08 2023 08:31:44 GMT-0700 (Pacific Daylight Time)","685836","Untrustworthy,Trustworthy","image-keyboard-response","46","104307","0.0-6.0-1.20","","3476","","trustrating_stim/white_00120_931230_fa_edt.bmp","5","","","","","","","","","","","",""
"","","","ratingFB","5f721a81ee2a860fe028a8a4","bdp_trlrn","Sat Apr 08 2023 08:31:44 GMT-0700 (Pacific Daylight Time)","685836","Untrustworthy,Trustworthy","image-keyboard-response","47","104510","0.0-6.0-2.20","","null","","trustrating_stim/white_00120_931230_fa_edt.bmp","null","","","","","","","","","","","",""
"","","","rating","5f721a81ee2a860fe028a8a4","bdp_trlrn","Sat Apr 08 2023 08:31:44 GMT-0700 (Pacific Daylight Time)","685836","Untrustworthy,Trustworthy","image-keyboard-response","48","107395","0.0-6.0-1.21","","2774","","trustrating_stim/white_mw056.bmp","4","","","","","","","","","","","",""
"","","","ratingFB","5f721a81ee2a860fe028a8a4","bdp_trlrn","Sat Apr 08 2023 08:31:44 GMT-0700 (Pacific Daylight Time)","685836","Untrustworthy,Trustworthy","image-keyboard-response","49","107598","0.0-6.0-2.21","","null","","trustrating_stim/white_mw056.bmp","null","","","","","","","","","","","",""
"","","","rating","5f721a81ee2a860fe028a8a4","bdp_trlrn","Sat Apr 08 2023 08:31:44 GMT-0700 (Pacific Daylight Time)","685836","Untrustworthy,Trustworthy","image-keyboard-response","50","108739","0.0-6.0-1.22","","1029","","trustrating_stim/white_mw097.bmp","3","","","","","","","","","","","",""
"","","","ratingFB","5f721a81ee2a860fe028a8a4","bdp_trlrn","Sat Apr 08 2023 08:31:44 GMT-0700 (Pacific Daylight Time)","685836","Untrustworthy,Trustworthy","image-keyboard-response","51","108953","0.0-6.0-2.22","","null","","trustrating_stim/white_mw097.bmp","null","","","","","","","","","","","",""
"","","","rating","5f721a81ee2a860fe028a8a4","bdp_trlrn","Sat Apr 08 2023 08:31:44 GMT-0700 (Pacific Daylight Time)","685836","Untrustworthy,Trustworthy","image-keyboard-response","52","113043","0.0-6.0-1.23","","3979","","trustrating_stim/white_mw071.bmp","4","","","","","","","","","","","",""
"","","","ratingFB","5f721a81ee2a860fe028a8a4","bdp_trlrn","Sat Apr 08 2023 08:31:44 GMT-0700 (Pacific Daylight Time)","685836","Untrustworthy,Trustworthy","image-keyboard-response","53","113246","0.0-6.0-2.23","","null","","trustrating_stim/white_mw071.bmp","null","","","","","","","","","","","",""
"","","","rating","5f721a81ee2a860fe028a8a4","bdp_trlrn","Sat Apr 08 2023 08:31:44 GMT-0700 (Pacific Daylight Time)","685836","Untrustworthy,Trustworthy","image-keyboard-response","54","114867","0.0-6.0-1.24","","1511","","trustrating_stim/white_mw048.bmp","3","","","","","","","","","","","",""
"","","","ratingFB","5f721a81ee2a860fe028a8a4","bdp_trlrn","Sat Apr 08 2023 08:31:44 GMT-0700 (Pacific Daylight Time)","685836","Untrustworthy,Trustworthy","image-keyboard-response","55","115083","0.0-6.0-2.24","","null","","trustrating_stim/white_mw048.bmp","null","","","","","","","","","","","",""
"","","","rating","5f721a81ee2a860fe028a8a4","bdp_trlrn","Sat Apr 08 2023 08:31:44 GMT-0700 (Pacific Daylight Time)","685836","Untrustworthy,Trustworthy","image-keyboard-response","56","118115","0.0-6.0-1.25","","2923","","trustrating_stim/white_00602_940928_fb_edt.bmp","6","","","","","","","","","","","",""
"","","","ratingFB","5f721a81ee2a860fe028a8a4","bdp_trlrn","Sat Apr 08 2023 08:31:44 GMT-0700 (Pacific Daylight Time)","685836","Untrustworthy,Trustworthy","image-keyboard-response","57","118326","0.0-6.0-2.25","","null","","trustrating_stim/white_00602_940928_fb_edt.bmp","null","","","","","","","","","","","",""
"","","","rating","5f721a81ee2a860fe028a8a4","bdp_trlrn","Sat Apr 08 2023 08:31:44 GMT-0700 (Pacific Daylight Time)","685836","Untrustworthy,Trustworthy","image-keyboard-response","58","121251","0.0-6.0-1.26","","2814","","trustrating_stim/white_mw063.bmp","4","","","","","","","","","","","",""
"","","","ratingFB","5f721a81ee2a860fe028a8a4","bdp_trlrn","Sat Apr 08 2023 08:31:44 GMT-0700 (Pacific Daylight Time)","685836","Untrustworthy,Trustworthy","image-keyboard-response","59","121467","0.0-6.0-2.26","","null","","trustrating_stim/white_mw063.bmp","null","","","","","","","","","","","",""
"","","","rating","5f721a81ee2a860fe028a8a4","bdp_trlrn","Sat Apr 08 2023 08:31:44 GMT-0700 (Pacific Daylight Time)","685836","Untrustworthy,Trustworthy","image-keyboard-response","60","124979","0.0-6.0-1.27","","3403","","trustrating_stim/white_00785_941205_fb_edt.bmp","3","","","","","","","","","","","",""
"","","","ratingFB","5f721a81ee2a860fe028a8a4","bdp_trlrn","Sat Apr 08 2023 08:31:44 GMT-0700 (Pacific Daylight Time)","685836","Untrustworthy,Trustworthy","image-keyboard-response","61","125194","0.0-6.0-2.27","","null","","trustrating_stim/white_00785_941205_fb_edt.bmp","null","","","","","","","","","","","",""
"","","","rating","5f721a81ee2a860fe028a8a4","bdp_trlrn","Sat Apr 08 2023 08:31:44 GMT-0700 (Pacific Daylight Time)","685836","Untrustworthy,Trustworthy","image-keyboard-response","62","128803","0.0-6.0-1.28","","3496","","trustrating_stim/white_00761_941201_fb_edt.bmp","6","","","","","","","","","","","",""
"","","","ratingFB","5f721a81ee2a860fe028a8a4","bdp_trlrn","Sat Apr 08 2023 08:31:44 GMT-0700 (Pacific Daylight Time)","685836","Untrustworthy,Trustworthy","image-keyboard-response","63","129004","0.0-6.0-2.28","","null","","trustrating_stim/white_00761_941201_fb_edt.bmp","null","","","","","","","","","","","",""
"","","","rating","5f721a81ee2a860fe028a8a4","bdp_trlrn","Sat Apr 08 2023 08:31:44 GMT-0700 (Pacific Daylight Time)","685836","Untrustworthy,Trustworthy","image-keyboard-response","64","131539","0.0-6.0-1.29","","2425","","trustrating_stim/white_00519_940519_fb_edt.bmp","6","","","","","","","","","","","",""
"","","","ratingFB","5f721a81ee2a860fe028a8a4","bdp_trlrn","Sat Apr 08 2023 08:31:44 GMT-0700 (Pacific Daylight Time)","685836","Untrustworthy,Trustworthy","image-keyboard-response","65","131753","0.0-6.0-2.29","","null","","trustrating_stim/white_00519_940519_fb_edt.bmp","null","","","","","","","","","","","",""
"","","","rating","5f721a81ee2a860fe028a8a4","bdp_trlrn","Sat Apr 08 2023 08:31:44 GMT-0700 (Pacific Daylight Time)","685836","Untrustworthy,Trustworthy","image-keyboard-response","66","136291","0.0-6.0-1.30","","4427","","trustrating_stim/white_00602_940928_fb_edt.bmp","6","","","","","","","","","","","",""
"","","","ratingFB","5f721a81ee2a860fe028a8a4","bdp_trlrn","Sat Apr 08 2023 08:31:44 GMT-0700 (Pacific Daylight Time)","685836","Untrustworthy,Trustworthy","image-keyboard-response","67","136502","0.0-6.0-2.30","","null","","trustrating_stim/white_00602_940928_fb_edt.bmp","null","","","","","","","","","","","",""
"","","","rating","5f721a81ee2a860fe028a8a4","bdp_trlrn","Sat Apr 08 2023 08:31:44 GMT-0700 (Pacific Daylight Time)","685836","Untrustworthy,Trustworthy","image-keyboard-response","68","137939","0.0-6.0-1.31","","1327","","trustrating_stim/white_00519_940519_fb_edt.bmp","6","","","","","","","","","","","",""
"","","","ratingFB","5f721a81ee2a860fe028a8a4","bdp_trlrn","Sat Apr 08 2023 08:31:44 GMT-0700 (Pacific Daylight Time)","685836","Untrustworthy,Trustworthy","image-keyboard-response","69","138153","0.0-6.0-2.31","","null","","trustrating_stim/white_00519_940519_fb_edt.bmp","null","","","","","","","","","","","",""
"","","","rating","5f721a81ee2a860fe028a8a4","bdp_trlrn","Sat Apr 08 2023 08:31:44 GMT-0700 (Pacific Daylight Time)","685836","Untrustworthy,Trustworthy","image-keyboard-response","70","140147","0.0-6.0-1.32","","1885","","trustrating_stim/white_00109_931230_fa_edt.bmp","5","","","","","","","","","","","",""
"","","","ratingFB","5f721a81ee2a860fe028a8a4","bdp_trlrn","Sat Apr 08 2023 08:31:44 GMT-0700 (Pacific Daylight Time)","685836","Untrustworthy,Trustworthy","image-keyboard-response","71","140358","0.0-6.0-2.32","","null","","trustrating_stim/white_00109_931230_fa_edt.bmp","null","","","","","","","","","","","",""
"","","","rating","5f721a81ee2a860fe028a8a4","bdp_trlrn","Sat Apr 08 2023 08:31:44 GMT-0700 (Pacific Daylight Time)","685836","Untrustworthy,Trustworthy","image-keyboard-response","72","141731","0.0-6.0-1.33","","1265","","trustrating_stim/white_mw033.bmp","6","","","","","","","","","","","",""
"","","","ratingFB","5f721a81ee2a860fe028a8a4","bdp_trlrn","Sat Apr 08 2023 08:31:44 GMT-0700 (Pacific Daylight Time)","685836","Untrustworthy,Trustworthy","image-keyboard-response","73","141941","0.0-6.0-2.33","","null","","trustrating_stim/white_mw033.bmp","null","","","","","","","","","","","",""
"","","","rating","5f721a81ee2a860fe028a8a4","bdp_trlrn","Sat Apr 08 2023 08:31:44 GMT-0700 (Pacific Daylight Time)","685836","Untrustworthy,Trustworthy","image-keyboard-response","74","144899","0.0-6.0-1.34","","2848","","trustrating_stim/white_00577_940928_fa_edt.bmp","4","","","","","","","","","","","",""
"","","","ratingFB","5f721a81ee2a860fe028a8a4","bdp_trlrn","Sat Apr 08 2023 08:31:44 GMT-0700 (Pacific Daylight Time)","685836","Untrustworthy,Trustworthy","image-keyboard-response","75","145108","0.0-6.0-2.34","","null","","trustrating_stim/white_00577_940928_fa_edt.bmp","null","","","","","","","","","","","",""
"","","","rating","5f721a81ee2a860fe028a8a4","bdp_trlrn","Sat Apr 08 2023 08:31:44 GMT-0700 (Pacific Daylight Time)","685836","Untrustworthy,Trustworthy","image-keyboard-response","76","149379","0.0-6.0-1.35","","4159","","trustrating_stim/white_mw097.bmp","5","","","","","","","","","","","",""
"","","","ratingFB","5f721a81ee2a860fe028a8a4","bdp_trlrn","Sat Apr 08 2023 08:31:44 GMT-0700 (Pacific Daylight Time)","685836","Untrustworthy,Trustworthy","image-keyboard-response","77","149588","0.0-6.0-2.35","","null","","trustrating_stim/white_mw097.bmp","null","","","","","","","","","","","",""
"","","","rating","5f721a81ee2a860fe028a8a4","bdp_trlrn","Sat Apr 08 2023 08:31:44 GMT-0700 (Pacific Daylight Time)","685836","Untrustworthy,Trustworthy","image-keyboard-response","78","150771","0.0-6.0-1.36","","1072","","trustrating_stim/white_mw084.bmp","6","","","","","","","","","","","",""
"","","","ratingFB","5f721a81ee2a860fe028a8a4","bdp_trlrn","Sat Apr 08 2023 08:31:44 GMT-0700 (Pacific Daylight Time)","685836","Untrustworthy,Trustworthy","image-keyboard-response","79","150981","0.0-6.0-2.36","","null","","trustrating_stim/white_mw084.bmp","null","","","","","","","","","","","",""
"","","","rating","5f721a81ee2a860fe028a8a4","bdp_trlrn","Sat Apr 08 2023 08:31:44 GMT-0700 (Pacific Daylight Time)","685836","Untrustworthy,Trustworthy","image-keyboard-response","80","152611","0.0-6.0-1.37","","1520","","trustrating_stim/white_00223_940128_fb_edt.bmp","4","","","","","","","","","","","",""
"","","","ratingFB","5f721a81ee2a860fe028a8a4","bdp_trlrn","Sat Apr 08 2023 08:31:44 GMT-0700 (Pacific Daylight Time)","685836","Untrustworthy,Trustworthy","image-keyboard-response","81","152813","0.0-6.0-2.37","","null","","trustrating_stim/white_00223_940128_fb_edt.bmp","null","","","","","","","","","","","",""
"","","","rating","5f721a81ee2a860fe028a8a4","bdp_trlrn","Sat Apr 08 2023 08:31:44 GMT-0700 (Pacific Daylight Time)","685836","Untrustworthy,Trustworthy","image-keyboard-response","82","155363","0.0-6.0-1.38","","2440","","trustrating_stim/white_mw089.bmp","4","","","","","","","","","","","",""
"","","","ratingFB","5f721a81ee2a860fe028a8a4","bdp_trlrn","Sat Apr 08 2023 08:31:44 GMT-0700 (Pacific Daylight Time)","685836","Untrustworthy,Trustworthy","image-keyboard-response","83","155572","0.0-6.0-2.38","","null","","trustrating_stim/white_mw089.bmp","null","","","","","","","","","","","",""
"","","","rating","5f721a81ee2a860fe028a8a4","bdp_trlrn","Sat Apr 08 2023 08:31:44 GMT-0700 (Pacific Daylight Time)","685836","Untrustworthy,Trustworthy","image-keyboard-response","84","157780","0.0-6.0-1.39","","2098","","trustrating_stim/white_00340_940422_fa_edt.bmp","3","","","","","","","","","","","",""
"","","","ratingFB","5f721a81ee2a860fe028a8a4","bdp_trlrn","Sat Apr 08 2023 08:31:44 GMT-0700 (Pacific Daylight Time)","685836","Untrustworthy,Trustworthy","image-keyboard-response","85","157982","0.0-6.0-2.39","","null","","trustrating_stim/white_00340_940422_fa_edt.bmp","null","","","","","","","","","","","",""
"","","","rating","5f721a81ee2a860fe028a8a4","bdp_trlrn","Sat Apr 08 2023 08:31:44 GMT-0700 (Pacific Daylight Time)","685836","Untrustworthy,Trustworthy","image-keyboard-response","86","159411","0.0-6.0-1.40","","1318","","trustrating_stim/white_00757_941201_fa_edt.bmp","3","","","","","","","","","","","",""
"","","","ratingFB","5f721a81ee2a860fe028a8a4","bdp_trlrn","Sat Apr 08 2023 08:31:44 GMT-0700 (Pacific Daylight Time)","685836","Untrustworthy,Trustworthy","image-keyboard-response","87","159622","0.0-6.0-2.40","","null","","trustrating_stim/white_00757_941201_fa_edt.bmp","null","","","","","","","","","","","",""
"","","","rating","5f721a81ee2a860fe028a8a4","bdp_trlrn","Sat Apr 08 2023 08:31:44 GMT-0700 (Pacific Daylight Time)","685836","Untrustworthy,Trustworthy","image-keyboard-response","88","163011","0.0-6.0-1.41","","3277","","trustrating_stim/white_00785_941205_fb_edt.bmp","5","","","","","","","","","","","",""
"","","","ratingFB","5f721a81ee2a860fe028a8a4","bdp_trlrn","Sat Apr 08 2023 08:31:44 GMT-0700 (Pacific Daylight Time)","685836","Untrustworthy,Trustworthy","image-keyboard-response","89","163224","0.0-6.0-2.41","","null","","trustrating_stim/white_00785_941205_fb_edt.bmp","null","","","","","","","","","","","",""
"","","","rating","5f721a81ee2a860fe028a8a4","bdp_trlrn","Sat Apr 08 2023 08:31:44 GMT-0700 (Pacific Daylight Time)","685836","Untrustworthy,Trustworthy","image-keyboard-response","90","166835","0.0-6.0-1.42","","3498","","trustrating_stim/white_00120_931230_fa_edt.bmp","5","","","","","","","","","","","",""
"","","","ratingFB","5f721a81ee2a860fe028a8a4","bdp_trlrn","Sat Apr 08 2023 08:31:44 GMT-0700 (Pacific Daylight Time)","685836","Untrustworthy,Trustworthy","image-keyboard-response","91","167039","0.0-6.0-2.42","","null","","trustrating_stim/white_00120_931230_fa_edt.bmp","null","","","","","","","","","","","",""
"","","","rating","5f721a81ee2a860fe028a8a4","bdp_trlrn","Sat Apr 08 2023 08:31:44 GMT-0700 (Pacific Daylight Time)","685836","Untrustworthy,Trustworthy","image-keyboard-response","92","170323","0.0-6.0-1.43","","3174","","trustrating_stim/white_00299_940422_fa_edt.bmp","6","","","","","","","","","","","",""
"","","","ratingFB","5f721a81ee2a860fe028a8a4","bdp_trlrn","Sat Apr 08 2023 08:31:44 GMT-0700 (Pacific Daylight Time)","685836","Untrustworthy,Trustworthy","image-keyboard-response","93","170524","0.0-6.0-2.43","","null","","trustrating_stim/white_00299_940422_fa_edt.bmp","null","","","","","","","","","","","",""
"","","","rating","5f721a81ee2a860fe028a8a4","bdp_trlrn","Sat Apr 08 2023 08:31:44 GMT-0700 (Pacific Daylight Time)","685836","Untrustworthy,Trustworthy","image-keyboard-response","94","172163","0.0-6.0-1.44","","1529","","trustrating_stim/white_mw056.bmp","4","","","","","","","","","","","",""
"","","","ratingFB","5f721a81ee2a860fe028a8a4","bdp_trlrn","Sat Apr 08 2023 08:31:44 GMT-0700 (Pacific Daylight Time)","685836","Untrustworthy,Trustworthy","image-keyboard-response","95","172376","0.0-6.0-2.44","","null","","trustrating_stim/white_mw056.bmp","null","","","","","","","","","","","",""
"","","","rating","5f721a81ee2a860fe028a8a4","bdp_trlrn","Sat Apr 08 2023 08:31:44 GMT-0700 (Pacific Daylight Time)","685836","Untrustworthy,Trustworthy","image-keyboard-response","96","173923","0.0-6.0-1.45","","1435","","trustrating_stim/white_mw053.bmp","6","","","","","","","","","","","",""
"","","","ratingFB","5f721a81ee2a860fe028a8a4","bdp_trlrn","Sat Apr 08 2023 08:31:44 GMT-0700 (Pacific Daylight Time)","685836","Untrustworthy,Trustworthy","image-keyboard-response","97","174133","0.0-6.0-2.45","","null","","trustrating_stim/white_mw053.bmp","null","","","","","","","","","","","",""
"","","","rating","5f721a81ee2a860fe028a8a4","bdp_trlrn","Sat Apr 08 2023 08:31:44 GMT-0700 (Pacific Daylight Time)","685836","Untrustworthy,Trustworthy","image-keyboard-response","98","177666","0.0-6.0-1.46","","3423","","trustrating_stim/white_00807_941205_fb_edt.bmp","5","","","","","","","","","","","",""
"","","","ratingFB","5f721a81ee2a860fe028a8a4","bdp_trlrn","Sat Apr 08 2023 08:31:44 GMT-0700 (Pacific Daylight Time)","685836","Untrustworthy,Trustworthy","image-keyboard-response","99","177880","0.0-6.0-2.46","","null","","trustrating_stim/white_00807_941205_fb_edt.bmp","null","","","","","","","","","","","",""
"","","","rating","5f721a81ee2a860fe028a8a4","bdp_trlrn","Sat Apr 08 2023 08:31:44 GMT-0700 (Pacific Daylight Time)","685836","Untrustworthy,Trustworthy","image-keyboard-response","100","179507","0.0-6.0-1.47","","1516","","trustrating_stim/white_mw060.bmp","4","","","","","","","","","","","",""
"","","","ratingFB","5f721a81ee2a860fe028a8a4","bdp_trlrn","Sat Apr 08 2023 08:31:44 GMT-0700 (Pacific Daylight Time)","685836","Untrustworthy,Trustworthy","image-keyboard-response","101","179713","0.0-6.0-2.47","","null","","trustrating_stim/white_mw060.bmp","null","","","","","","","","","","","",""
"","","","rating","5f721a81ee2a860fe028a8a4","bdp_trlrn","Sat Apr 08 2023 08:31:44 GMT-0700 (Pacific Daylight Time)","685836","Untrustworthy,Trustworthy","image-keyboard-response","102","182067","0.0-6.0-1.48","","2246","","trustrating_stim/white_mw071.bmp","4","","","","","","","","","","","",""
"","","","ratingFB","5f721a81ee2a860fe028a8a4","bdp_trlrn","Sat Apr 08 2023 08:31:44 GMT-0700 (Pacific Daylight Time)","685836","Untrustworthy,Trustworthy","image-keyboard-response","103","182277","0.0-6.0-2.48","","null","","trustrating_stim/white_mw071.bmp","null","","","","","","","","","","","",""
"","","","rating","5f721a81ee2a860fe028a8a4","bdp_trlrn","Sat Apr 08 2023 08:31:44 GMT-0700 (Pacific Daylight Time)","685836","Untrustworthy,Trustworthy","image-keyboard-response","104","184515","0.0-6.0-1.49","","2128","","trustrating_stim/white_00761_941201_fb_edt.bmp","6","","","","","","","","","","","",""
"","","","ratingFB","5f721a81ee2a860fe028a8a4","bdp_trlrn","Sat Apr 08 2023 08:31:44 GMT-0700 (Pacific Daylight Time)","685836","Untrustworthy,Trustworthy","image-keyboard-response","105","184720","0.0-6.0-2.49","","null","","trustrating_stim/white_00761_941201_fb_edt.bmp","null","","","","","","","","","","","",""
"","","","rating","5f721a81ee2a860fe028a8a4","bdp_trlrn","Sat Apr 08 2023 08:31:44 GMT-0700 (Pacific Daylight Time)","685836","Untrustworthy,Trustworthy","image-keyboard-response","106","188547","0.0-6.0-1.50","","3718","","trustrating_stim/white_mw046.bmp","5","","","","","","","","","","","",""
"","","","ratingFB","5f721a81ee2a860fe028a8a4","bdp_trlrn","Sat Apr 08 2023 08:31:44 GMT-0700 (Pacific Daylight Time)","685836","Untrustworthy,Trustworthy","image-keyboard-response","107","188748","0.0-6.0-2.50","","null","","trustrating_stim/white_mw046.bmp","null","","","","","","","","","","","",""
"","","","rating","5f721a81ee2a860fe028a8a4","bdp_trlrn","Sat Apr 08 2023 08:31:44 GMT-0700 (Pacific Daylight Time)","685836","Untrustworthy,Trustworthy","image-keyboard-response","108","191091","0.0-6.0-1.51","","2233","","trustrating_stim/white_00659_941121_fa_edt.bmp","4","","","","","","","","","","","",""
"","","","ratingFB","5f721a81ee2a860fe028a8a4","bdp_trlrn","Sat Apr 08 2023 08:31:44 GMT-0700 (Pacific Daylight Time)","685836","Untrustworthy,Trustworthy","image-keyboard-response","109","191304","0.0-6.0-2.51","","null","","trustrating_stim/white_00659_941121_fa_edt.bmp","null","","","","","","","","","","","",""
"","","","rating","5f721a81ee2a860fe028a8a4","bdp_trlrn","Sat Apr 08 2023 08:31:44 GMT-0700 (Pacific Daylight Time)","685836","Untrustworthy,Trustworthy","image-keyboard-response","110","193491","0.0-6.0-1.52","","2074","","trustrating_stim/white_00898_960530_fa_edt.bmp","6","","","","","","","","","","","",""
"","","","ratingFB","5f721a81ee2a860fe028a8a4","bdp_trlrn","Sat Apr 08 2023 08:31:44 GMT-0700 (Pacific Daylight Time)","685836","Untrustworthy,Trustworthy","image-keyboard-response","111","193692","0.0-6.0-2.52","","null","","trustrating_stim/white_00898_960530_fa_edt.bmp","null","","","","","","","","","","","",""
"","","","rating","5f721a81ee2a860fe028a8a4","bdp_trlrn","Sat Apr 08 2023 08:31:44 GMT-0700 (Pacific Daylight Time)","685836","Untrustworthy,Trustworthy","image-keyboard-response","112","195651","0.0-6.0-1.53","","1851","","trustrating_stim/white_mw099.bmp","6","","","","","","","","","","","",""
"","","","ratingFB","5f721a81ee2a860fe028a8a4","bdp_trlrn","Sat Apr 08 2023 08:31:44 GMT-0700 (Pacific Daylight Time)","685836","Untrustworthy,Trustworthy","image-keyboard-response","113","195853","0.0-6.0-2.53","","null","","trustrating_stim/white_mw099.bmp","null","","","","","","","","","","","",""
"","","","rating","5f721a81ee2a860fe028a8a4","bdp_trlrn","Sat Apr 08 2023 08:31:44 GMT-0700 (Pacific Daylight Time)","685836","Untrustworthy,Trustworthy","image-keyboard-response","114","197011","0.0-6.0-1.54","","1049","","trustrating_stim/white_mw066.bmp","6","","","","","","","","","","","",""
"","","","ratingFB","5f721a81ee2a860fe028a8a4","bdp_trlrn","Sat Apr 08 2023 08:31:44 GMT-0700 (Pacific Daylight Time)","685836","Untrustworthy,Trustworthy","image-keyboard-response","115","197224","0.0-6.0-2.54","","null","","trustrating_stim/white_mw066.bmp","null","","","","","","","","","","","",""
"","","","rating","5f721a81ee2a860fe028a8a4","bdp_trlrn","Sat Apr 08 2023 08:31:44 GMT-0700 (Pacific Daylight Time)","685836","Untrustworthy,Trustworthy","image-keyboard-response","116","198739","0.0-6.0-1.55","","1406","","trustrating_stim/white_mw048.bmp","4","","","","","","","","","","","",""
"","","","ratingFB","5f721a81ee2a860fe028a8a4","bdp_trlrn","Sat Apr 08 2023 08:31:44 GMT-0700 (Pacific Daylight Time)","685836","Untrustworthy,Trustworthy","image-keyboard-response","117","198941","0.0-6.0-2.55","","null","","trustrating_stim/white_mw048.bmp","null","","","","","","","","","","","",""
"","","","rating","5f721a81ee2a860fe028a8a4","bdp_trlrn","Sat Apr 08 2023 08:31:44 GMT-0700 (Pacific Daylight Time)","685836","Untrustworthy,Trustworthy","image-keyboard-response","118","205171","0.0-6.0-1.56","","6120","","trustrating_stim/white_00129_931230_fb_edt.bmp","5","","","","","","","","","","","",""
"","","","ratingFB","5f721a81ee2a860fe028a8a4","bdp_trlrn","Sat Apr 08 2023 08:31:44 GMT-0700 (Pacific Daylight Time)","685836","Untrustworthy,Trustworthy","image-keyboard-response","119","205382","0.0-6.0-2.56","","null","","trustrating_stim/white_00129_931230_fb_edt.bmp","null","","","","","","","","","","","",""
"","","","rating","5f721a81ee2a860fe028a8a4","bdp_trlrn","Sat Apr 08 2023 08:31:44 GMT-0700 (Pacific Daylight Time)","685836","Untrustworthy,Trustworthy","image-keyboard-response","120","207923","0.0-6.0-1.57","","2430","","trustrating_stim/white_mw035.bmp","5","","","","","","","","","","","",""
"","","","ratingFB","5f721a81ee2a860fe028a8a4","bdp_trlrn","Sat Apr 08 2023 08:31:44 GMT-0700 (Pacific Daylight Time)","685836","Untrustworthy,Trustworthy","image-keyboard-response","121","208129","0.0-6.0-2.57","","null","","trustrating_stim/white_mw035.bmp","null","","","","","","","","","","","",""
"","","","rating","5f721a81ee2a860fe028a8a4","bdp_trlrn","Sat Apr 08 2023 08:31:44 GMT-0700 (Pacific Daylight Time)","685836","Untrustworthy,Trustworthy","image-keyboard-response","122","209827","0.0-6.0-1.58","","1589","","trustrating_stim/white_mw063.bmp","4","","","","","","","","","","","",""
"","","","ratingFB","5f721a81ee2a860fe028a8a4","bdp_trlrn","Sat Apr 08 2023 08:31:44 GMT-0700 (Pacific Daylight Time)","685836","Untrustworthy,Trustworthy","image-keyboard-response","123","210031","0.0-6.0-2.58","","null","","trustrating_stim/white_mw063.bmp","null","","","","","","","","","","","",""
"","","","rating","5f721a81ee2a860fe028a8a4","bdp_trlrn","Sat Apr 08 2023 08:31:44 GMT-0700 (Pacific Daylight Time)","685836","Untrustworthy,Trustworthy","image-keyboard-response","124","211363","0.0-6.0-1.59","","1222","","trustrating_stim/white_mw049.bmp","6","","","","","","","","","","","",""
"","","","ratingFB","5f721a81ee2a860fe028a8a4","bdp_trlrn","Sat Apr 08 2023 08:31:44 GMT-0700 (Pacific Daylight Time)","685836","Untrustworthy,Trustworthy","image-keyboard-response","125","211570","0.0-6.0-2.59","","null","","trustrating_stim/white_mw049.bmp","null","","","","","","","","","","","",""
"","","","","5f721a81ee2a860fe028a8a4","bdp_trlrn","Sat Apr 08 2023 08:31:44 GMT-0700 (Pacific Daylight Time)","685836","Untrustworthy,Trustworthy","instructions","126","213299","0.0-7.0","[{""page_index"":0,""viewing_time"":1621}]","1621","","","","","","","","","","","","","","",""
"","","","","5f721a81ee2a860fe028a8a4","bdp_trlrn","Sat Apr 08 2023 08:31:44 GMT-0700 (Pacific Daylight Time)","685836","Untrustworthy,Trustworthy","instructions","127","374771","0.0-8.0","[{""page_index"":0,""viewing_time"":80893},{""page_index"":1,""viewing_time"":12672},{""page_index"":2,""viewing_time"":19184},{""page_index"":3,""viewing_time"":5616},{""page_index"":4,""viewing_time"":15648},{""page_index"":5,""viewing_time"":7792},{""page_index"":6,""viewing_time"":15472},{""page_index"":7,""viewing_time"":4080}]","161357","","","","","","","","","","","","","","",""
"","","","","5f721a81ee2a860fe028a8a4","bdp_trlrn","Sat Apr 08 2023 08:31:44 GMT-0700 (Pacific Daylight Time)","685836","Untrustworthy,Trustworthy","html-keyboard-response","128","383139","0.0-9.0","","8367","","<div class='header' style='text-align:left; position: absolute; top: 5%; left: 5%;'><small>Task 3 of 5</small></div><div class='instruxDiv'><p><strong>1) What is the minimum number of points you can choose to send to your partner?</strong></p><p>a) 0</p><p>b) 1</p><p>c) 5</p>","B","","","","","","","","","","","",""
"","","","","5f721a81ee2a860fe028a8a4","bdp_trlrn","Sat Apr 08 2023 08:31:44 GMT-0700 (Pacific Daylight Time)","685836","Untrustworthy,Trustworthy","html-keyboard-response","129","385442","0.0-10.0","","2201","","<div class='header' style='text-align:left; position: absolute; top: 5%; left: 5%;'><small>Task 3 of 5</small></div><div class='instruxDiv'><p><strong>1) What is the minimum number of points you can choose to send to your partner?</strong></p><p>a) 0</p><p style='color:#00FF00'>b) 1</p><p>c) 5</p><h3 style='color:#00FF00'>Correct!</h3><h3 class='center-content'>The correct response is b).</h3><h3 class='center-content'>The minimum number of points you can choose to send to your partner is 1 point.</h3><p><em>Press SPACEBAR to continue</em></p></div>"," ","","","","","","","","","","","",""
"","","","","5f721a81ee2a860fe028a8a4","bdp_trlrn","Sat Apr 08 2023 08:31:44 GMT-0700 (Pacific Daylight Time)","685836","Untrustworthy,Trustworthy","html-keyboard-response","130","389043","0.0-11.0","","3488","","<div class='header' style='text-align:left; position: absolute; top: 5%; left: 5%;'><small>Task 3 of 5</small></div><div class='instruxDiv'><p><strong>2) What is the maximum number of points you can choose to send to your partner?</strong></p><p>a) 8</p><p>b) 5</p><p>c) 3</p>","B","","","","","","","","","","","",""
"","","","","5f721a81ee2a860fe028a8a4","bdp_trlrn","Sat Apr 08 2023 08:31:44 GMT-0700 (Pacific Daylight Time)","685836","Untrustworthy,Trustworthy","html-keyboard-response","131","390355","0.0-12.0","","1205","","<div class='header' style='text-align:left; position: absolute; top: 5%; left: 5%;'><small>Task 3 of 5</small></div><div class='instruxDiv'><p><strong>2) What is the maximum number of points you can choose to send to your partner?</strong></p><p>a) 8</p><p style='color:#00FF00'>b) 5</p><p>c) 3</p><h3 style='color:#00FF00'>Correct!</h3><h3 class='center-content'>The correct response is b).</h3><h3 class='center-content'>The maximum number of points you can choose to send to your partner is 5 points.</h3><p><em>Press SPACEBAR to continue</em></p></div>"," ","","","","","","","","","","","",""
"","","","","5f721a81ee2a860fe028a8a4","bdp_trlrn","Sat Apr 08 2023 08:31:44 GMT-0700 (Pacific Daylight Time)","685836","Untrustworthy,Trustworthy","html-keyboard-response","132","396083","0.0-13.0","","5613","","<div class='header' style='text-align:left; position: absolute; top: 5%; left: 5%;'><small>Task 3 of 5</small></div><div class='instruxDiv'><p><strong>3) What happens to the amount of points you send to your partner?</strong></p><p>a) Nothing</p><p>b) It doubles</p><p>c) It quadruples</p>","C","","","","","","","","","","","",""
"","","","","5f721a81ee2a860fe028a8a4","bdp_trlrn","Sat Apr 08 2023 08:31:44 GMT-0700 (Pacific Daylight Time)","685836","Untrustworthy,Trustworthy","html-keyboard-response","133","397667","0.0-14.0","","1482","","<div class='header' style='text-align:left; position: absolute; top: 5%; left: 5%;'><small>Task 3 of 5</small></div><div class='instruxDiv'><p><strong>3) What happens to the amount of points you send to your partner?</strong></p><p>a) Nothing</p><p>b) It doubles</p><p style='color:#00FF00'>c) It quadruples</p><h3 style='color:#00FF00'>Correct!</h3><h3 class='center-content'>The correct response is c).</h3><h3 class='center-content'>The amount of points you send to your partner quadruples.</h3><p><em>Press SPACEBAR to continue</em></p></div>"," ","","","","","","","","","","","",""
"","","","","5f721a81ee2a860fe028a8a4","bdp_trlrn","Sat Apr 08 2023 08:31:44 GMT-0700 (Pacific Daylight Time)","685836","Untrustworthy,Trustworthy","html-keyboard-response","134","409587","0.0-15.0","","11806","","<div class='header' style='text-align:left; position: absolute; top: 5%; left: 5%;'><small>Task 3 of 5</small></div><div class='instruxDiv'><p><strong>4) If you decided to share 4 out of 5 points with your partner, and they decided to share half of the amount they received with you, how many points would you receive back from them on this round?</strong></p><p>a) 16</p><p>b) 0</p><p>c) 8</p>","C","","","","","","","","","","","",""
"","","","","5f721a81ee2a860fe028a8a4","bdp_trlrn","Sat Apr 08 2023 08:31:44 GMT-0700 (Pacific Daylight Time)","685836","Untrustworthy,Trustworthy","html-keyboard-response","135","413539","0.0-16.0","","3842","","<div class='header' style='text-align:left; position: absolute; top: 5%; left: 5%;'><small>Task 3 of 5</small></div><div class='instruxDiv'><p><strong>4) If you decided to share 4 out of 5 points with your partner, and they decided to share half of the amount they received with you, how many points would you receive back from them on this round?</strong></p><p>a) 16</p><p>b) 0</p><p style='color:#00FF00'>c) 8</p><h3 style='color:#00FF00'>Correct!</h3><h3 class='center-content'>The correct response is c).</h3><h3 class='center-content'>If you shared 4 out of 5 points with your partner and they decided to share half of the amount they received with you, you would receive 8 points back (i.e. (4 x 4)/2 = 8).</h3><p><em>Press SPACEBAR to continue</em></p></div>"," ","","","","","","","","","","","",""
"","","","","5f721a81ee2a860fe028a8a4","bdp_trlrn","Sat Apr 08 2023 08:31:44 GMT-0700 (Pacific Daylight Time)","685836","Untrustworthy,Trustworthy","html-keyboard-response","136","418656","0.0-17.0","","null","","<div class='header' style='text-align:left; position: absolute; top: 5%; left: 5%;'><small>Task 3 of 5</small></div><div class='instruxDiv'><p>Thank you for completing the quiz<p>These are the actual partners you will be interacting with in the next block:<p><div class='tc' align='center'><img class='introPic' src='trustrating_stim/white_mw048.bmp'><br><strong>Ryan</strong></div><div class='bl' align='center'><img class='introPic' src='trustrating_stim/white_00807_941205_fb_edt.bmp'><br><strong>Evan</strong></div><div class='br' align='center'><img class='introPic' src='trustrating_stim/white_mw066.bmp'><br><strong>Chris</strong></div></div><p>Across <strong>66 rounds</strong> you will interact with each partner <strong>22 times</strong> (in random order).<p style='align:center; color:white'><font <em>Press SPACEBAR to continue</em></p>","null","","","","","","","","","","","",""
"","","","","5f721a81ee2a860fe028a8a4","bdp_trlrn","Sat Apr 08 2023 08:31:44 GMT-0700 (Pacific Daylight Time)","685836","Untrustworthy,Trustworthy","instructions","137","432099","0.0-18.0","[{""page_index"":0,""viewing_time"":4913},{""page_index"":1,""viewing_time"":8528}]","13441","","","","","","","","","","","","","","",""
"","","","decision","5f721a81ee2a860fe028a8a4","bdp_trlrn","Sat Apr 08 2023 08:31:44 GMT-0700 (Pacific Daylight Time)","685836","Untrustworthy,Trustworthy","html-keyboard-response","138","433443","0.0-19.0-1.0","","1234","","<div class='trialDiv'><img src='trustrating_stim/white_mw066.bmp'><br><font class='baseline'><strong>Chris</strong><p>Choose number of points to send.</font><div class='respPicDiv'><img src='img/responseButtonOffersNo0L.png' class='respPic'></div></div>","5","","1","Chris","11","Kept","0.35,0.8","14","0.35","trustrating_stim/white_mw066.bmp","6.5","5","1"
"","","","decisionFB","5f721a81ee2a860fe028a8a4","bdp_trlrn","Sat Apr 08 2023 08:31:44 GMT-0700 (Pacific Daylight Time)","685836","Untrustworthy,Trustworthy","html-keyboard-response","139","433704","0.0-19.0-2.0","","null","","<div class='trialDiv'><img src='trustrating_stim/white_mw066.bmp'><br><font class='baseline'><strong>Chris</strong><p>Choose number of points to send.</font><div class='respPicDiv'><img src='img/responseButtonOffersNo0L5.png' class='respPic'></div></div>","null","","1","Chris","11","Kept","0.35,0.8","14","0.35","trustrating_stim/white_mw066.bmp","6.5","0","1"
"","","","feedback","5f721a81ee2a860fe028a8a4","bdp_trlrn","Sat Apr 08 2023 08:31:44 GMT-0700 (Pacific Daylight Time)","685836","Untrustworthy,Trustworthy","html-keyboard-response","140","434708","0.0-19.0-3.0","","null","","<div class='trialDiv'><img src='trustrating_stim/white_mw066.bmp'><br><font class='baseline'><strong>Chris</strong><p>Received: <strong>20</strong></font> &nbsp; &nbsp; &nbsp; &nbsp; &nbsp; &nbsp;<font class='negOutcome'>Shared back: <strong>0</strong></font></font><div class='respPicDiv'><img src='img/responseButtonOffersNo0_wht.png' class='respPic'></div></div>","null","","1","Chris","11","Kept","0.35,0.8","14","0.35","trustrating_stim/white_mw066.bmp","6.5","0","1"
"","","","decision","5f721a81ee2a860fe028a8a4","bdp_trlrn","Sat Apr 08 2023 08:31:44 GMT-0700 (Pacific Daylight Time)","685836","Untrustworthy,Trustworthy","html-keyboard-response","141","436434","0.0-19.0-1.1","","1726","","<div class='trialDiv'><img src='trustrating_stim/white_mw048.bmp'><br><font class='baseline'><strong>Ryan</strong><p>Choose number of points to send.</font><div class='respPicDiv'><img src='img/responseButtonOffersNo0L.png' class='respPic'></div></div>","5","","1","Ryan","1","Shared","0.8,0.2","11","0.8","trustrating_stim/white_mw048.bmp","3.5","5","2"
"","","","decisionFB","5f721a81ee2a860fe028a8a4","bdp_trlrn","Sat Apr 08 2023 08:31:44 GMT-0700 (Pacific Daylight Time)","685836","Untrustworthy,Trustworthy","html-keyboard-response","142","436692","0.0-19.0-2.1","","null","","<div class='trialDiv'><img src='trustrating_stim/white_mw048.bmp'><br><font class='baseline'><strong>Ryan</strong><p>Choose number of points to send.</font><div class='respPicDiv'><img src='img/responseButtonOffersNo0L5.png' class='respPic'></div></div>","null","","1","Ryan","1","Shared","0.8,0.2","11","0.8","trustrating_stim/white_mw048.bmp","3.5","0","2"
"","","","feedback","5f721a81ee2a860fe028a8a4","bdp_trlrn","Sat Apr 08 2023 08:31:44 GMT-0700 (Pacific Daylight Time)","685836","Untrustworthy,Trustworthy","html-keyboard-response","143","437705","0.0-19.0-3.1","","null","","<div class='trialDiv'><img src='trustrating_stim/white_mw048.bmp'><br><font class='baseline'><strong>Ryan</strong><p>Received: <strong>20</strong></font> &nbsp; &nbsp; &nbsp; &nbsp; &nbsp; &nbsp;<font class='posOutcome'>Shared back: <strong>10</strong></font></font><div class='respPicDiv'><img src='img/responseButtonOffersNo0_wht.png' class='respPic'></div></div>","null","","1","Ryan","1","Shared","0.8,0.2","11","0.8","trustrating_stim/white_mw048.bmp","3.5","10","2"
"","","","decision","5f721a81ee2a860fe028a8a4","bdp_trlrn","Sat Apr 08 2023 08:31:44 GMT-0700 (Pacific Daylight Time)","685836","Untrustworthy,Trustworthy","html-keyboard-response","144","439315","0.0-19.0-1.2","","1610","","<div class='trialDiv'><img src='trustrating_stim/white_00807_941205_fb_edt.bmp'><br><font class='baseline'><strong>Evan</strong><p>Choose number of points to send.</font><div class='respPicDiv'><img src='img/responseButtonOffersNo0L.png' class='respPic'></div></div>","5","","1","Evan","4","Kept","0.65,0.2","8","0.65","trustrating_stim/white_00807_941205_fb_edt.bmp","4.5","15","3"
"","","","decisionFB","5f721a81ee2a860fe028a8a4","bdp_trlrn","Sat Apr 08 2023 08:31:44 GMT-0700 (Pacific Daylight Time)","685836","Untrustworthy,Trustworthy","html-keyboard-response","145","439574","0.0-19.0-2.2","","null","","<div class='trialDiv'><img src='trustrating_stim/white_00807_941205_fb_edt.bmp'><br><font class='baseline'><strong>Evan</strong><p>Choose number of points to send.</font><div class='respPicDiv'><img src='img/responseButtonOffersNo0L5.png' class='respPic'></div></div>","null","","1","Evan","4","Kept","0.65,0.2","8","0.65","trustrating_stim/white_00807_941205_fb_edt.bmp","4.5","10","3"
"","","","feedback","5f721a81ee2a860fe028a8a4","bdp_trlrn","Sat Apr 08 2023 08:31:44 GMT-0700 (Pacific Daylight Time)","685836","Untrustworthy,Trustworthy","html-keyboard-response","146","440581","0.0-19.0-3.2","","null","","<div class='trialDiv'><img src='trustrating_stim/white_00807_941205_fb_edt.bmp'><br><font class='baseline'><strong>Evan</strong><p>Received: <strong>20</strong></font> &nbsp; &nbsp; &nbsp; &nbsp; &nbsp; &nbsp;<font class='negOutcome'>Shared back: <strong>0</strong></font></font><div class='respPicDiv'><img src='img/responseButtonOffersNo0_wht.png' class='respPic'></div></div>","null","","1","Evan","4","Kept","0.65,0.2","8","0.65","trustrating_stim/white_00807_941205_fb_edt.bmp","4.5","10","3"
"","","","decision","5f721a81ee2a860fe028a8a4","bdp_trlrn","Sat Apr 08 2023 08:31:44 GMT-0700 (Pacific Daylight Time)","685836","Untrustworthy,Trustworthy","html-keyboard-response","147","441202","0.0-19.0-1.3","","620","","<div class='trialDiv'><img src='trustrating_stim/white_mw066.bmp'><br><font class='baseline'><strong>Chris</strong><p>Choose number of points to send.</font><div class='respPicDiv'><img src='img/responseButtonOffersNo0L.png' class='respPic'></div></div>","5","","2","Chris","11","Kept","0.35,0.8","14","0.35","trustrating_stim/white_mw066.bmp","6.5","15","4"
"","","","decisionFB","5f721a81ee2a860fe028a8a4","bdp_trlrn","Sat Apr 08 2023 08:31:44 GMT-0700 (Pacific Daylight Time)","685836","Untrustworthy,Trustworthy","html-keyboard-response","148","441466","0.0-19.0-2.3","","null","","<div class='trialDiv'><img src='trustrating_stim/white_mw066.bmp'><br><font class='baseline'><strong>Chris</strong><p>Choose number of points to send.</font><div class='respPicDiv'><img src='img/responseButtonOffersNo0L5.png' class='respPic'></div></div>","null","","2","Chris","11","Kept","0.35,0.8","14","0.35","trustrating_stim/white_mw066.bmp","6.5","10","4"
"","","","feedback","5f721a81ee2a860fe028a8a4","bdp_trlrn","Sat Apr 08 2023 08:31:44 GMT-0700 (Pacific Daylight Time)","685836","Untrustworthy,Trustworthy","html-keyboard-response","149","442474","0.0-19.0-3.3","","null","","<div class='trialDiv'><img src='trustrating_stim/white_mw066.bmp'><br><font class='baseline'><strong>Chris</strong><p>Received: <strong>20</strong></font> &nbsp; &nbsp; &nbsp; &nbsp; &nbsp; &nbsp;<font class='negOutcome'>Shared back: <strong>0</strong></font></font><div class='respPicDiv'><img src='img/responseButtonOffersNo0_wht.png' class='respPic'></div></div>","null","","2","Chris","11","Kept","0.35,0.8","14","0.35","trustrating_stim/white_mw066.bmp","6.5","10","4"
"","","","decision","5f721a81ee2a860fe028a8a4","bdp_trlrn","Sat Apr 08 2023 08:31:44 GMT-0700 (Pacific Daylight Time)","685836","Untrustworthy,Trustworthy","html-keyboard-response","150","442803","0.0-19.0-1.4","","328","","<div class='trialDiv'><img src='trustrating_stim/white_mw048.bmp'><br><font class='baseline'><strong>Ryan</strong><p>Choose number of points to send.</font><div class='respPicDiv'><img src='img/responseButtonOffersNo0L.png' class='respPic'></div></div>","5","","2","Ryan","1","Shared","0.8,0.2","11","0.8","trustrating_stim/white_mw048.bmp","3.5","15","5"
"","","","decisionFB","5f721a81ee2a860fe028a8a4","bdp_trlrn","Sat Apr 08 2023 08:31:44 GMT-0700 (Pacific Daylight Time)","685836","Untrustworthy,Trustworthy","html-keyboard-response","151","443058","0.0-19.0-2.4","","null","","<div class='trialDiv'><img src='trustrating_stim/white_mw048.bmp'><br><font class='baseline'><strong>Ryan</strong><p>Choose number of points to send.</font><div class='respPicDiv'><img src='img/responseButtonOffersNo0L5.png' class='respPic'></div></div>","null","","2","Ryan","1","Shared","0.8,0.2","11","0.8","trustrating_stim/white_mw048.bmp","3.5","10","5"
"","","","feedback","5f721a81ee2a860fe028a8a4","bdp_trlrn","Sat Apr 08 2023 08:31:44 GMT-0700 (Pacific Daylight Time)","685836","Untrustworthy,Trustworthy","html-keyboard-response","152","444067","0.0-19.0-3.4","","null","","<div class='trialDiv'><img src='trustrating_stim/white_mw048.bmp'><br><font class='baseline'><strong>Ryan</strong><p>Received: <strong>20</strong></font> &nbsp; &nbsp; &nbsp; &nbsp; &nbsp; &nbsp;<font class='posOutcome'>Shared back: <strong>10</strong></font></font><div class='respPicDiv'><img src='img/responseButtonOffersNo0_wht.png' class='respPic'></div></div>","null","","2","Ryan","1","Shared","0.8,0.2","11","0.8","trustrating_stim/white_mw048.bmp","3.5","20","5"
"","","","decision","5f721a81ee2a860fe028a8a4","bdp_trlrn","Sat Apr 08 2023 08:31:44 GMT-0700 (Pacific Daylight Time)","685836","Untrustworthy,Trustworthy","html-keyboard-response","153","444387","0.0-19.0-1.5","","319","","<div class='trialDiv'><img src='trustrating_stim/white_00807_941205_fb_edt.bmp'><br><font class='baseline'><strong>Evan</strong><p>Choose number of points to send.</font><div class='respPicDiv'><img src='img/responseButtonOffersNo0L.png' class='respPic'></div></div>","5","","2","Evan","4","Shared","0.65,0.2","8","0.65","trustrating_stim/white_00807_941205_fb_edt.bmp","4.5","25","6"
"","","","decisionFB","5f721a81ee2a860fe028a8a4","bdp_trlrn","Sat Apr 08 2023 08:31:44 GMT-0700 (Pacific Daylight Time)","685836","Untrustworthy,Trustworthy","html-keyboard-response","154","444649","0.0-19.0-2.5","","null","","<div class='trialDiv'><img src='trustrating_stim/white_00807_941205_fb_edt.bmp'><br><font class='baseline'><strong>Evan</strong><p>Choose number of points to send.</font><div class='respPicDiv'><img src='img/responseButtonOffersNo0L5.png' class='respPic'></div></div>","null","","2","Evan","4","Shared","0.65,0.2","8","0.65","trustrating_stim/white_00807_941205_fb_edt.bmp","4.5","20","6"
"","","","feedback","5f721a81ee2a860fe028a8a4","bdp_trlrn","Sat Apr 08 2023 08:31:44 GMT-0700 (Pacific Daylight Time)","685836","Untrustworthy,Trustworthy","html-keyboard-response","155","445654","0.0-19.0-3.5","","null","","<div class='trialDiv'><img src='trustrating_stim/white_00807_941205_fb_edt.bmp'><br><font class='baseline'><strong>Evan</strong><p>Received: <strong>20</strong></font> &nbsp; &nbsp; &nbsp; &nbsp; &nbsp; &nbsp;<font class='posOutcome'>Shared back: <strong>10</strong></font></font><div class='respPicDiv'><img src='img/responseButtonOffersNo0_wht.png' class='respPic'></div></div>","null","","2","Evan","4","Shared","0.65,0.2","8","0.65","trustrating_stim/white_00807_941205_fb_edt.bmp","4.5","30","6"
"","","","decision","5f721a81ee2a860fe028a8a4","bdp_trlrn","Sat Apr 08 2023 08:31:44 GMT-0700 (Pacific Daylight Time)","685836","Untrustworthy,Trustworthy","html-keyboard-response","156","446163","0.0-19.0-1.6","","508","","<div class='trialDiv'><img src='trustrating_stim/white_mw048.bmp'><br><font class='baseline'><strong>Ryan</strong><p>Choose number of points to send.</font><div class='respPicDiv'><img src='img/responseButtonOffersNo0L.png' class='respPic'></div></div>","5","","3","Ryan","1","Shared","0.8,0.2","11","0.8","trustrating_stim/white_mw048.bmp","3.5","35","7"
"","","","decisionFB","5f721a81ee2a860fe028a8a4","bdp_trlrn","Sat Apr 08 2023 08:31:44 GMT-0700 (Pacific Daylight Time)","685836","Untrustworthy,Trustworthy","html-keyboard-response","157","446420","0.0-19.0-2.6","","null","","<div class='trialDiv'><img src='trustrating_stim/white_mw048.bmp'><br><font class='baseline'><strong>Ryan</strong><p>Choose number of points to send.</font><div class='respPicDiv'><img src='img/responseButtonOffersNo0L5.png' class='respPic'></div></div>","null","","3","Ryan","1","Shared","0.8,0.2","11","0.8","trustrating_stim/white_mw048.bmp","3.5","30","7"
"","","","feedback","5f721a81ee2a860fe028a8a4","bdp_trlrn","Sat Apr 08 2023 08:31:44 GMT-0700 (Pacific Daylight Time)","685836","Untrustworthy,Trustworthy","html-keyboard-response","158","447425","0.0-19.0-3.6","","null","","<div class='trialDiv'><img src='trustrating_stim/white_mw048.bmp'><br><font class='baseline'><strong>Ryan</strong><p>Received: <strong>20</strong></font> &nbsp; &nbsp; &nbsp; &nbsp; &nbsp; &nbsp;<font class='posOutcome'>Shared back: <strong>10</strong></font></font><div class='respPicDiv'><img src='img/responseButtonOffersNo0_wht.png' class='respPic'></div></div>","null","","3","Ryan","1","Shared","0.8,0.2","11","0.8","trustrating_stim/white_mw048.bmp","3.5","40","7"
"","","","decision","5f721a81ee2a860fe028a8a4","bdp_trlrn","Sat Apr 08 2023 08:31:44 GMT-0700 (Pacific Daylight Time)","685836","Untrustworthy,Trustworthy","html-keyboard-response","159","447731","0.0-19.0-1.7","","305","","<div class='trialDiv'><img src='trustrating_stim/white_00807_941205_fb_edt.bmp'><br><font class='baseline'><strong>Evan</strong><p>Choose number of points to send.</font><div class='respPicDiv'><img src='img/responseButtonOffersNo0L.png' class='respPic'></div></div>","5","","3","Evan","4","Shared","0.65,0.2","8","0.65","trustrating_stim/white_00807_941205_fb_edt.bmp","4.5","45","8"
"","","","decisionFB","5f721a81ee2a860fe028a8a4","bdp_trlrn","Sat Apr 08 2023 08:31:44 GMT-0700 (Pacific Daylight Time)","685836","Untrustworthy,Trustworthy","html-keyboard-response","160","447995","0.0-19.0-2.7","","null","","<div class='trialDiv'><img src='trustrating_stim/white_00807_941205_fb_edt.bmp'><br><font class='baseline'><strong>Evan</strong><p>Choose number of points to send.</font><div class='respPicDiv'><img src='img/responseButtonOffersNo0L5.png' class='respPic'></div></div>","null","","3","Evan","4","Shared","0.65,0.2","8","0.65","trustrating_stim/white_00807_941205_fb_edt.bmp","4.5","40","8"
"","","","feedback","5f721a81ee2a860fe028a8a4","bdp_trlrn","Sat Apr 08 2023 08:31:44 GMT-0700 (Pacific Daylight Time)","685836","Untrustworthy,Trustworthy","html-keyboard-response","161","449003","0.0-19.0-3.7","","null","","<div class='trialDiv'><img src='trustrating_stim/white_00807_941205_fb_edt.bmp'><br><font class='baseline'><strong>Evan</strong><p>Received: <strong>20</strong></font> &nbsp; &nbsp; &nbsp; &nbsp; &nbsp; &nbsp;<font class='posOutcome'>Shared back: <strong>10</strong></font></font><div class='respPicDiv'><img src='img/responseButtonOffersNo0_wht.png' class='respPic'></div></div>","null","","3","Evan","4","Shared","0.65,0.2","8","0.65","trustrating_stim/white_00807_941205_fb_edt.bmp","4.5","50","8"
"","","","decision","5f721a81ee2a860fe028a8a4","bdp_trlrn","Sat Apr 08 2023 08:31:44 GMT-0700 (Pacific Daylight Time)","685836","Untrustworthy,Trustworthy","html-keyboard-response","162","449267","0.0-19.0-1.8","","263","","<div class='trialDiv'><img src='trustrating_stim/white_mw066.bmp'><br><font class='baseline'><strong>Chris</strong><p>Choose number of points to send.</font><div class='respPicDiv'><img src='img/responseButtonOffersNo0L.png' class='respPic'></div></div>","5","","3","Chris","11","Shared","0.35,0.8","14","0.35","trustrating_stim/white_mw066.bmp","6.5","55","9"
"","","","decisionFB","5f721a81ee2a860fe028a8a4","bdp_trlrn","Sat Apr 08 2023 08:31:44 GMT-0700 (Pacific Daylight Time)","685836","Untrustworthy,Trustworthy","html-keyboard-response","163","449521","0.0-19.0-2.8","","null","","<div class='trialDiv'><img src='trustrating_stim/white_mw066.bmp'><br><font class='baseline'><strong>Chris</strong><p>Choose number of points to send.</font><div class='respPicDiv'><img src='img/responseButtonOffersNo0L5.png' class='respPic'></div></div>","null","","3","Chris","11","Shared","0.35,0.8","14","0.35","trustrating_stim/white_mw066.bmp","6.5","50","9"
"","","","feedback","5f721a81ee2a860fe028a8a4","bdp_trlrn","Sat Apr 08 2023 08:31:44 GMT-0700 (Pacific Daylight Time)","685836","Untrustworthy,Trustworthy","html-keyboard-response","164","450526","0.0-19.0-3.8","","null","","<div class='trialDiv'><img src='trustrating_stim/white_mw066.bmp'><br><font class='baseline'><strong>Chris</strong><p>Received: <strong>20</strong></font> &nbsp; &nbsp; &nbsp; &nbsp; &nbsp; &nbsp;<font class='posOutcome'>Shared back: <strong>10</strong></font></font><div class='respPicDiv'><img src='img/responseButtonOffersNo0_wht.png' class='respPic'></div></div>","null","","3","Chris","11","Shared","0.35,0.8","14","0.35","trustrating_stim/white_mw066.bmp","6.5","60","9"
"","","","decision","5f721a81ee2a860fe028a8a4","bdp_trlrn","Sat Apr 08 2023 08:31:44 GMT-0700 (Pacific Daylight Time)","685836","Untrustworthy,Trustworthy","html-keyboard-response","165","450883","0.0-19.0-1.9","","357","","<div class='trialDiv'><img src='trustrating_stim/white_mw048.bmp'><br><font class='baseline'><strong>Ryan</strong><p>Choose number of points to send.</font><div class='respPicDiv'><img src='img/responseButtonOffersNo0L.png' class='respPic'></div></div>","5","","4","Ryan","1","Shared","0.8,0.2","11","0.8","trustrating_stim/white_mw048.bmp","3.5","65","10"
"","","","decisionFB","5f721a81ee2a860fe028a8a4","bdp_trlrn","Sat Apr 08 2023 08:31:44 GMT-0700 (Pacific Daylight Time)","685836","Untrustworthy,Trustworthy","html-keyboard-response","166","451148","0.0-19.0-2.9","","null","","<div class='trialDiv'><img src='trustrating_stim/white_mw048.bmp'><br><font class='baseline'><strong>Ryan</strong><p>Choose number of points to send.</font><div class='respPicDiv'><img src='img/responseButtonOffersNo0L5.png' class='respPic'></div></div>","null","","4","Ryan","1","Shared","0.8,0.2","11","0.8","trustrating_stim/white_mw048.bmp","3.5","60","10"
"","","","feedback","5f721a81ee2a860fe028a8a4","bdp_trlrn","Sat Apr 08 2023 08:31:44 GMT-0700 (Pacific Daylight Time)","685836","Untrustworthy,Trustworthy","html-keyboard-response","167","452155","0.0-19.0-3.9","","null","","<div class='trialDiv'><img src='trustrating_stim/white_mw048.bmp'><br><font class='baseline'><strong>Ryan</strong><p>Received: <strong>20</strong></font> &nbsp; &nbsp; &nbsp; &nbsp; &nbsp; &nbsp;<font class='posOutcome'>Shared back: <strong>10</strong></font></font><div class='respPicDiv'><img src='img/responseButtonOffersNo0_wht.png' class='respPic'></div></div>","null","","4","Ryan","1","Shared","0.8,0.2","11","0.8","trustrating_stim/white_mw048.bmp","3.5","70","10"
"","","","decision","5f721a81ee2a860fe028a8a4","bdp_trlrn","Sat Apr 08 2023 08:31:44 GMT-0700 (Pacific Daylight Time)","685836","Untrustworthy,Trustworthy","html-keyboard-response","168","452403","0.0-19.0-1.10","","247","","<div class='trialDiv'><img src='trustrating_stim/white_00807_941205_fb_edt.bmp'><br><font class='baseline'><strong>Evan</strong><p>Choose number of points to send.</font><div class='respPicDiv'><img src='img/responseButtonOffersNo0L.png' class='respPic'></div></div>","5","","4","Evan","4","Shared","0.65,0.2","8","0.65","trustrating_stim/white_00807_941205_fb_edt.bmp","4.5","75","11"
"","","","decisionFB","5f721a81ee2a860fe028a8a4","bdp_trlrn","Sat Apr 08 2023 08:31:44 GMT-0700 (Pacific Daylight Time)","685836","Untrustworthy,Trustworthy","html-keyboard-response","169","452661","0.0-19.0-2.10","","null","","<div class='trialDiv'><img src='trustrating_stim/white_00807_941205_fb_edt.bmp'><br><font class='baseline'><strong>Evan</strong><p>Choose number of points to send.</font><div class='respPicDiv'><img src='img/responseButtonOffersNo0L5.png' class='respPic'></div></div>","null","","4","Evan","4","Shared","0.65,0.2","8","0.65","trustrating_stim/white_00807_941205_fb_edt.bmp","4.5","70","11"
"","","","feedback","5f721a81ee2a860fe028a8a4","bdp_trlrn","Sat Apr 08 2023 08:31:44 GMT-0700 (Pacific Daylight Time)","685836","Untrustworthy,Trustworthy","html-keyboard-response","170","453672","0.0-19.0-3.10","","null","","<div class='trialDiv'><img src='trustrating_stim/white_00807_941205_fb_edt.bmp'><br><font class='baseline'><strong>Evan</strong><p>Received: <strong>20</strong></font> &nbsp; &nbsp; &nbsp; &nbsp; &nbsp; &nbsp;<font class='posOutcome'>Shared back: <strong>10</strong></font></font><div class='respPicDiv'><img src='img/responseButtonOffersNo0_wht.png' class='respPic'></div></div>","null","","4","Evan","4","Shared","0.65,0.2","8","0.65","trustrating_stim/white_00807_941205_fb_edt.bmp","4.5","80","11"
"","","","decision","5f721a81ee2a860fe028a8a4","bdp_trlrn","Sat Apr 08 2023 08:31:44 GMT-0700 (Pacific Daylight Time)","685836","Untrustworthy,Trustworthy","html-keyboard-response","171","453923","0.0-19.0-1.11","","250","","<div class='trialDiv'><img src='trustrating_stim/white_mw066.bmp'><br><font class='baseline'><strong>Chris</strong><p>Choose number of points to send.</font><div class='respPicDiv'><img src='img/responseButtonOffersNo0L.png' class='respPic'></div></div>","5","","4","Chris","11","Kept","0.35,0.8","14","0.35","trustrating_stim/white_mw066.bmp","6.5","85","12"
"","","","decisionFB","5f721a81ee2a860fe028a8a4","bdp_trlrn","Sat Apr 08 2023 08:31:44 GMT-0700 (Pacific Daylight Time)","685836","Untrustworthy,Trustworthy","html-keyboard-response","172","454176","0.0-19.0-2.11","","null","","<div class='trialDiv'><img src='trustrating_stim/white_mw066.bmp'><br><font class='baseline'><strong>Chris</strong><p>Choose number of points to send.</font><div class='respPicDiv'><img src='img/responseButtonOffersNo0L5.png' class='respPic'></div></div>","null","","4","Chris","11","Kept","0.35,0.8","14","0.35","trustrating_stim/white_mw066.bmp","6.5","80","12"
"","","","feedback","5f721a81ee2a860fe028a8a4","bdp_trlrn","Sat Apr 08 2023 08:31:44 GMT-0700 (Pacific Daylight Time)","685836","Untrustworthy,Trustworthy","html-keyboard-response","173","455185","0.0-19.0-3.11","","null","","<div class='trialDiv'><img src='trustrating_stim/white_mw066.bmp'><br><font class='baseline'><strong>Chris</strong><p>Received: <strong>20</strong></font> &nbsp; &nbsp; &nbsp; &nbsp; &nbsp; &nbsp;<font class='negOutcome'>Shared back: <strong>0</strong></font></font><div class='respPicDiv'><img src='img/responseButtonOffersNo0_wht.png' class='respPic'></div></div>","null","","4","Chris","11","Kept","0.35,0.8","14","0.35","trustrating_stim/white_mw066.bmp","6.5","80","12"
"","","","decision","5f721a81ee2a860fe028a8a4","bdp_trlrn","Sat Apr 08 2023 08:31:44 GMT-0700 (Pacific Daylight Time)","685836","Untrustworthy,Trustworthy","html-keyboard-response","174","455411","0.0-19.0-1.12","","226","","<div class='trialDiv'><img src='trustrating_stim/white_00807_941205_fb_edt.bmp'><br><font class='baseline'><strong>Evan</strong><p>Choose number of points to send.</font><div class='respPicDiv'><img src='img/responseButtonOffersNo0L.png' class='respPic'></div></div>","5","","5","Evan","4","Kept","0.65,0.2","8","0.65","trustrating_stim/white_00807_941205_fb_edt.bmp","4.5","85","13"
"","","","decisionFB","5f721a81ee2a860fe028a8a4","bdp_trlrn","Sat Apr 08 2023 08:31:44 GMT-0700 (Pacific Daylight Time)","685836","Untrustworthy,Trustworthy","html-keyboard-response","175","455675","0.0-19.0-2.12","","null","","<div class='trialDiv'><img src='trustrating_stim/white_00807_941205_fb_edt.bmp'><br><font class='baseline'><strong>Evan</strong><p>Choose number of points to send.</font><div class='respPicDiv'><img src='img/responseButtonOffersNo0L5.png' class='respPic'></div></div>","null","","5","Evan","4","Kept","0.65,0.2","8","0.65","trustrating_stim/white_00807_941205_fb_edt.bmp","4.5","80","13"
"","","","feedback","5f721a81ee2a860fe028a8a4","bdp_trlrn","Sat Apr 08 2023 08:31:44 GMT-0700 (Pacific Daylight Time)","685836","Untrustworthy,Trustworthy","html-keyboard-response","176","456678","0.0-19.0-3.12","","null","","<div class='trialDiv'><img src='trustrating_stim/white_00807_941205_fb_edt.bmp'><br><font class='baseline'><strong>Evan</strong><p>Received: <strong>20</strong></font> &nbsp; &nbsp; &nbsp; &nbsp; &nbsp; &nbsp;<font class='negOutcome'>Shared back: <strong>0</strong></font></font><div class='respPicDiv'><img src='img/responseButtonOffersNo0_wht.png' class='respPic'></div></div>","null","","5","Evan","4","Kept","0.65,0.2","8","0.65","trustrating_stim/white_00807_941205_fb_edt.bmp","4.5","80","13"
"","","","decision","5f721a81ee2a860fe028a8a4","bdp_trlrn","Sat Apr 08 2023 08:31:44 GMT-0700 (Pacific Daylight Time)","685836","Untrustworthy,Trustworthy","html-keyboard-response","177","456930","0.0-19.0-1.13","","252","","<div class='trialDiv'><img src='trustrating_stim/white_mw048.bmp'><br><font class='baseline'><strong>Ryan</strong><p>Choose number of points to send.</font><div class='respPicDiv'><img src='img/responseButtonOffersNo0L.png' class='respPic'></div></div>","5","","5","Ryan","1","Shared","0.8,0.2","11","0.8","trustrating_stim/white_mw048.bmp","3.5","85","14"
"","","","decisionFB","5f721a81ee2a860fe028a8a4","bdp_trlrn","Sat Apr 08 2023 08:31:44 GMT-0700 (Pacific Daylight Time)","685836","Untrustworthy,Trustworthy","html-keyboard-response","178","457197","0.0-19.0-2.13","","null","","<div class='trialDiv'><img src='trustrating_stim/white_mw048.bmp'><br><font class='baseline'><strong>Ryan</strong><p>Choose number of points to send.</font><div class='respPicDiv'><img src='img/responseButtonOffersNo0L5.png' class='respPic'></div></div>","null","","5","Ryan","1","Shared","0.8,0.2","11","0.8","trustrating_stim/white_mw048.bmp","3.5","80","14"
"","","","feedback","5f721a81ee2a860fe028a8a4","bdp_trlrn","Sat Apr 08 2023 08:31:44 GMT-0700 (Pacific Daylight Time)","685836","Untrustworthy,Trustworthy","html-keyboard-response","179","458200","0.0-19.0-3.13","","null","","<div class='trialDiv'><img src='trustrating_stim/white_mw048.bmp'><br><font class='baseline'><strong>Ryan</strong><p>Received: <strong>20</strong></font> &nbsp; &nbsp; &nbsp; &nbsp; &nbsp; &nbsp;<font class='posOutcome'>Shared back: <strong>10</strong></font></font><div class='respPicDiv'><img src='img/responseButtonOffersNo0_wht.png' class='respPic'></div></div>","null","","5","Ryan","1","Shared","0.8,0.2","11","0.8","trustrating_stim/white_mw048.bmp","3.5","90","14"
"","","","decision","5f721a81ee2a860fe028a8a4","bdp_trlrn","Sat Apr 08 2023 08:31:44 GMT-0700 (Pacific Daylight Time)","685836","Untrustworthy,Trustworthy","html-keyboard-response","180","458563","0.0-19.0-1.14","","360","","<div class='trialDiv'><img src='trustrating_stim/white_mw066.bmp'><br><font class='baseline'><strong>Chris</strong><p>Choose number of points to send.</font><div class='respPicDiv'><img src='img/responseButtonOffersNo0L.png' class='respPic'></div></div>","5","","5","Chris","11","Kept","0.35,0.8","14","0.35","trustrating_stim/white_mw066.bmp","6.5","95","15"
"","","","decisionFB","5f721a81ee2a860fe028a8a4","bdp_trlrn","Sat Apr 08 2023 08:31:44 GMT-0700 (Pacific Daylight Time)","685836","Untrustworthy,Trustworthy","html-keyboard-response","181","458825","0.0-19.0-2.14","","null","","<div class='trialDiv'><img src='trustrating_stim/white_mw066.bmp'><br><font class='baseline'><strong>Chris</strong><p>Choose number of points to send.</font><div class='respPicDiv'><img src='img/responseButtonOffersNo0L5.png' class='respPic'></div></div>","null","","5","Chris","11","Kept","0.35,0.8","14","0.35","trustrating_stim/white_mw066.bmp","6.5","90","15"
"","","","feedback","5f721a81ee2a860fe028a8a4","bdp_trlrn","Sat Apr 08 2023 08:31:44 GMT-0700 (Pacific Daylight Time)","685836","Untrustworthy,Trustworthy","html-keyboard-response","182","459838","0.0-19.0-3.14","","null","","<div class='trialDiv'><img src='trustrating_stim/white_mw066.bmp'><br><font class='baseline'><strong>Chris</strong><p>Received: <strong>20</strong></font> &nbsp; &nbsp; &nbsp; &nbsp; &nbsp; &nbsp;<font class='negOutcome'>Shared back: <strong>0</strong></font></font><div class='respPicDiv'><img src='img/responseButtonOffersNo0_wht.png' class='respPic'></div></div>","null","","5","Chris","11","Kept","0.35,0.8","14","0.35","trustrating_stim/white_mw066.bmp","6.5","90","15"
"","","","decision","5f721a81ee2a860fe028a8a4","bdp_trlrn","Sat Apr 08 2023 08:31:44 GMT-0700 (Pacific Daylight Time)","685836","Untrustworthy,Trustworthy","html-keyboard-response","183","460211","0.0-19.0-1.15","","373","","<div class='trialDiv'><img src='trustrating_stim/white_mw048.bmp'><br><font class='baseline'><strong>Ryan</strong><p>Choose number of points to send.</font><div class='respPicDiv'><img src='img/responseButtonOffersNo0L.png' class='respPic'></div></div>","5","","6","Ryan","1","Kept","0.8,0.2","11","0.8","trustrating_stim/white_mw048.bmp","3.5","95","16"
"","","","decisionFB","5f721a81ee2a860fe028a8a4","bdp_trlrn","Sat Apr 08 2023 08:31:44 GMT-0700 (Pacific Daylight Time)","685836","Untrustworthy,Trustworthy","html-keyboard-response","184","460467","0.0-19.0-2.15","","null","","<div class='trialDiv'><img src='trustrating_stim/white_mw048.bmp'><br><font class='baseline'><strong>Ryan</strong><p>Choose number of points to send.</font><div class='respPicDiv'><img src='img/responseButtonOffersNo0L5.png' class='respPic'></div></div>","null","","6","Ryan","1","Kept","0.8,0.2","11","0.8","trustrating_stim/white_mw048.bmp","3.5","90","16"
"","","","feedback","5f721a81ee2a860fe028a8a4","bdp_trlrn","Sat Apr 08 2023 08:31:44 GMT-0700 (Pacific Daylight Time)","685836","Untrustworthy,Trustworthy","html-keyboard-response","185","461479","0.0-19.0-3.15","","null","","<div class='trialDiv'><img src='trustrating_stim/white_mw048.bmp'><br><font class='baseline'><strong>Ryan</strong><p>Received: <strong>20</strong></font> &nbsp; &nbsp; &nbsp; &nbsp; &nbsp; &nbsp;<font class='negOutcome'>Shared back: <strong>0</strong></font></font><div class='respPicDiv'><img src='img/responseButtonOffersNo0_wht.png' class='respPic'></div></div>","null","","6","Ryan","1","Kept","0.8,0.2","11","0.8","trustrating_stim/white_mw048.bmp","3.5","90","16"
"","","","decision","5f721a81ee2a860fe028a8a4","bdp_trlrn","Sat Apr 08 2023 08:31:44 GMT-0700 (Pacific Daylight Time)","685836","Untrustworthy,Trustworthy","html-keyboard-response","186","461971","0.0-19.0-1.16","","491","","<div class='trialDiv'><img src='trustrating_stim/white_00807_941205_fb_edt.bmp'><br><font class='baseline'><strong>Evan</strong><p>Choose number of points to send.</font><div class='respPicDiv'><img src='img/responseButtonOffersNo0L.png' class='respPic'></div></div>","5","","6","Evan","4","Kept","0.65,0.2","8","0.65","trustrating_stim/white_00807_941205_fb_edt.bmp","4.5","95","17"
"","","","decisionFB","5f721a81ee2a860fe028a8a4","bdp_trlrn","Sat Apr 08 2023 08:31:44 GMT-0700 (Pacific Daylight Time)","685836","Untrustworthy,Trustworthy","html-keyboard-response","187","462234","0.0-19.0-2.16","","null","","<div class='trialDiv'><img src='trustrating_stim/white_00807_941205_fb_edt.bmp'><br><font class='baseline'><strong>Evan</strong><p>Choose number of points to send.</font><div class='respPicDiv'><img src='img/responseButtonOffersNo0L5.png' class='respPic'></div></div>","null","","6","Evan","4","Kept","0.65,0.2","8","0.65","trustrating_stim/white_00807_941205_fb_edt.bmp","4.5","90","17"
"","","","feedback","5f721a81ee2a860fe028a8a4","bdp_trlrn","Sat Apr 08 2023 08:31:44 GMT-0700 (Pacific Daylight Time)","685836","Untrustworthy,Trustworthy","html-keyboard-response","188","463236","0.0-19.0-3.16","","null","","<div class='trialDiv'><img src='trustrating_stim/white_00807_941205_fb_edt.bmp'><br><font class='baseline'><strong>Evan</strong><p>Received: <strong>20</strong></font> &nbsp; &nbsp; &nbsp; &nbsp; &nbsp; &nbsp;<font class='negOutcome'>Shared back: <strong>0</strong></font></font><div class='respPicDiv'><img src='img/responseButtonOffersNo0_wht.png' class='respPic'></div></div>","null","","6","Evan","4","Kept","0.65,0.2","8","0.65","trustrating_stim/white_00807_941205_fb_edt.bmp","4.5","90","17"
"","","","decision","5f721a81ee2a860fe028a8a4","bdp_trlrn","Sat Apr 08 2023 08:31:44 GMT-0700 (Pacific Daylight Time)","685836","Untrustworthy,Trustworthy","html-keyboard-response","189","463668","0.0-19.0-1.17","","432","","<div class='trialDiv'><img src='trustrating_stim/white_mw066.bmp'><br><font class='baseline'><strong>Chris</strong><p>Choose number of points to send.</font><div class='respPicDiv'><img src='img/responseButtonOffersNo0L.png' class='respPic'></div></div>","5","","6","Chris","11","Shared","0.35,0.8","14","0.35","trustrating_stim/white_mw066.bmp","6.5","95","18"
"","","","decisionFB","5f721a81ee2a860fe028a8a4","bdp_trlrn","Sat Apr 08 2023 08:31:44 GMT-0700 (Pacific Daylight Time)","685836","Untrustworthy,Trustworthy","html-keyboard-response","190","463927","0.0-19.0-2.17","","null","","<div class='trialDiv'><img src='trustrating_stim/white_mw066.bmp'><br><font class='baseline'><strong>Chris</strong><p>Choose number of points to send.</font><div class='respPicDiv'><img src='img/responseButtonOffersNo0L5.png' class='respPic'></div></div>","null","","6","Chris","11","Shared","0.35,0.8","14","0.35","trustrating_stim/white_mw066.bmp","6.5","90","18"
"","","","feedback","5f721a81ee2a860fe028a8a4","bdp_trlrn","Sat Apr 08 2023 08:31:44 GMT-0700 (Pacific Daylight Time)","685836","Untrustworthy,Trustworthy","html-keyboard-response","191","464933","0.0-19.0-3.17","","null","","<div class='trialDiv'><img src='trustrating_stim/white_mw066.bmp'><br><font class='baseline'><strong>Chris</strong><p>Received: <strong>20</strong></font> &nbsp; &nbsp; &nbsp; &nbsp; &nbsp; &nbsp;<font class='posOutcome'>Shared back: <strong>10</strong></font></font><div class='respPicDiv'><img src='img/responseButtonOffersNo0_wht.png' class='respPic'></div></div>","null","","6","Chris","11","Shared","0.35,0.8","14","0.35","trustrating_stim/white_mw066.bmp","6.5","100","18"
"","","","decision","5f721a81ee2a860fe028a8a4","bdp_trlrn","Sat Apr 08 2023 08:31:44 GMT-0700 (Pacific Daylight Time)","685836","Untrustworthy,Trustworthy","html-keyboard-response","192","465203","0.0-19.0-1.18","","269","","<div class='trialDiv'><img src='trustrating_stim/white_00807_941205_fb_edt.bmp'><br><font class='baseline'><strong>Evan</strong><p>Choose number of points to send.</font><div class='respPicDiv'><img src='img/responseButtonOffersNo0L.png' class='respPic'></div></div>","5","","7","Evan","4","Shared","0.65,0.2","8","0.65","trustrating_stim/white_00807_941205_fb_edt.bmp","4.5","105","19"
"","","","decisionFB","5f721a81ee2a860fe028a8a4","bdp_trlrn","Sat Apr 08 2023 08:31:44 GMT-0700 (Pacific Daylight Time)","685836","Untrustworthy,Trustworthy","html-keyboard-response","193","465467","0.0-19.0-2.18","","null","","<div class='trialDiv'><img src='trustrating_stim/white_00807_941205_fb_edt.bmp'><br><font class='baseline'><strong>Evan</strong><p>Choose number of points to send.</font><div class='respPicDiv'><img src='img/responseButtonOffersNo0L5.png' class='respPic'></div></div>","null","","7","Evan","4","Shared","0.65,0.2","8","0.65","trustrating_stim/white_00807_941205_fb_edt.bmp","4.5","100","19"
"","","","feedback","5f721a81ee2a860fe028a8a4","bdp_trlrn","Sat Apr 08 2023 08:31:44 GMT-0700 (Pacific Daylight Time)","685836","Untrustworthy,Trustworthy","html-keyboard-response","194","466470","0.0-19.0-3.18","","null","","<div class='trialDiv'><img src='trustrating_stim/white_00807_941205_fb_edt.bmp'><br><font class='baseline'><strong>Evan</strong><p>Received: <strong>20</strong></font> &nbsp; &nbsp; &nbsp; &nbsp; &nbsp; &nbsp;<font class='posOutcome'>Shared back: <strong>10</strong></font></font><div class='respPicDiv'><img src='img/responseButtonOffersNo0_wht.png' class='respPic'></div></div>","null","","7","Evan","4","Shared","0.65,0.2","8","0.65","trustrating_stim/white_00807_941205_fb_edt.bmp","4.5","110","19"
"","","","decision","5f721a81ee2a860fe028a8a4","bdp_trlrn","Sat Apr 08 2023 08:31:44 GMT-0700 (Pacific Daylight Time)","685836","Untrustworthy,Trustworthy","html-keyboard-response","195","466706","0.0-19.0-1.19","","236","","<div class='trialDiv'><img src='trustrating_stim/white_mw048.bmp'><br><font class='baseline'><strong>Ryan</strong><p>Choose number of points to send.</font><div class='respPicDiv'><img src='img/responseButtonOffersNo0L.png' class='respPic'></div></div>","5","","7","Ryan","1","Shared","0.8,0.2","11","0.8","trustrating_stim/white_mw048.bmp","3.5","115","20"
"","","","decisionFB","5f721a81ee2a860fe028a8a4","bdp_trlrn","Sat Apr 08 2023 08:31:44 GMT-0700 (Pacific Daylight Time)","685836","Untrustworthy,Trustworthy","html-keyboard-response","196","466958","0.0-19.0-2.19","","null","","<div class='trialDiv'><img src='trustrating_stim/white_mw048.bmp'><br><font class='baseline'><strong>Ryan</strong><p>Choose number of points to send.</font><div class='respPicDiv'><img src='img/responseButtonOffersNo0L5.png' class='respPic'></div></div>","null","","7","Ryan","1","Shared","0.8,0.2","11","0.8","trustrating_stim/white_mw048.bmp","3.5","110","20"
"","","","feedback","5f721a81ee2a860fe028a8a4","bdp_trlrn","Sat Apr 08 2023 08:31:44 GMT-0700 (Pacific Daylight Time)","685836","Untrustworthy,Trustworthy","html-keyboard-response","197","467965","0.0-19.0-3.19","","null","","<div class='trialDiv'><img src='trustrating_stim/white_mw048.bmp'><br><font class='baseline'><strong>Ryan</strong><p>Received: <strong>20</strong></font> &nbsp; &nbsp; &nbsp; &nbsp; &nbsp; &nbsp;<font class='posOutcome'>Shared back: <strong>10</strong></font></font><div class='respPicDiv'><img src='img/responseButtonOffersNo0_wht.png' class='respPic'></div></div>","null","","7","Ryan","1","Shared","0.8,0.2","11","0.8","trustrating_stim/white_mw048.bmp","3.5","120","20"
"","","","decision","5f721a81ee2a860fe028a8a4","bdp_trlrn","Sat Apr 08 2023 08:31:44 GMT-0700 (Pacific Daylight Time)","685836","Untrustworthy,Trustworthy","html-keyboard-response","198","468115","0.0-19.0-1.20","","149","","<div class='trialDiv'><img src='trustrating_stim/white_mw066.bmp'><br><font class='baseline'><strong>Chris</strong><p>Choose number of points to send.</font><div class='respPicDiv'><img src='img/responseButtonOffersNo0L.png' class='respPic'></div></div>","5","","7","Chris","11","Shared","0.35,0.8","14","0.35","trustrating_stim/white_mw066.bmp","6.5","125","21"
"","","","decisionFB","5f721a81ee2a860fe028a8a4","bdp_trlrn","Sat Apr 08 2023 08:31:44 GMT-0700 (Pacific Daylight Time)","685836","Untrustworthy,Trustworthy","html-keyboard-response","199","468379","0.0-19.0-2.20","","null","","<div class='trialDiv'><img src='trustrating_stim/white_mw066.bmp'><br><font class='baseline'><strong>Chris</strong><p>Choose number of points to send.</font><div class='respPicDiv'><img src='img/responseButtonOffersNo0L5.png' class='respPic'></div></div>","null","","7","Chris","11","Shared","0.35,0.8","14","0.35","trustrating_stim/white_mw066.bmp","6.5","120","21"
"","","","feedback","5f721a81ee2a860fe028a8a4","bdp_trlrn","Sat Apr 08 2023 08:31:44 GMT-0700 (Pacific Daylight Time)","685836","Untrustworthy,Trustworthy","html-keyboard-response","200","469384","0.0-19.0-3.20","","null","","<div class='trialDiv'><img src='trustrating_stim/white_mw066.bmp'><br><font class='baseline'><strong>Chris</strong><p>Received: <strong>20</strong></font> &nbsp; &nbsp; &nbsp; &nbsp; &nbsp; &nbsp;<font class='posOutcome'>Shared back: <strong>10</strong></font></font><div class='respPicDiv'><img src='img/responseButtonOffersNo0_wht.png' class='respPic'></div></div>","null","","7","Chris","11","Shared","0.35,0.8","14","0.35","trustrating_stim/white_mw066.bmp","6.5","130","21"
"","","","decision","5f721a81ee2a860fe028a8a4","bdp_trlrn","Sat Apr 08 2023 08:31:44 GMT-0700 (Pacific Daylight Time)","685836","Untrustworthy,Trustworthy","html-keyboard-response","201","469651","0.0-19.0-1.21","","267","","<div class='trialDiv'><img src='trustrating_stim/white_mw048.bmp'><br><font class='baseline'><strong>Ryan</strong><p>Choose number of points to send.</font><div class='respPicDiv'><img src='img/responseButtonOffersNo0L.png' class='respPic'></div></div>","5","","8","Ryan","1","Kept","0.8,0.2","11","0.8","trustrating_stim/white_mw048.bmp","3.5","135","22"
"","","","decisionFB","5f721a81ee2a860fe028a8a4","bdp_trlrn","Sat Apr 08 2023 08:31:44 GMT-0700 (Pacific Daylight Time)","685836","Untrustworthy,Trustworthy","html-keyboard-response","202","469905","0.0-19.0-2.21","","null","","<div class='trialDiv'><img src='trustrating_stim/white_mw048.bmp'><br><font class='baseline'><strong>Ryan</strong><p>Choose number of points to send.</font><div class='respPicDiv'><img src='img/responseButtonOffersNo0L5.png' class='respPic'></div></div>","null","","8","Ryan","1","Kept","0.8,0.2","11","0.8","trustrating_stim/white_mw048.bmp","3.5","130","22"
"","","","feedback","5f721a81ee2a860fe028a8a4","bdp_trlrn","Sat Apr 08 2023 08:31:44 GMT-0700 (Pacific Daylight Time)","685836","Untrustworthy,Trustworthy","html-keyboard-response","203","470913","0.0-19.0-3.21","","null","","<div class='trialDiv'><img src='trustrating_stim/white_mw048.bmp'><br><font class='baseline'><strong>Ryan</strong><p>Received: <strong>20</strong></font> &nbsp; &nbsp; &nbsp; &nbsp; &nbsp; &nbsp;<font class='negOutcome'>Shared back: <strong>0</strong></font></font><div class='respPicDiv'><img src='img/responseButtonOffersNo0_wht.png' class='respPic'></div></div>","null","","8","Ryan","1","Kept","0.8,0.2","11","0.8","trustrating_stim/white_mw048.bmp","3.5","130","22"
"","","","decision","5f721a81ee2a860fe028a8a4","bdp_trlrn","Sat Apr 08 2023 08:31:44 GMT-0700 (Pacific Daylight Time)","685836","Untrustworthy,Trustworthy","html-keyboard-response","204","471042","0.0-19.0-1.22","","128","","<div class='trialDiv'><img src='trustrating_stim/white_00807_941205_fb_edt.bmp'><br><font class='baseline'><strong>Evan</strong><p>Choose number of points to send.</font><div class='respPicDiv'><img src='img/responseButtonOffersNo0L.png' class='respPic'></div></div>","5","","8","Evan","4","Kept","0.65,0.2","8","0.65","trustrating_stim/white_00807_941205_fb_edt.bmp","4.5","135","23"
"","","","decisionFB","5f721a81ee2a860fe028a8a4","bdp_trlrn","Sat Apr 08 2023 08:31:44 GMT-0700 (Pacific Daylight Time)","685836","Untrustworthy,Trustworthy","html-keyboard-response","205","471305","0.0-19.0-2.22","","null","","<div class='trialDiv'><img src='trustrating_stim/white_00807_941205_fb_edt.bmp'><br><font class='baseline'><strong>Evan</strong><p>Choose number of points to send.</font><div class='respPicDiv'><img src='img/responseButtonOffersNo0L5.png' class='respPic'></div></div>","null","","8","Evan","4","Kept","0.65,0.2","8","0.65","trustrating_stim/white_00807_941205_fb_edt.bmp","4.5","130","23"
"","","","feedback","5f721a81ee2a860fe028a8a4","bdp_trlrn","Sat Apr 08 2023 08:31:44 GMT-0700 (Pacific Daylight Time)","685836","Untrustworthy,Trustworthy","html-keyboard-response","206","472314","0.0-19.0-3.22","","null","","<div class='trialDiv'><img src='trustrating_stim/white_00807_941205_fb_edt.bmp'><br><font class='baseline'><strong>Evan</strong><p>Received: <strong>20</strong></font> &nbsp; &nbsp; &nbsp; &nbsp; &nbsp; &nbsp;<font class='negOutcome'>Shared back: <strong>0</strong></font></font><div class='respPicDiv'><img src='img/responseButtonOffersNo0_wht.png' class='respPic'></div></div>","null","","8","Evan","4","Kept","0.65,0.2","8","0.65","trustrating_stim/white_00807_941205_fb_edt.bmp","4.5","130","23"
"","","","decision","5f721a81ee2a860fe028a8a4","bdp_trlrn","Sat Apr 08 2023 08:31:44 GMT-0700 (Pacific Daylight Time)","685836","Untrustworthy,Trustworthy","html-keyboard-response","207","472547","0.0-19.0-1.23","","232","","<div class='trialDiv'><img src='trustrating_stim/white_mw066.bmp'><br><font class='baseline'><strong>Chris</strong><p>Choose number of points to send.</font><div class='respPicDiv'><img src='img/responseButtonOffersNo0L.png' class='respPic'></div></div>","5","","8","Chris","11","Shared","0.35,0.8","14","0.35","trustrating_stim/white_mw066.bmp","6.5","135","24"
"","","","decisionFB","5f721a81ee2a860fe028a8a4","bdp_trlrn","Sat Apr 08 2023 08:31:44 GMT-0700 (Pacific Daylight Time)","685836","Untrustworthy,Trustworthy","html-keyboard-response","208","472799","0.0-19.0-2.23","","null","","<div class='trialDiv'><img src='trustrating_stim/white_mw066.bmp'><br><font class='baseline'><strong>Chris</strong><p>Choose number of points to send.</font><div class='respPicDiv'><img src='img/responseButtonOffersNo0L5.png' class='respPic'></div></div>","null","","8","Chris","11","Shared","0.35,0.8","14","0.35","trustrating_stim/white_mw066.bmp","6.5","130","24"
"","","","feedback","5f721a81ee2a860fe028a8a4","bdp_trlrn","Sat Apr 08 2023 08:31:44 GMT-0700 (Pacific Daylight Time)","685836","Untrustworthy,Trustworthy","html-keyboard-response","209","473810","0.0-19.0-3.23","","null","","<div class='trialDiv'><img src='trustrating_stim/white_mw066.bmp'><br><font class='baseline'><strong>Chris</strong><p>Received: <strong>20</strong></font> &nbsp; &nbsp; &nbsp; &nbsp; &nbsp; &nbsp;<font class='posOutcome'>Shared back: <strong>10</strong></font></font><div class='respPicDiv'><img src='img/responseButtonOffersNo0_wht.png' class='respPic'></div></div>","null","","8","Chris","11","Shared","0.35,0.8","14","0.35","trustrating_stim/white_mw066.bmp","6.5","140","24"
"","","","decision","5f721a81ee2a860fe028a8a4","bdp_trlrn","Sat Apr 08 2023 08:31:44 GMT-0700 (Pacific Daylight Time)","685836","Untrustworthy,Trustworthy","html-keyboard-response","210","474083","0.0-19.0-1.24","","272","","<div class='trialDiv'><img src='trustrating_stim/white_00807_941205_fb_edt.bmp'><br><font class='baseline'><strong>Evan</strong><p>Choose number of points to send.</font><div class='respPicDiv'><img src='img/responseButtonOffersNo0L.png' class='respPic'></div></div>","5","","9","Evan","4","Shared","0.65,0.2","8","0.65","trustrating_stim/white_00807_941205_fb_edt.bmp","4.5","145","25"
"","","","decisionFB","5f721a81ee2a860fe028a8a4","bdp_trlrn","Sat Apr 08 2023 08:31:44 GMT-0700 (Pacific Daylight Time)","685836","Untrustworthy,Trustworthy","html-keyboard-response","211","474346","0.0-19.0-2.24","","null","","<div class='trialDiv'><img src='trustrating_stim/white_00807_941205_fb_edt.bmp'><br><font class='baseline'><strong>Evan</strong><p>Choose number of points to send.</font><div class='respPicDiv'><img src='img/responseButtonOffersNo0L5.png' class='respPic'></div></div>","null","","9","Evan","4","Shared","0.65,0.2","8","0.65","trustrating_stim/white_00807_941205_fb_edt.bmp","4.5","140","25"
"","","","feedback","5f721a81ee2a860fe028a8a4","bdp_trlrn","Sat Apr 08 2023 08:31:44 GMT-0700 (Pacific Daylight Time)","685836","Untrustworthy,Trustworthy","html-keyboard-response","212","475355","0.0-19.0-3.24","","null","","<div class='trialDiv'><img src='trustrating_stim/white_00807_941205_fb_edt.bmp'><br><font class='baseline'><strong>Evan</strong><p>Received: <strong>20</strong></font> &nbsp; &nbsp; &nbsp; &nbsp; &nbsp; &nbsp;<font class='posOutcome'>Shared back: <strong>10</strong></font></font><div class='respPicDiv'><img src='img/responseButtonOffersNo0_wht.png' class='respPic'></div></div>","null","","9","Evan","4","Shared","0.65,0.2","8","0.65","trustrating_stim/white_00807_941205_fb_edt.bmp","4.5","150","25"
"","","","decision","5f721a81ee2a860fe028a8a4","bdp_trlrn","Sat Apr 08 2023 08:31:44 GMT-0700 (Pacific Daylight Time)","685836","Untrustworthy,Trustworthy","html-keyboard-response","213","475587","0.0-19.0-1.25","","231","","<div class='trialDiv'><img src='trustrating_stim/white_mw066.bmp'><br><font class='baseline'><strong>Chris</strong><p>Choose number of points to send.</font><div class='respPicDiv'><img src='img/responseButtonOffersNo0L.png' class='respPic'></div></div>","5","","9","Chris","11","Kept","0.35,0.8","14","0.35","trustrating_stim/white_mw066.bmp","6.5","155","26"
"","","","decisionFB","5f721a81ee2a860fe028a8a4","bdp_trlrn","Sat Apr 08 2023 08:31:44 GMT-0700 (Pacific Daylight Time)","685836","Untrustworthy,Trustworthy","html-keyboard-response","214","475845","0.0-19.0-2.25","","null","","<div class='trialDiv'><img src='trustrating_stim/white_mw066.bmp'><br><font class='baseline'><strong>Chris</strong><p>Choose number of points to send.</font><div class='respPicDiv'><img src='img/responseButtonOffersNo0L5.png' class='respPic'></div></div>","null","","9","Chris","11","Kept","0.35,0.8","14","0.35","trustrating_stim/white_mw066.bmp","6.5","150","26"
"","","","feedback","5f721a81ee2a860fe028a8a4","bdp_trlrn","Sat Apr 08 2023 08:31:44 GMT-0700 (Pacific Daylight Time)","685836","Untrustworthy,Trustworthy","html-keyboard-response","215","476849","0.0-19.0-3.25","","null","","<div class='trialDiv'><img src='trustrating_stim/white_mw066.bmp'><br><font class='baseline'><strong>Chris</strong><p>Received: <strong>20</strong></font> &nbsp; &nbsp; &nbsp; &nbsp; &nbsp; &nbsp;<font class='negOutcome'>Shared back: <strong>0</strong></font></font><div class='respPicDiv'><img src='img/responseButtonOffersNo0_wht.png' class='respPic'></div></div>","null","","9","Chris","11","Kept","0.35,0.8","14","0.35","trustrating_stim/white_mw066.bmp","6.5","150","26"
"","","","decision","5f721a81ee2a860fe028a8a4","bdp_trlrn","Sat Apr 08 2023 08:31:44 GMT-0700 (Pacific Daylight Time)","685836","Untrustworthy,Trustworthy","html-keyboard-response","216","477107","0.0-19.0-1.26","","258","","<div class='trialDiv'><img src='trustrating_stim/white_mw048.bmp'><br><font class='baseline'><strong>Ryan</strong><p>Choose number of points to send.</font><div class='respPicDiv'><img src='img/responseButtonOffersNo0L.png' class='respPic'></div></div>","5","","9","Ryan","1","Shared","0.8,0.2","11","0.8","trustrating_stim/white_mw048.bmp","3.5","155","27"
"","","","decisionFB","5f721a81ee2a860fe028a8a4","bdp_trlrn","Sat Apr 08 2023 08:31:44 GMT-0700 (Pacific Daylight Time)","685836","Untrustworthy,Trustworthy","html-keyboard-response","217","477368","0.0-19.0-2.26","","null","","<div class='trialDiv'><img src='trustrating_stim/white_mw048.bmp'><br><font class='baseline'><strong>Ryan</strong><p>Choose number of points to send.</font><div class='respPicDiv'><img src='img/responseButtonOffersNo0L5.png' class='respPic'></div></div>","null","","9","Ryan","1","Shared","0.8,0.2","11","0.8","trustrating_stim/white_mw048.bmp","3.5","150","27"
"","","","feedback","5f721a81ee2a860fe028a8a4","bdp_trlrn","Sat Apr 08 2023 08:31:44 GMT-0700 (Pacific Daylight Time)","685836","Untrustworthy,Trustworthy","html-keyboard-response","218","478374","0.0-19.0-3.26","","null","","<div class='trialDiv'><img src='trustrating_stim/white_mw048.bmp'><br><font class='baseline'><strong>Ryan</strong><p>Received: <strong>20</strong></font> &nbsp; &nbsp; &nbsp; &nbsp; &nbsp; &nbsp;<font class='posOutcome'>Shared back: <strong>10</strong></font></font><div class='respPicDiv'><img src='img/responseButtonOffersNo0_wht.png' class='respPic'></div></div>","null","","9","Ryan","1","Shared","0.8,0.2","11","0.8","trustrating_stim/white_mw048.bmp","3.5","160","27"
"","","","decision","5f721a81ee2a860fe028a8a4","bdp_trlrn","Sat Apr 08 2023 08:31:44 GMT-0700 (Pacific Daylight Time)","685836","Untrustworthy,Trustworthy","html-keyboard-response","219","478595","0.0-19.0-1.27","","221","","<div class='trialDiv'><img src='trustrating_stim/white_00807_941205_fb_edt.bmp'><br><font class='baseline'><strong>Evan</strong><p>Choose number of points to send.</font><div class='respPicDiv'><img src='img/responseButtonOffersNo0L.png' class='respPic'></div></div>","5","","10","Evan","4","Kept","0.65,0.2","8","0.65","trustrating_stim/white_00807_941205_fb_edt.bmp","4.5","165","28"
