"trial_type","trial_index","time_elapsed","internal_node_id","subject_id","task","startTime","totalTime","labels","view_history","rt","event","trial","time","trialtype","success","stimulus","key_press","aground","name","faceID","outcome","agenttype","agentswpt","agentcurrpshare","face","avgRating","point_total","round"
"pavlovia","0","11","0.0-0.0","640415971520c41606ca4389","bdp_trlrn","Tue Mar 14 2023 00:23:54 GMT-0400 (Eastern Daylight Time)","649646","Trustworthy,Untrustworthy","","","","","","","","","","","","","","","","","","","",""
"instructions","1","20026","0.0-1.0","640415971520c41606ca4389","bdp_trlrn","Tue Mar 14 2023 00:23:54 GMT-0400 (Eastern Daylight Time)","649646","Trustworthy,Untrustworthy","[{""page_index"":0,""viewing_time"":20014}]","20014","","","","","","","","","","","","","","","","","",""
"","","","","640415971520c41606ca4389","bdp_trlrn","Tue Mar 14 2023 00:23:54 GMT-0400 (Eastern Daylight Time)","649646","Trustworthy,Untrustworthy","","","fullscreenenter","2","22705","fullscreenenter","","","","","","","","","","","","","",""
"fullscreen","2","23567","0.0-2.0","640415971520c41606ca4389","bdp_trlrn","Tue Mar 14 2023 00:23:54 GMT-0400 (Eastern Daylight Time)","649646","Trustworthy,Untrustworthy","","","","","","","true","","","","","","","","","","","","",""
"instructions","3","56118","0.0-4.0","640415971520c41606ca4389","bdp_trlrn","Tue Mar 14 2023 00:23:54 GMT-0400 (Eastern Daylight Time)","649646","Trustworthy,Untrustworthy","[{""page_index"":0,""viewing_time"":11253},{""page_index"":1,""viewing_time"":21288}]","32542","","","","","","","","","","","","","","","","","",""
"instructions","4","60424","0.0-5.0","640415971520c41606ca4389","bdp_trlrn","Tue Mar 14 2023 00:23:54 GMT-0400 (Eastern Daylight Time)","649646","Trustworthy,Untrustworthy","[{""page_index"":0,""viewing_time"":4305}]","4305","","","","","","","","","","","","","","","","","",""
"image-keyboard-response","5","64882","0.0-6.0-1.0","640415971520c41606ca4389","bdp_trlrn","Tue Mar 14 2023 00:23:54 GMT-0400 (Eastern Daylight Time)","649646","Trustworthy,Untrustworthy","","4342","","","","rating","","trustrating_stim/white_mw046.bmp","4","","","","","","","","","","",""
"image-keyboard-response","6","65088","0.0-6.0-2.0","640415971520c41606ca4389","bdp_trlrn","Tue Mar 14 2023 00:23:54 GMT-0400 (Eastern Daylight Time)","649646","Trustworthy,Untrustworthy","","null","","","","ratingFB","","trustrating_stim/white_mw046.bmp","null","","","","","","","","","","",""
"image-keyboard-response","7","66759","0.0-6.0-1.1","640415971520c41606ca4389","bdp_trlrn","Tue Mar 14 2023 00:23:54 GMT-0400 (Eastern Daylight Time)","649646","Trustworthy,Untrustworthy","","1561","","","","rating","","trustrating_stim/white_00223_940128_fb_edt.bmp","3","","","","","","","","","","",""
"image-keyboard-response","8","66965","0.0-6.0-2.1","640415971520c41606ca4389","bdp_trlrn","Tue Mar 14 2023 00:23:54 GMT-0400 (Eastern Daylight Time)","649646","Trustworthy,Untrustworthy","","null","","","","ratingFB","","trustrating_stim/white_00223_940128_fb_edt.bmp","null","","","","","","","","","","",""
"image-keyboard-response","9","68554","0.0-6.0-1.2","640415971520c41606ca4389","bdp_trlrn","Tue Mar 14 2023 00:23:54 GMT-0400 (Eastern Daylight Time)","649646","Trustworthy,Untrustworthy","","1484","","","","rating","","trustrating_stim/white_00785_941205_fb_edt.bmp","4","","","","","","","","","","",""
"image-keyboard-response","10","68767","0.0-6.0-2.2","640415971520c41606ca4389","bdp_trlrn","Tue Mar 14 2023 00:23:54 GMT-0400 (Eastern Daylight Time)","649646","Trustworthy,Untrustworthy","","null","","","","ratingFB","","trustrating_stim/white_00785_941205_fb_edt.bmp","null","","","","","","","","","","",""
"image-keyboard-response","11","70270","0.0-6.0-1.3","640415971520c41606ca4389","bdp_trlrn","Tue Mar 14 2023 00:23:54 GMT-0400 (Eastern Daylight Time)","649646","Trustworthy,Untrustworthy","","1391","","","","rating","","trustrating_stim/white_00340_940422_fa_edt.bmp","3","","","","","","","","","","",""
"image-keyboard-response","12","70480","0.0-6.0-2.3","640415971520c41606ca4389","bdp_trlrn","Tue Mar 14 2023 00:23:54 GMT-0400 (Eastern Daylight Time)","649646","Trustworthy,Untrustworthy","","null","","","","ratingFB","","trustrating_stim/white_00340_940422_fa_edt.bmp","null","","","","","","","","","","",""
"image-keyboard-response","13","72046","0.0-6.0-1.4","640415971520c41606ca4389","bdp_trlrn","Tue Mar 14 2023 00:23:54 GMT-0400 (Eastern Daylight Time)","649646","Trustworthy,Untrustworthy","","1455","","","","rating","","trustrating_stim/white_mw048.bmp","3","","","","","","","","","","",""
"image-keyboard-response","14","72254","0.0-6.0-2.4","640415971520c41606ca4389","bdp_trlrn","Tue Mar 14 2023 00:23:54 GMT-0400 (Eastern Daylight Time)","649646","Trustworthy,Untrustworthy","","null","","","","ratingFB","","trustrating_stim/white_mw048.bmp","null","","","","","","","","","","",""
"image-keyboard-response","15","73846","0.0-6.0-1.5","640415971520c41606ca4389","bdp_trlrn","Tue Mar 14 2023 00:23:54 GMT-0400 (Eastern Daylight Time)","649646","Trustworthy,Untrustworthy","","1485","","","","rating","","trustrating_stim/white_00120_931230_fa_edt.bmp","6","","","","","","","","","","",""
"image-keyboard-response","16","74056","0.0-6.0-2.5","640415971520c41606ca4389","bdp_trlrn","Tue Mar 14 2023 00:23:54 GMT-0400 (Eastern Daylight Time)","649646","Trustworthy,Untrustworthy","","null","","","","ratingFB","","trustrating_stim/white_00120_931230_fa_edt.bmp","null","","","","","","","","","","",""
"image-keyboard-response","17","75345","0.0-6.0-1.6","640415971520c41606ca4389","bdp_trlrn","Tue Mar 14 2023 00:23:54 GMT-0400 (Eastern Daylight Time)","649646","Trustworthy,Untrustworthy","","1185","","","","rating","","trustrating_stim/white_00807_941205_fb_edt.bmp","6","","","","","","","","","","",""
"image-keyboard-response","18","75559","0.0-6.0-2.6","640415971520c41606ca4389","bdp_trlrn","Tue Mar 14 2023 00:23:54 GMT-0400 (Eastern Daylight Time)","649646","Trustworthy,Untrustworthy","","null","","","","ratingFB","","trustrating_stim/white_00807_941205_fb_edt.bmp","null","","","","","","","","","","",""
"image-keyboard-response","19","77093","0.0-6.0-1.7","640415971520c41606ca4389","bdp_trlrn","Tue Mar 14 2023 00:23:54 GMT-0400 (Eastern Daylight Time)","649646","Trustworthy,Untrustworthy","","1424","","","","rating","","trustrating_stim/white_mw084.bmp","5","","","","","","","","","","",""
"image-keyboard-response","20","77299","0.0-6.0-2.7","640415971520c41606ca4389","bdp_trlrn","Tue Mar 14 2023 00:23:54 GMT-0400 (Eastern Daylight Time)","649646","Trustworthy,Untrustworthy","","null","","","","ratingFB","","trustrating_stim/white_mw084.bmp","null","","","","","","","","","","",""
"image-keyboard-response","21","78630","0.0-6.0-1.8","640415971520c41606ca4389","bdp_trlrn","Tue Mar 14 2023 00:23:54 GMT-0400 (Eastern Daylight Time)","649646","Trustworthy,Untrustworthy","","1220","","","","rating","","trustrating_stim/white_mw089.bmp","5","","","","","","","","","","",""
"image-keyboard-response","22","78840","0.0-6.0-2.8","640415971520c41606ca4389","bdp_trlrn","Tue Mar 14 2023 00:23:54 GMT-0400 (Eastern Daylight Time)","649646","Trustworthy,Untrustworthy","","null","","","","ratingFB","","trustrating_stim/white_mw089.bmp","null","","","","","","","","","","",""
"image-keyboard-response","23","80235","0.0-6.0-1.9","640415971520c41606ca4389","bdp_trlrn","Tue Mar 14 2023 00:23:54 GMT-0400 (Eastern Daylight Time)","649646","Trustworthy,Untrustworthy","","1284","","","","rating","","trustrating_stim/white_mw099.bmp","6","","","","","","","","","","",""
"image-keyboard-response","24","80442","0.0-6.0-2.9","640415971520c41606ca4389","bdp_trlrn","Tue Mar 14 2023 00:23:54 GMT-0400 (Eastern Daylight Time)","649646","Trustworthy,Untrustworthy","","null","","","","ratingFB","","trustrating_stim/white_mw099.bmp","null","","","","","","","","","","",""
"image-keyboard-response","25","82370","0.0-6.0-1.10","640415971520c41606ca4389","bdp_trlrn","Tue Mar 14 2023 00:23:54 GMT-0400 (Eastern Daylight Time)","649646","Trustworthy,Untrustworthy","","1821","","","","rating","","trustrating_stim/white_mw071.bmp","5","","","","","","","","","","",""
"image-keyboard-response","26","82578","0.0-6.0-2.10","640415971520c41606ca4389","bdp_trlrn","Tue Mar 14 2023 00:23:54 GMT-0400 (Eastern Daylight Time)","649646","Trustworthy,Untrustworthy","","null","","","","ratingFB","","trustrating_stim/white_mw071.bmp","null","","","","","","","","","","",""
"image-keyboard-response","27","83856","0.0-6.0-1.11","640415971520c41606ca4389","bdp_trlrn","Tue Mar 14 2023 00:23:54 GMT-0400 (Eastern Daylight Time)","649646","Trustworthy,Untrustworthy","","1167","","","","rating","","trustrating_stim/white_mw056.bmp","5","","","","","","","","","","",""
"image-keyboard-response","28","84070","0.0-6.0-2.11","640415971520c41606ca4389","bdp_trlrn","Tue Mar 14 2023 00:23:54 GMT-0400 (Eastern Daylight Time)","649646","Trustworthy,Untrustworthy","","null","","","","ratingFB","","trustrating_stim/white_mw056.bmp","null","","","","","","","","","","",""
"image-keyboard-response","29","86469","0.0-6.0-1.12","640415971520c41606ca4389","bdp_trlrn","Tue Mar 14 2023 00:23:54 GMT-0400 (Eastern Daylight Time)","649646","Trustworthy,Untrustworthy","","2281","","","","rating","","trustrating_stim/white_00109_931230_fa_edt.bmp","7","","","","","","","","","","",""
"image-keyboard-response","30","86685","0.0-6.0-2.12","640415971520c41606ca4389","bdp_trlrn","Tue Mar 14 2023 00:23:54 GMT-0400 (Eastern Daylight Time)","649646","Trustworthy,Untrustworthy","","null","","","","ratingFB","","trustrating_stim/white_00109_931230_fa_edt.bmp","null","","","","","","","","","","",""
"image-keyboard-response","31","87753","0.0-6.0-1.13","640415971520c41606ca4389","bdp_trlrn","Tue Mar 14 2023 00:23:54 GMT-0400 (Eastern Daylight Time)","649646","Trustworthy,Untrustworthy","","956","","","","rating","","trustrating_stim/white_mw066.bmp","7","","","","","","","","","","",""
"image-keyboard-response","32","87960","0.0-6.0-2.13","640415971520c41606ca4389","bdp_trlrn","Tue Mar 14 2023 00:23:54 GMT-0400 (Eastern Daylight Time)","649646","Trustworthy,Untrustworthy","","null","","","","ratingFB","","trustrating_stim/white_mw066.bmp","null","","","","","","","","","","",""
"image-keyboard-response","33","89097","0.0-6.0-1.14","640415971520c41606ca4389","bdp_trlrn","Tue Mar 14 2023 00:23:54 GMT-0400 (Eastern Daylight Time)","649646","Trustworthy,Untrustworthy","","1027","","","","rating","","trustrating_stim/white_00299_940422_fa_edt.bmp","7","","","","","","","","","","",""
"image-keyboard-response","34","89299","0.0-6.0-2.14","640415971520c41606ca4389","bdp_trlrn","Tue Mar 14 2023 00:23:54 GMT-0400 (Eastern Daylight Time)","649646","Trustworthy,Untrustworthy","","null","","","","ratingFB","","trustrating_stim/white_00299_940422_fa_edt.bmp","null","","","","","","","","","","",""
"image-keyboard-response","35","91142","0.0-6.0-1.15","640415971520c41606ca4389","bdp_trlrn","Tue Mar 14 2023 00:23:54 GMT-0400 (Eastern Daylight Time)","649646","Trustworthy,Untrustworthy","","1732","","","","rating","","trustrating_stim/white_mw035.bmp","6","","","","","","","","","","",""
"image-keyboard-response","36","91354","0.0-6.0-2.15","640415971520c41606ca4389","bdp_trlrn","Tue Mar 14 2023 00:23:54 GMT-0400 (Eastern Daylight Time)","649646","Trustworthy,Untrustworthy","","null","","","","ratingFB","","trustrating_stim/white_mw035.bmp","null","","","","","","","","","","",""
"image-keyboard-response","37","92907","0.0-6.0-1.16","640415971520c41606ca4389","bdp_trlrn","Tue Mar 14 2023 00:23:54 GMT-0400 (Eastern Daylight Time)","649646","Trustworthy,Untrustworthy","","1443","","","","rating","","trustrating_stim/white_mw060.bmp","3","","","","","","","","","","",""
"image-keyboard-response","38","93125","0.0-6.0-2.16","640415971520c41606ca4389","bdp_trlrn","Tue Mar 14 2023 00:23:54 GMT-0400 (Eastern Daylight Time)","649646","Trustworthy,Untrustworthy","","null","","","","ratingFB","","trustrating_stim/white_mw060.bmp","null","","","","","","","","","","",""
"image-keyboard-response","39","94727","0.0-6.0-1.17","640415971520c41606ca4389","bdp_trlrn","Tue Mar 14 2023 00:23:54 GMT-0400 (Eastern Daylight Time)","649646","Trustworthy,Untrustworthy","","1494","","","","rating","","trustrating_stim/white_mw033.bmp","5","","","","","","","","","","",""
"image-keyboard-response","40","94931","0.0-6.0-2.17","640415971520c41606ca4389","bdp_trlrn","Tue Mar 14 2023 00:23:54 GMT-0400 (Eastern Daylight Time)","649646","Trustworthy,Untrustworthy","","null","","","","ratingFB","","trustrating_stim/white_mw033.bmp","null","","","","","","","","","","",""
"image-keyboard-response","41","96647","0.0-6.0-1.18","640415971520c41606ca4389","bdp_trlrn","Tue Mar 14 2023 00:23:54 GMT-0400 (Eastern Daylight Time)","649646","Trustworthy,Untrustworthy","","1596","","","","rating","","trustrating_stim/white_mw053.bmp","7","","","","","","","","","","",""
"image-keyboard-response","42","96866","0.0-6.0-2.18","640415971520c41606ca4389","bdp_trlrn","Tue Mar 14 2023 00:23:54 GMT-0400 (Eastern Daylight Time)","649646","Trustworthy,Untrustworthy","","null","","","","ratingFB","","trustrating_stim/white_mw053.bmp","null","","","","","","","","","","",""
"image-keyboard-response","43","98406","0.0-6.0-1.19","640415971520c41606ca4389","bdp_trlrn","Tue Mar 14 2023 00:23:54 GMT-0400 (Eastern Daylight Time)","649646","Trustworthy,Untrustworthy","","1421","","","","rating","","trustrating_stim/white_00129_931230_fb_edt.bmp","7","","","","","","","","","","",""
"image-keyboard-response","44","98623","0.0-6.0-2.19","640415971520c41606ca4389","bdp_trlrn","Tue Mar 14 2023 00:23:54 GMT-0400 (Eastern Daylight Time)","649646","Trustworthy,Untrustworthy","","null","","","","ratingFB","","trustrating_stim/white_00129_931230_fb_edt.bmp","null","","","","","","","","","","",""
"image-keyboard-response","45","99762","0.0-6.0-1.20","640415971520c41606ca4389","bdp_trlrn","Tue Mar 14 2023 00:23:54 GMT-0400 (Eastern Daylight Time)","649646","Trustworthy,Untrustworthy","","1026","","","","rating","","trustrating_stim/white_00602_940928_fb_edt.bmp","8","","","","","","","","","","",""
"image-keyboard-response","46","99965","0.0-6.0-2.20","640415971520c41606ca4389","bdp_trlrn","Tue Mar 14 2023 00:23:54 GMT-0400 (Eastern Daylight Time)","649646","Trustworthy,Untrustworthy","","null","","","","ratingFB","","trustrating_stim/white_00602_940928_fb_edt.bmp","null","","","","","","","","","","",""
"image-keyboard-response","47","101623","0.0-6.0-1.21","640415971520c41606ca4389","bdp_trlrn","Tue Mar 14 2023 00:23:54 GMT-0400 (Eastern Daylight Time)","649646","Trustworthy,Untrustworthy","","1541","","","","rating","","trustrating_stim/white_00757_941201_fa_edt.bmp","5","","","","","","","","","","",""
"image-keyboard-response","48","101827","0.0-6.0-2.21","640415971520c41606ca4389","bdp_trlrn","Tue Mar 14 2023 00:23:54 GMT-0400 (Eastern Daylight Time)","649646","Trustworthy,Untrustworthy","","null","","","","ratingFB","","trustrating_stim/white_00757_941201_fa_edt.bmp","null","","","","","","","","","","",""
"image-keyboard-response","49","103653","0.0-6.0-1.22","640415971520c41606ca4389","bdp_trlrn","Tue Mar 14 2023 00:23:54 GMT-0400 (Eastern Daylight Time)","649646","Trustworthy,Untrustworthy","","1711","","","","rating","","trustrating_stim/white_00659_941121_fa_edt.bmp","4","","","","","","","","","","",""
"image-keyboard-response","50","103867","0.0-6.0-2.22","640415971520c41606ca4389","bdp_trlrn","Tue Mar 14 2023 00:23:54 GMT-0400 (Eastern Daylight Time)","649646","Trustworthy,Untrustworthy","","null","","","","ratingFB","","trustrating_stim/white_00659_941121_fa_edt.bmp","null","","","","","","","","","","",""
"image-keyboard-response","51","105203","0.0-6.0-1.23","640415971520c41606ca4389","bdp_trlrn","Tue Mar 14 2023 00:23:54 GMT-0400 (Eastern Daylight Time)","649646","Trustworthy,Untrustworthy","","1226","","","","rating","","trustrating_stim/white_mw063.bmp","2","","","","","","","","","","",""
"image-keyboard-response","52","105417","0.0-6.0-2.23","640415971520c41606ca4389","bdp_trlrn","Tue Mar 14 2023 00:23:54 GMT-0400 (Eastern Daylight Time)","649646","Trustworthy,Untrustworthy","","null","","","","ratingFB","","trustrating_stim/white_mw063.bmp","null","","","","","","","","","","",""
"image-keyboard-response","53","107409","0.0-6.0-1.24","640415971520c41606ca4389","bdp_trlrn","Tue Mar 14 2023 00:23:54 GMT-0400 (Eastern Daylight Time)","649646","Trustworthy,Untrustworthy","","1873","","","","rating","","trustrating_stim/white_mw097.bmp","2","","","","","","","","","","",""
"image-keyboard-response","54","107625","0.0-6.0-2.24","640415971520c41606ca4389","bdp_trlrn","Tue Mar 14 2023 00:23:54 GMT-0400 (Eastern Daylight Time)","649646","Trustworthy,Untrustworthy","","null","","","","ratingFB","","trustrating_stim/white_mw097.bmp","null","","","","","","","","","","",""
"image-keyboard-response","55","109100","0.0-6.0-1.25","640415971520c41606ca4389","bdp_trlrn","Tue Mar 14 2023 00:23:54 GMT-0400 (Eastern Daylight Time)","649646","Trustworthy,Untrustworthy","","1363","","","","rating","","trustrating_stim/white_00519_940519_fb_edt.bmp","5","","","","","","","","","","",""
"image-keyboard-response","56","109304","0.0-6.0-2.25","640415971520c41606ca4389","bdp_trlrn","Tue Mar 14 2023 00:23:54 GMT-0400 (Eastern Daylight Time)","649646","Trustworthy,Untrustworthy","","null","","","","ratingFB","","trustrating_stim/white_00519_940519_fb_edt.bmp","null","","","","","","","","","","",""
"image-keyboard-response","57","110489","0.0-6.0-1.26","640415971520c41606ca4389","bdp_trlrn","Tue Mar 14 2023 00:23:54 GMT-0400 (Eastern Daylight Time)","649646","Trustworthy,Untrustworthy","","1080","","","","rating","","trustrating_stim/white_00761_941201_fb_edt.bmp","6","","","","","","","","","","",""
"image-keyboard-response","58","110695","0.0-6.0-2.26","640415971520c41606ca4389","bdp_trlrn","Tue Mar 14 2023 00:23:54 GMT-0400 (Eastern Daylight Time)","649646","Trustworthy,Untrustworthy","","null","","","","ratingFB","","trustrating_stim/white_00761_941201_fb_edt.bmp","null","","","","","","","","","","",""
"image-keyboard-response","59","111975","0.0-6.0-1.27","640415971520c41606ca4389","bdp_trlrn","Tue Mar 14 2023 00:23:54 GMT-0400 (Eastern Daylight Time)","649646","Trustworthy,Untrustworthy","","1169","","","","rating","","trustrating_stim/white_00577_940928_fa_edt.bmp","2","","","","","","","","","","",""
"image-keyboard-response","60","112183","0.0-6.0-2.27","640415971520c41606ca4389","bdp_trlrn","Tue Mar 14 2023 00:23:54 GMT-0400 (Eastern Daylight Time)","649646","Trustworthy,Untrustworthy","","null","","","","ratingFB","","trustrating_stim/white_00577_940928_fa_edt.bmp","null","","","","","","","","","","",""
"image-keyboard-response","61","113350","0.0-6.0-1.28","640415971520c41606ca4389","bdp_trlrn","Tue Mar 14 2023 00:23:54 GMT-0400 (Eastern Daylight Time)","649646","Trustworthy,Untrustworthy","","1059","","","","rating","","trustrating_stim/white_mw049.bmp","8","","","","","","","","","","",""
"image-keyboard-response","62","113560","0.0-6.0-2.28","640415971520c41606ca4389","bdp_trlrn","Tue Mar 14 2023 00:23:54 GMT-0400 (Eastern Daylight Time)","649646","Trustworthy,Untrustworthy","","null","","","","ratingFB","","trustrating_stim/white_mw049.bmp","null","","","","","","","","","","",""
"image-keyboard-response","63","115755","0.0-6.0-1.29","640415971520c41606ca4389","bdp_trlrn","Tue Mar 14 2023 00:23:54 GMT-0400 (Eastern Daylight Time)","649646","Trustworthy,Untrustworthy","","2083","","","","rating","","trustrating_stim/white_00898_960530_fa_edt.bmp","7","","","","","","","","","","",""
"image-keyboard-response","64","115968","0.0-6.0-2.29","640415971520c41606ca4389","bdp_trlrn","Tue Mar 14 2023 00:23:54 GMT-0400 (Eastern Daylight Time)","649646","Trustworthy,Untrustworthy","","null","","","","ratingFB","","trustrating_stim/white_00898_960530_fa_edt.bmp","null","","","","","","","","","","",""
"image-keyboard-response","65","117095","0.0-6.0-1.30","640415971520c41606ca4389","bdp_trlrn","Tue Mar 14 2023 00:23:54 GMT-0400 (Eastern Daylight Time)","649646","Trustworthy,Untrustworthy","","1017","","","","rating","","trustrating_stim/white_mw046.bmp","7","","","","","","","","","","",""
"image-keyboard-response","66","117299","0.0-6.0-2.30","640415971520c41606ca4389","bdp_trlrn","Tue Mar 14 2023 00:23:54 GMT-0400 (Eastern Daylight Time)","649646","Trustworthy,Untrustworthy","","null","","","","ratingFB","","trustrating_stim/white_mw046.bmp","null","","","","","","","","","","",""
"image-keyboard-response","67","118916","0.0-6.0-1.31","640415971520c41606ca4389","bdp_trlrn","Tue Mar 14 2023 00:23:54 GMT-0400 (Eastern Daylight Time)","649646","Trustworthy,Untrustworthy","","1506","","","","rating","","trustrating_stim/white_00898_960530_fa_edt.bmp","7","","","","","","","","","","",""
"image-keyboard-response","68","119132","0.0-6.0-2.31","640415971520c41606ca4389","bdp_trlrn","Tue Mar 14 2023 00:23:54 GMT-0400 (Eastern Daylight Time)","649646","Trustworthy,Untrustworthy","","null","","","","ratingFB","","trustrating_stim/white_00898_960530_fa_edt.bmp","null","","","","","","","","","","",""
"image-keyboard-response","69","120749","0.0-6.0-1.32","640415971520c41606ca4389","bdp_trlrn","Tue Mar 14 2023 00:23:54 GMT-0400 (Eastern Daylight Time)","649646","Trustworthy,Untrustworthy","","1499","","","","rating","","trustrating_stim/white_mw033.bmp","3","","","","","","","","","","",""
"image-keyboard-response","70","120952","0.0-6.0-2.32","640415971520c41606ca4389","bdp_trlrn","Tue Mar 14 2023 00:23:54 GMT-0400 (Eastern Daylight Time)","649646","Trustworthy,Untrustworthy","","null","","","","ratingFB","","trustrating_stim/white_mw033.bmp","null","","","","","","","","","","",""
"image-keyboard-response","71","123540","0.0-6.0-1.33","640415971520c41606ca4389","bdp_trlrn","Tue Mar 14 2023 00:23:54 GMT-0400 (Eastern Daylight Time)","649646","Trustworthy,Untrustworthy","","2481","","","","rating","","trustrating_stim/white_mw056.bmp","5","","","","","","","","","","",""
"image-keyboard-response","72","123749","0.0-6.0-2.33","640415971520c41606ca4389","bdp_trlrn","Tue Mar 14 2023 00:23:54 GMT-0400 (Eastern Daylight Time)","649646","Trustworthy,Untrustworthy","","null","","","","ratingFB","","trustrating_stim/white_mw056.bmp","null","","","","","","","","","","",""
"image-keyboard-response","73","125637","0.0-6.0-1.34","640415971520c41606ca4389","bdp_trlrn","Tue Mar 14 2023 00:23:54 GMT-0400 (Eastern Daylight Time)","649646","Trustworthy,Untrustworthy","","1777","","","","rating","","trustrating_stim/white_mw099.bmp","5","","","","","","","","","","",""
"image-keyboard-response","74","125854","0.0-6.0-2.34","640415971520c41606ca4389","bdp_trlrn","Tue Mar 14 2023 00:23:54 GMT-0400 (Eastern Daylight Time)","649646","Trustworthy,Untrustworthy","","null","","","","ratingFB","","trustrating_stim/white_mw099.bmp","null","","","","","","","","","","",""
"image-keyboard-response","75","127226","0.0-6.0-1.35","640415971520c41606ca4389","bdp_trlrn","Tue Mar 14 2023 00:23:54 GMT-0400 (Eastern Daylight Time)","649646","Trustworthy,Untrustworthy","","1253","","","","rating","","trustrating_stim/white_mw049.bmp","7","","","","","","","","","","",""
"image-keyboard-response","76","127439","0.0-6.0-2.35","640415971520c41606ca4389","bdp_trlrn","Tue Mar 14 2023 00:23:54 GMT-0400 (Eastern Daylight Time)","649646","Trustworthy,Untrustworthy","","null","","","","ratingFB","","trustrating_stim/white_mw049.bmp","null","","","","","","","","","","",""
"image-keyboard-response","77","128858","0.0-6.0-1.36","640415971520c41606ca4389","bdp_trlrn","Tue Mar 14 2023 00:23:54 GMT-0400 (Eastern Daylight Time)","649646","Trustworthy,Untrustworthy","","1309","","","","rating","","trustrating_stim/white_mw066.bmp","7","","","","","","","","","","",""
"image-keyboard-response","78","129066","0.0-6.0-2.36","640415971520c41606ca4389","bdp_trlrn","Tue Mar 14 2023 00:23:54 GMT-0400 (Eastern Daylight Time)","649646","Trustworthy,Untrustworthy","","null","","","","ratingFB","","trustrating_stim/white_mw066.bmp","null","","","","","","","","","","",""
"image-keyboard-response","79","131970","0.0-6.0-1.37","640415971520c41606ca4389","bdp_trlrn","Tue Mar 14 2023 00:23:54 GMT-0400 (Eastern Daylight Time)","649646","Trustworthy,Untrustworthy","","2792","","","","rating","","trustrating_stim/white_00340_940422_fa_edt.bmp","3","","","","","","","","","","",""
"image-keyboard-response","80","132189","0.0-6.0-2.37","640415971520c41606ca4389","bdp_trlrn","Tue Mar 14 2023 00:23:54 GMT-0400 (Eastern Daylight Time)","649646","Trustworthy,Untrustworthy","","null","","","","ratingFB","","trustrating_stim/white_00340_940422_fa_edt.bmp","null","","","","","","","","","","",""
"image-keyboard-response","81","134956","0.0-6.0-1.38","640415971520c41606ca4389","bdp_trlrn","Tue Mar 14 2023 00:23:54 GMT-0400 (Eastern Daylight Time)","649646","Trustworthy,Untrustworthy","","2658","","","","rating","","trustrating_stim/white_00129_931230_fb_edt.bmp","6","","","","","","","","","","",""
"image-keyboard-response","82","135162","0.0-6.0-2.38","640415971520c41606ca4389","bdp_trlrn","Tue Mar 14 2023 00:23:54 GMT-0400 (Eastern Daylight Time)","649646","Trustworthy,Untrustworthy","","null","","","","ratingFB","","trustrating_stim/white_00129_931230_fb_edt.bmp","null","","","","","","","","","","",""
"image-keyboard-response","83","136396","0.0-6.0-1.39","640415971520c41606ca4389","bdp_trlrn","Tue Mar 14 2023 00:23:54 GMT-0400 (Eastern Daylight Time)","649646","Trustworthy,Untrustworthy","","1114","","","","rating","","trustrating_stim/white_mw035.bmp","6","","","","","","","","","","",""
"image-keyboard-response","84","136609","0.0-6.0-2.39","640415971520c41606ca4389","bdp_trlrn","Tue Mar 14 2023 00:23:54 GMT-0400 (Eastern Daylight Time)","649646","Trustworthy,Untrustworthy","","null","","","","ratingFB","","trustrating_stim/white_mw035.bmp","null","","","","","","","","","","",""
"image-keyboard-response","85","138043","0.0-6.0-1.40","640415971520c41606ca4389","bdp_trlrn","Tue Mar 14 2023 00:23:54 GMT-0400 (Eastern Daylight Time)","649646","Trustworthy,Untrustworthy","","1324","","","","rating","","trustrating_stim/white_mw053.bmp","8","","","","","","","","","","",""
"image-keyboard-response","86","138253","0.0-6.0-2.40","640415971520c41606ca4389","bdp_trlrn","Tue Mar 14 2023 00:23:54 GMT-0400 (Eastern Daylight Time)","649646","Trustworthy,Untrustworthy","","null","","","","ratingFB","","trustrating_stim/white_mw053.bmp","null","","","","","","","","","","",""
"image-keyboard-response","87","139533","0.0-6.0-1.41","640415971520c41606ca4389","bdp_trlrn","Tue Mar 14 2023 00:23:54 GMT-0400 (Eastern Daylight Time)","649646","Trustworthy,Untrustworthy","","1170","","","","rating","","trustrating_stim/white_mw048.bmp","2","","","","","","","","","","",""
"image-keyboard-response","88","139742","0.0-6.0-2.41","640415971520c41606ca4389","bdp_trlrn","Tue Mar 14 2023 00:23:54 GMT-0400 (Eastern Daylight Time)","649646","Trustworthy,Untrustworthy","","null","","","","ratingFB","","trustrating_stim/white_mw048.bmp","null","","","","","","","","","","",""
"image-keyboard-response","89","142098","0.0-6.0-1.42","640415971520c41606ca4389","bdp_trlrn","Tue Mar 14 2023 00:23:54 GMT-0400 (Eastern Daylight Time)","649646","Trustworthy,Untrustworthy","","2240","","","","rating","","trustrating_stim/white_mw060.bmp","2","","","","","","","","","","",""
"image-keyboard-response","90","142309","0.0-6.0-2.42","640415971520c41606ca4389","bdp_trlrn","Tue Mar 14 2023 00:23:54 GMT-0400 (Eastern Daylight Time)","649646","Trustworthy,Untrustworthy","","null","","","","ratingFB","","trustrating_stim/white_mw060.bmp","null","","","","","","","","","","",""
"image-keyboard-response","91","143892","0.0-6.0-1.43","640415971520c41606ca4389","bdp_trlrn","Tue Mar 14 2023 00:23:54 GMT-0400 (Eastern Daylight Time)","649646","Trustworthy,Untrustworthy","","1472","","","","rating","","trustrating_stim/white_00757_941201_fa_edt.bmp","5","","","","","","","","","","",""
"image-keyboard-response","92","144096","0.0-6.0-2.43","640415971520c41606ca4389","bdp_trlrn","Tue Mar 14 2023 00:23:54 GMT-0400 (Eastern Daylight Time)","649646","Trustworthy,Untrustworthy","","null","","","","ratingFB","","trustrating_stim/white_00757_941201_fa_edt.bmp","null","","","","","","","","","","",""
"image-keyboard-response","93","145343","0.0-6.0-1.44","640415971520c41606ca4389","bdp_trlrn","Tue Mar 14 2023 00:23:54 GMT-0400 (Eastern Daylight Time)","649646","Trustworthy,Untrustworthy","","1137","","","","rating","","trustrating_stim/white_00120_931230_fa_edt.bmp","8","","","","","","","","","","",""
"image-keyboard-response","94","145555","0.0-6.0-2.44","640415971520c41606ca4389","bdp_trlrn","Tue Mar 14 2023 00:23:54 GMT-0400 (Eastern Daylight Time)","649646","Trustworthy,Untrustworthy","","null","","","","ratingFB","","trustrating_stim/white_00120_931230_fa_edt.bmp","null","","","","","","","","","","",""
"image-keyboard-response","95","147593","0.0-6.0-1.45","640415971520c41606ca4389","bdp_trlrn","Tue Mar 14 2023 00:23:54 GMT-0400 (Eastern Daylight Time)","649646","Trustworthy,Untrustworthy","","1928","","","","rating","","trustrating_stim/white_00519_940519_fb_edt.bmp","6","","","","","","","","","","",""
"image-keyboard-response","96","147802","0.0-6.0-2.45","640415971520c41606ca4389","bdp_trlrn","Tue Mar 14 2023 00:23:54 GMT-0400 (Eastern Daylight Time)","649646","Trustworthy,Untrustworthy","","null","","","","ratingFB","","trustrating_stim/white_00519_940519_fb_edt.bmp","null","","","","","","","","","","",""
"image-keyboard-response","97","149033","0.0-6.0-1.46","640415971520c41606ca4389","bdp_trlrn","Tue Mar 14 2023 00:23:54 GMT-0400 (Eastern Daylight Time)","649646","Trustworthy,Untrustworthy","","1127","","","","rating","","trustrating_stim/white_00761_941201_fb_edt.bmp","6","","","","","","","","","","",""
"image-keyboard-response","98","149243","0.0-6.0-2.46","640415971520c41606ca4389","bdp_trlrn","Tue Mar 14 2023 00:23:54 GMT-0400 (Eastern Daylight Time)","649646","Trustworthy,Untrustworthy","","null","","","","ratingFB","","trustrating_stim/white_00761_941201_fb_edt.bmp","null","","","","","","","","","","",""
"image-keyboard-response","99","150658","0.0-6.0-1.47","640415971520c41606ca4389","bdp_trlrn","Tue Mar 14 2023 00:23:54 GMT-0400 (Eastern Daylight Time)","649646","Trustworthy,Untrustworthy","","1296","","","","rating","","trustrating_stim/white_00223_940128_fb_edt.bmp","2","","","","","","","","","","",""
"image-keyboard-response","100","150860","0.0-6.0-2.47","640415971520c41606ca4389","bdp_trlrn","Tue Mar 14 2023 00:23:54 GMT-0400 (Eastern Daylight Time)","649646","Trustworthy,Untrustworthy","","null","","","","ratingFB","","trustrating_stim/white_00223_940128_fb_edt.bmp","null","","","","","","","","","","",""
"image-keyboard-response","101","151994","0.0-6.0-1.48","640415971520c41606ca4389","bdp_trlrn","Tue Mar 14 2023 00:23:54 GMT-0400 (Eastern Daylight Time)","649646","Trustworthy,Untrustworthy","","1014","","","","rating","","trustrating_stim/white_mw089.bmp","5","","","","","","","","","","",""
"image-keyboard-response","102","152198","0.0-6.0-2.48","640415971520c41606ca4389","bdp_trlrn","Tue Mar 14 2023 00:23:54 GMT-0400 (Eastern Daylight Time)","649646","Trustworthy,Untrustworthy","","null","","","","ratingFB","","trustrating_stim/white_mw089.bmp","null","","","","","","","","","","",""
"image-keyboard-response","103","153390","0.0-6.0-1.49","640415971520c41606ca4389","bdp_trlrn","Tue Mar 14 2023 00:23:54 GMT-0400 (Eastern Daylight Time)","649646","Trustworthy,Untrustworthy","","1071","","","","rating","","trustrating_stim/white_00602_940928_fb_edt.bmp","8","","","","","","","","","","",""
"image-keyboard-response","104","153596","0.0-6.0-2.49","640415971520c41606ca4389","bdp_trlrn","Tue Mar 14 2023 00:23:54 GMT-0400 (Eastern Daylight Time)","649646","Trustworthy,Untrustworthy","","null","","","","ratingFB","","trustrating_stim/white_00602_940928_fb_edt.bmp","null","","","","","","","","","","",""
"image-keyboard-response","105","155024","0.0-6.0-1.50","640415971520c41606ca4389","bdp_trlrn","Tue Mar 14 2023 00:23:54 GMT-0400 (Eastern Daylight Time)","649646","Trustworthy,Untrustworthy","","1314","","","","rating","","trustrating_stim/white_00299_940422_fa_edt.bmp","7","","","","","","","","","","",""
"image-keyboard-response","106","155235","0.0-6.0-2.50","640415971520c41606ca4389","bdp_trlrn","Tue Mar 14 2023 00:23:54 GMT-0400 (Eastern Daylight Time)","649646","Trustworthy,Untrustworthy","","null","","","","ratingFB","","trustrating_stim/white_00299_940422_fa_edt.bmp","null","","","","","","","","","","",""
"image-keyboard-response","107","156408","0.0-6.0-1.51","640415971520c41606ca4389","bdp_trlrn","Tue Mar 14 2023 00:23:54 GMT-0400 (Eastern Daylight Time)","649646","Trustworthy,Untrustworthy","","1064","","","","rating","","trustrating_stim/white_00577_940928_fa_edt.bmp","2","","","","","","","","","","",""
"image-keyboard-response","108","156611","0.0-6.0-2.51","640415971520c41606ca4389","bdp_trlrn","Tue Mar 14 2023 00:23:54 GMT-0400 (Eastern Daylight Time)","649646","Trustworthy,Untrustworthy","","null","","","","ratingFB","","trustrating_stim/white_00577_940928_fa_edt.bmp","null","","","","","","","","","","",""
"image-keyboard-response","109","157975","0.0-6.0-1.52","640415971520c41606ca4389","bdp_trlrn","Tue Mar 14 2023 00:23:54 GMT-0400 (Eastern Daylight Time)","649646","Trustworthy,Untrustworthy","","1254","","","","rating","","trustrating_stim/white_00807_941205_fb_edt.bmp","5","","","","","","","","","","",""
"image-keyboard-response","110","158181","0.0-6.0-2.52","640415971520c41606ca4389","bdp_trlrn","Tue Mar 14 2023 00:23:54 GMT-0400 (Eastern Daylight Time)","649646","Trustworthy,Untrustworthy","","null","","","","ratingFB","","trustrating_stim/white_00807_941205_fb_edt.bmp","null","","","","","","","","","","",""
"image-keyboard-response","111","159839","0.0-6.0-1.53","640415971520c41606ca4389","bdp_trlrn","Tue Mar 14 2023 00:23:54 GMT-0400 (Eastern Daylight Time)","649646","Trustworthy,Untrustworthy","","1550","","","","rating","","trustrating_stim/white_00659_941121_fa_edt.bmp","4","","","","","","","","","","",""
"image-keyboard-response","112","160043","0.0-6.0-2.53","640415971520c41606ca4389","bdp_trlrn","Tue Mar 14 2023 00:23:54 GMT-0400 (Eastern Daylight Time)","649646","Trustworthy,Untrustworthy","","null","","","","ratingFB","","trustrating_stim/white_00659_941121_fa_edt.bmp","null","","","","","","","","","","",""
"image-keyboard-response","113","163020","0.0-6.0-1.54","640415971520c41606ca4389","bdp_trlrn","Tue Mar 14 2023 00:23:54 GMT-0400 (Eastern Daylight Time)","649646","Trustworthy,Untrustworthy","","2865","","","","rating","","trustrating_stim/white_mw071.bmp","4","","","","","","","","","","",""
"image-keyboard-response","114","163236","0.0-6.0-2.54","640415971520c41606ca4389","bdp_trlrn","Tue Mar 14 2023 00:23:54 GMT-0400 (Eastern Daylight Time)","649646","Trustworthy,Untrustworthy","","null","","","","ratingFB","","trustrating_stim/white_mw071.bmp","null","","","","","","","","","","",""
"image-keyboard-response","115","164470","0.0-6.0-1.55","640415971520c41606ca4389","bdp_trlrn","Tue Mar 14 2023 00:23:54 GMT-0400 (Eastern Daylight Time)","649646","Trustworthy,Untrustworthy","","1119","","","","rating","","trustrating_stim/white_mw063.bmp","2","","","","","","","","","","",""
"image-keyboard-response","116","164674","0.0-6.0-2.55","640415971520c41606ca4389","bdp_trlrn","Tue Mar 14 2023 00:23:54 GMT-0400 (Eastern Daylight Time)","649646","Trustworthy,Untrustworthy","","null","","","","ratingFB","","trustrating_stim/white_mw063.bmp","null","","","","","","","","","","",""
"image-keyboard-response","117","166025","0.0-6.0-1.56","640415971520c41606ca4389","bdp_trlrn","Tue Mar 14 2023 00:23:54 GMT-0400 (Eastern Daylight Time)","649646","Trustworthy,Untrustworthy","","1243","","","","rating","","trustrating_stim/white_mw084.bmp","5","","","","","","","","","","",""
"image-keyboard-response","118","166229","0.0-6.0-2.56","640415971520c41606ca4389","bdp_trlrn","Tue Mar 14 2023 00:23:54 GMT-0400 (Eastern Daylight Time)","649646","Trustworthy,Untrustworthy","","null","","","","ratingFB","","trustrating_stim/white_mw084.bmp","null","","","","","","","","","","",""
"image-keyboard-response","119","168610","0.0-6.0-1.57","640415971520c41606ca4389","bdp_trlrn","Tue Mar 14 2023 00:23:54 GMT-0400 (Eastern Daylight Time)","649646","Trustworthy,Untrustworthy","","2267","","","","rating","","trustrating_stim/white_00785_941205_fb_edt.bmp","6","","","","","","","","","","",""
"image-keyboard-response","120","168823","0.0-6.0-2.57","640415971520c41606ca4389","bdp_trlrn","Tue Mar 14 2023 00:23:54 GMT-0400 (Eastern Daylight Time)","649646","Trustworthy,Untrustworthy","","null","","","","ratingFB","","trustrating_stim/white_00785_941205_fb_edt.bmp","null","","","","","","","","","","",""
"image-keyboard-response","121","169905","0.0-6.0-1.58","640415971520c41606ca4389","bdp_trlrn","Tue Mar 14 2023 00:23:54 GMT-0400 (Eastern Daylight Time)","649646","Trustworthy,Untrustworthy","","964","","","","rating","","trustrating_stim/white_00109_931230_fa_edt.bmp","8","","","","","","","","","","",""
"image-keyboard-response","122","170117","0.0-6.0-2.58","640415971520c41606ca4389","bdp_trlrn","Tue Mar 14 2023 00:23:54 GMT-0400 (Eastern Daylight Time)","649646","Trustworthy,Untrustworthy","","null","","","","ratingFB","","trustrating_stim/white_00109_931230_fa_edt.bmp","null","","","","","","","","","","",""
"image-keyboard-response","123","171251","0.0-6.0-1.59","640415971520c41606ca4389","bdp_trlrn","Tue Mar 14 2023 00:23:54 GMT-0400 (Eastern Daylight Time)","649646","Trustworthy,Untrustworthy","","1023","","","","rating","","trustrating_stim/white_mw097.bmp","2","","","","","","","","","","",""
"image-keyboard-response","124","171463","0.0-6.0-2.59","640415971520c41606ca4389","bdp_trlrn","Tue Mar 14 2023 00:23:54 GMT-0400 (Eastern Daylight Time)","649646","Trustworthy,Untrustworthy","","null","","","","ratingFB","","trustrating_stim/white_mw097.bmp","null","","","","","","","","","","",""
"instructions","125","176537","0.0-7.0","640415971520c41606ca4389","bdp_trlrn","Tue Mar 14 2023 00:23:54 GMT-0400 (Eastern Daylight Time)","649646","Trustworthy,Untrustworthy","[{""page_index"":0,""viewing_time"":4954}]","4954","","","","","","","","","","","","","","","","","",""
"instructions","126","295728","0.0-8.0","640415971520c41606ca4389","bdp_trlrn","Tue Mar 14 2023 00:23:54 GMT-0400 (Eastern Daylight Time)","649646","Trustworthy,Untrustworthy","[{""page_index"":0,""viewing_time"":26538},{""page_index"":1,""viewing_time"":13034},{""page_index"":2,""viewing_time"":8236},{""page_index"":3,""viewing_time"":17196},{""page_index"":4,""viewing_time"":13670},{""page_index"":5,""viewing_time"":11446},{""page_index"":6,""viewing_time"":21513},{""page_index"":7,""viewing_time"":7455}]","119088","","","","","","","","","","","","","","","","","",""
"html-keyboard-response","127","301319","0.0-9.0","640415971520c41606ca4389","bdp_trlrn","Tue Mar 14 2023 00:23:54 GMT-0400 (Eastern Daylight Time)","649646","Trustworthy,Untrustworthy","","5588","","","","","","<div class='header' style='text-align:left; position: absolute; top: 5%; left: 5%;'><small>Task 2 of 5</small></div><div class='instruxDiv'><p><strong>1) What is the minimum number of points you can choose to send to your partner?</strong></p><p>a) 0</p><p>b) 1</p><p>c) 5</p>","A","","","","","","","","","","",""
"html-keyboard-response","128","306066","0.0-10.0","640415971520c41606ca4389","bdp_trlrn","Tue Mar 14 2023 00:23:54 GMT-0400 (Eastern Daylight Time)","649646","Trustworthy,Untrustworthy","","4640","","","","","","<div class='header' style='text-align:left; position: absolute; top: 5%; left: 5%;'><small>Task 2 of 5</small></div><div class='instruxDiv'><p><strong>1) What is the minimum number of points you can choose to send to your partner?</strong></p><p style='color:#FF0000'>a) 0</p><p>b) 1</p><p>c) 5</p><h3 style='color:#FF0000'>Incorrect!</h3><h3 class='center-content'>The correct response is b).</h3><h3 class='center-content'>The minimum number of points you can choose to send to your partner is 1 point.</h3><p><em>Press SPACEBAR to continue</em></p></div>"," ","","","","","","","","","","",""
"html-keyboard-response","129","310488","0.0-11.0","640415971520c41606ca4389","bdp_trlrn","Tue Mar 14 2023 00:23:54 GMT-0400 (Eastern Daylight Time)","649646","Trustworthy,Untrustworthy","","4309","","","","","","<div class='header' style='text-align:left; position: absolute; top: 5%; left: 5%;'><small>Task 2 of 5</small></div><div class='instruxDiv'><p><strong>2) What is the maximum number of points you can choose to send to your partner?</strong></p><p>a) 8</p><p>b) 5</p><p>c) 3</p>","B","","","","","","","","","","",""
"html-keyboard-response","130","312539","0.0-12.0","640415971520c41606ca4389","bdp_trlrn","Tue Mar 14 2023 00:23:54 GMT-0400 (Eastern Daylight Time)","649646","Trustworthy,Untrustworthy","","1945","","","","","","<div class='header' style='text-align:left; position: absolute; top: 5%; left: 5%;'><small>Task 2 of 5</small></div><div class='instruxDiv'><p><strong>2) What is the maximum number of points you can choose to send to your partner?</strong></p><p>a) 8</p><p style='color:#00FF00'>b) 5</p><p>c) 3</p><h3 style='color:#00FF00'>Correct!</h3><h3 class='center-content'>The correct response is b).</h3><h3 class='center-content'>The maximum number of points you can choose to send to your partner is 5 points.</h3><p><em>Press SPACEBAR to continue</em></p></div>"," ","","","","","","","","","","",""
"html-keyboard-response","131","318734","0.0-13.0","640415971520c41606ca4389","bdp_trlrn","Tue Mar 14 2023 00:23:54 GMT-0400 (Eastern Daylight Time)","649646","Trustworthy,Untrustworthy","","6089","","","","","","<div class='header' style='text-align:left; position: absolute; top: 5%; left: 5%;'><small>Task 2 of 5</small></div><div class='instruxDiv'><p><strong>3) What happens to the amount of points you send to your partner?</strong></p><p>a) Nothing</p><p>b) It doubles</p><p>c) It quadruples</p>","C","","","","","","","","","","",""
"html-keyboard-response","132","320258","0.0-14.0","640415971520c41606ca4389","bdp_trlrn","Tue Mar 14 2023 00:23:54 GMT-0400 (Eastern Daylight Time)","649646","Trustworthy,Untrustworthy","","1414","","","","","","<div class='header' style='text-align:left; position: absolute; top: 5%; left: 5%;'><small>Task 2 of 5</small></div><div class='instruxDiv'><p><strong>3) What happens to the amount of points you send to your partner?</strong></p><p>a) Nothing</p><p>b) It doubles</p><p style='color:#00FF00'>c) It quadruples</p><h3 style='color:#00FF00'>Correct!</h3><h3 class='center-content'>The correct response is c).</h3><h3 class='center-content'>The amount of points you send to your partner quadruples.</h3><p><em>Press SPACEBAR to continue</em></p></div>"," ","","","","","","","","","","",""
"html-keyboard-response","133","335326","0.0-15.0","640415971520c41606ca4389","bdp_trlrn","Tue Mar 14 2023 00:23:54 GMT-0400 (Eastern Daylight Time)","649646","Trustworthy,Untrustworthy","","14954","","","","","","<div class='header' style='text-align:left; position: absolute; top: 5%; left: 5%;'><small>Task 2 of 5</small></div><div class='instruxDiv'><p><strong>4) If you decided to share 4 out of 5 points with your partner, and they decided to share half of the amount they received with you, how many points would you receive back from them on this round?</strong></p><p>a) 16</p><p>b) 0</p><p>c) 8</p>","C","","","","","","","","","","",""
"html-keyboard-response","134","337750","0.0-16.0","640415971520c41606ca4389","bdp_trlrn","Tue Mar 14 2023 00:23:54 GMT-0400 (Eastern Daylight Time)","649646","Trustworthy,Untrustworthy","","2318","","","","","","<div class='header' style='text-align:left; position: absolute; top: 5%; left: 5%;'><small>Task 2 of 5</small></div><div class='instruxDiv'><p><strong>4) If you decided to share 4 out of 5 points with your partner, and they decided to share half of the amount they received with you, how many points would you receive back from them on this round?</strong></p><p>a) 16</p><p>b) 0</p><p style='color:#00FF00'>c) 8</p><h3 style='color:#00FF00'>Correct!</h3><h3 class='center-content'>The correct response is c).</h3><h3 class='center-content'>If you shared 4 out of 5 points with your partner and they decided to share half of the amount they received with you, you would receive 8 points back (i.e. (4 x 4)/2 = 8).</h3><p><em>Press SPACEBAR to continue</em></p></div>"," ","","","","","","","","","","",""
"html-keyboard-response","135","342872","0.0-17.0","640415971520c41606ca4389","bdp_trlrn","Tue Mar 14 2023 00:23:54 GMT-0400 (Eastern Daylight Time)","649646","Trustworthy,Untrustworthy","","null","","","","","","<div class='header' style='text-align:left; position: absolute; top: 5%; left: 5%;'><small>Task 2 of 5</small></div><div class='instruxDiv'><p>Thank you for completing the quiz<p>These are the actual partners you will be interacting with in the next block:<p><div class='tc' align='center'><img class='introPic' src='trustrating_stim/white_00577_940928_fa_edt.bmp'><br><strong>Matthew</strong></div><div class='bl' align='center'><img class='introPic' src='trustrating_stim/white_00785_941205_fb_edt.bmp'><br><strong>Jacob</strong></div><div class='br' align='center'><img class='introPic' src='trustrating_stim/white_00109_931230_fa_edt.bmp'><br><strong>Jonathan</strong></div></div><p>Across <strong>66 rounds</strong> you will interact with each partner <strong>22 times</strong> (in random order).<p style='align:center; color:white'><font <em>Press SPACEBAR to continue</em></p>","null","","","","","","","","","","",""
"instructions","136","358067","0.0-18.0","640415971520c41606ca4389","bdp_trlrn","Tue Mar 14 2023 00:23:54 GMT-0400 (Eastern Daylight Time)","649646","Trustworthy,Untrustworthy","[{""page_index"":0,""viewing_time"":7572},{""page_index"":1,""viewing_time"":7621}]","15193","","","","","","","","","","","","","","","","","",""
"html-keyboard-response","137","361229","0.0-19.0-1.0","640415971520c41606ca4389","bdp_trlrn","Tue Mar 14 2023 00:23:54 GMT-0400 (Eastern Daylight Time)","649646","Trustworthy,Untrustworthy","","3054","","","","decision","","<div class='trialDiv'><img src='trustrating_stim/white_00577_940928_fa_edt.bmp'><br><font class='baseline'><strong>Matthew</strong><p>Choose number of points to send.</font><div class='respPicDiv'><img src='img/responseButtonOffersNo0L.png' class='respPic'></div></div>","2","1","Matthew","0","Kept","0.2,0.8","9","0.2","trustrating_stim/white_00577_940928_fa_edt.bmp","2","5","1"
"html-keyboard-response","138","361484","0.0-19.0-2.0","640415971520c41606ca4389","bdp_trlrn","Tue Mar 14 2023 00:23:54 GMT-0400 (Eastern Daylight Time)","649646","Trustworthy,Untrustworthy","","null","","","","decisionFB","","<div class='trialDiv'><img src='trustrating_stim/white_00577_940928_fa_edt.bmp'><br><font class='baseline'><strong>Matthew</strong><p>Choose number of points to send.</font><div class='respPicDiv'><img src='img/responseButtonOffersNo0L2.png' class='respPic'></div></div>","null","1","Matthew","0","Kept","0.2,0.8","9","0.2","trustrating_stim/white_00577_940928_fa_edt.bmp","2","3","1"
"html-keyboard-response","139","362491","0.0-19.0-3.0","640415971520c41606ca4389","bdp_trlrn","Tue Mar 14 2023 00:23:54 GMT-0400 (Eastern Daylight Time)","649646","Trustworthy,Untrustworthy","","null","","","","feedback","","<div class='trialDiv'><img src='trustrating_stim/white_00577_940928_fa_edt.bmp'><br><font class='baseline'><strong>Matthew</strong><p>Received: <strong>8</strong></font> &nbsp; &nbsp; &nbsp; &nbsp; &nbsp; &nbsp;<font class='negOutcome'>Shared back: <strong>0</strong></font></font><div class='respPicDiv'><img src='img/responseButtonOffersNo0_wht.png' class='respPic'></div></div>","null","1","Matthew","0","Kept","0.2,0.8","9","0.2","trustrating_stim/white_00577_940928_fa_edt.bmp","2","3","1"
"html-keyboard-response","140","365335","0.0-19.0-1.1","640415971520c41606ca4389","bdp_trlrn","Tue Mar 14 2023 00:23:54 GMT-0400 (Eastern Daylight Time)","649646","Trustworthy,Untrustworthy","","2841","","","","decision","","<div class='trialDiv'><img src='trustrating_stim/white_00109_931230_fa_edt.bmp'><br><font class='baseline'><strong>Jonathan</strong><p>Choose number of points to send.</font><div class='respPicDiv'><img src='img/responseButtonOffersNo0L.png' class='respPic'></div></div>","4","1","Jonathan","9","Kept","0.8,0.35","11","0.8","trustrating_stim/white_00109_931230_fa_edt.bmp","7.5","8","2"
"html-keyboard-response","141","365591","0.0-19.0-2.1","640415971520c41606ca4389","bdp_trlrn","Tue Mar 14 2023 00:23:54 GMT-0400 (Eastern Daylight Time)","649646","Trustworthy,Untrustworthy","","null","","","","decisionFB","","<div class='trialDiv'><img src='trustrating_stim/white_00109_931230_fa_edt.bmp'><br><font class='baseline'><strong>Jonathan</strong><p>Choose number of points to send.</font><div class='respPicDiv'><img src='img/responseButtonOffersNo0L4.png' class='respPic'></div></div>","null","1","Jonathan","9","Kept","0.8,0.35","11","0.8","trustrating_stim/white_00109_931230_fa_edt.bmp","7.5","4","2"
"html-keyboard-response","142","366599","0.0-19.0-3.1","640415971520c41606ca4389","bdp_trlrn","Tue Mar 14 2023 00:23:54 GMT-0400 (Eastern Daylight Time)","649646","Trustworthy,Untrustworthy","","null","","","","feedback","","<div class='trialDiv'><img src='trustrating_stim/white_00109_931230_fa_edt.bmp'><br><font class='baseline'><strong>Jonathan</strong><p>Received: <strong>16</strong></font> &nbsp; &nbsp; &nbsp; &nbsp; &nbsp; &nbsp;<font class='negOutcome'>Shared back: <strong>0</strong></font></font><div class='respPicDiv'><img src='img/responseButtonOffersNo0_wht.png' class='respPic'></div></div>","null","1","Jonathan","9","Kept","0.8,0.35","11","0.8","trustrating_stim/white_00109_931230_fa_edt.bmp","7.5","4","2"
"html-keyboard-response","143","368001","0.0-19.0-1.2","640415971520c41606ca4389","bdp_trlrn","Tue Mar 14 2023 00:23:54 GMT-0400 (Eastern Daylight Time)","649646","Trustworthy,Untrustworthy","","1400","","","","decision","","<div class='trialDiv'><img src='trustrating_stim/white_00785_941205_fb_edt.bmp'><br><font class='baseline'><strong>Jacob</strong><p>Choose number of points to send.</font><div class='respPicDiv'><img src='img/responseButtonOffersNo0L.png' class='respPic'></div></div>","3","1","Jacob","4","Kept","0.2,0.65","10","0.2","trustrating_stim/white_00785_941205_fb_edt.bmp","5","9","3"
"html-keyboard-response","144","368260","0.0-19.0-2.2","640415971520c41606ca4389","bdp_trlrn","Tue Mar 14 2023 00:23:54 GMT-0400 (Eastern Daylight Time)","649646","Trustworthy,Untrustworthy","","null","","","","decisionFB","","<div class='trialDiv'><img src='trustrating_stim/white_00785_941205_fb_edt.bmp'><br><font class='baseline'><strong>Jacob</strong><p>Choose number of points to send.</font><div class='respPicDiv'><img src='img/responseButtonOffersNo0L3.png' class='respPic'></div></div>","null","1","Jacob","4","Kept","0.2,0.65","10","0.2","trustrating_stim/white_00785_941205_fb_edt.bmp","5","6","3"
"html-keyboard-response","145","369270","0.0-19.0-3.2","640415971520c41606ca4389","bdp_trlrn","Tue Mar 14 2023 00:23:54 GMT-0400 (Eastern Daylight Time)","649646","Trustworthy,Untrustworthy","","null","","","","feedback","","<div class='trialDiv'><img src='trustrating_stim/white_00785_941205_fb_edt.bmp'><br><font class='baseline'><strong>Jacob</strong><p>Received: <strong>12</strong></font> &nbsp; &nbsp; &nbsp; &nbsp; &nbsp; &nbsp;<font class='negOutcome'>Shared back: <strong>0</strong></font></font><div class='respPicDiv'><img src='img/responseButtonOffersNo0_wht.png' class='respPic'></div></div>","null","1","Jacob","4","Kept","0.2,0.65","10","0.2","trustrating_stim/white_00785_941205_fb_edt.bmp","5","6","3"
"html-keyboard-response","146","370665","0.0-19.0-1.3","640415971520c41606ca4389","bdp_trlrn","Tue Mar 14 2023 00:23:54 GMT-0400 (Eastern Daylight Time)","649646","Trustworthy,Untrustworthy","","1395","","","","decision","","<div class='trialDiv'><img src='trustrating_stim/white_00109_931230_fa_edt.bmp'><br><font class='baseline'><strong>Jonathan</strong><p>Choose number of points to send.</font><div class='respPicDiv'><img src='img/responseButtonOffersNo0L.png' class='respPic'></div></div>","3","2","Jonathan","9","Shared","0.8,0.35","11","0.8","trustrating_stim/white_00109_931230_fa_edt.bmp","7.5","11","4"
"html-keyboard-response","147","370928","0.0-19.0-2.3","640415971520c41606ca4389","bdp_trlrn","Tue Mar 14 2023 00:23:54 GMT-0400 (Eastern Daylight Time)","649646","Trustworthy,Untrustworthy","","null","","","","decisionFB","","<div class='trialDiv'><img src='trustrating_stim/white_00109_931230_fa_edt.bmp'><br><font class='baseline'><strong>Jonathan</strong><p>Choose number of points to send.</font><div class='respPicDiv'><img src='img/responseButtonOffersNo0L3.png' class='respPic'></div></div>","null","2","Jonathan","9","Shared","0.8,0.35","11","0.8","trustrating_stim/white_00109_931230_fa_edt.bmp","7.5","8","4"
"html-keyboard-response","148","371932","0.0-19.0-3.3","640415971520c41606ca4389","bdp_trlrn","Tue Mar 14 2023 00:23:54 GMT-0400 (Eastern Daylight Time)","649646","Trustworthy,Untrustworthy","","null","","","","feedback","","<div class='trialDiv'><img src='trustrating_stim/white_00109_931230_fa_edt.bmp'><br><font class='baseline'><strong>Jonathan</strong><p>Received: <strong>12</strong></font> &nbsp; &nbsp; &nbsp; &nbsp; &nbsp; &nbsp;<font class='posOutcome'>Shared back: <strong>6</strong></font></font><div class='respPicDiv'><img src='img/responseButtonOffersNo0_wht.png' class='respPic'></div></div>","null","2","Jonathan","9","Shared","0.8,0.35","11","0.8","trustrating_stim/white_00109_931230_fa_edt.bmp","7.5","14","4"
"html-keyboard-response","149","373149","0.0-19.0-1.4","640415971520c41606ca4389","bdp_trlrn","Tue Mar 14 2023 00:23:54 GMT-0400 (Eastern Daylight Time)","649646","Trustworthy,Untrustworthy","","1216","","","","decision","","<div class='trialDiv'><img src='trustrating_stim/white_00577_940928_fa_edt.bmp'><br><font class='baseline'><strong>Matthew</strong><p>Choose number of points to send.</font><div class='respPicDiv'><img src='img/responseButtonOffersNo0L.png' class='respPic'></div></div>","2","2","Matthew","0","Kept","0.2,0.8","9","0.2","trustrating_stim/white_00577_940928_fa_edt.bmp","2","19","5"
"html-keyboard-response","150","373405","0.0-19.0-2.4","640415971520c41606ca4389","bdp_trlrn","Tue Mar 14 2023 00:23:54 GMT-0400 (Eastern Daylight Time)","649646","Trustworthy,Untrustworthy","","null","","","","decisionFB","","<div class='trialDiv'><img src='trustrating_stim/white_00577_940928_fa_edt.bmp'><br><font class='baseline'><strong>Matthew</strong><p>Choose number of points to send.</font><div class='respPicDiv'><img src='img/responseButtonOffersNo0L2.png' class='respPic'></div></div>","null","2","Matthew","0","Kept","0.2,0.8","9","0.2","trustrating_stim/white_00577_940928_fa_edt.bmp","2","17","5"
"html-keyboard-response","151","374413","0.0-19.0-3.4","640415971520c41606ca4389","bdp_trlrn","Tue Mar 14 2023 00:23:54 GMT-0400 (Eastern Daylight Time)","649646","Trustworthy,Untrustworthy","","null","","","","feedback","","<div class='trialDiv'><img src='trustrating_stim/white_00577_940928_fa_edt.bmp'><br><font class='baseline'><strong>Matthew</strong><p>Received: <strong>8</strong></font> &nbsp; &nbsp; &nbsp; &nbsp; &nbsp; &nbsp;<font class='negOutcome'>Shared back: <strong>0</strong></font></font><div class='respPicDiv'><img src='img/responseButtonOffersNo0_wht.png' class='respPic'></div></div>","null","2","Matthew","0","Kept","0.2,0.8","9","0.2","trustrating_stim/white_00577_940928_fa_edt.bmp","2","17","5"
"html-keyboard-response","152","375781","0.0-19.0-1.5","640415971520c41606ca4389","bdp_trlrn","Tue Mar 14 2023 00:23:54 GMT-0400 (Eastern Daylight Time)","649646","Trustworthy,Untrustworthy","","1367","","","","decision","","<div class='trialDiv'><img src='trustrating_stim/white_00785_941205_fb_edt.bmp'><br><font class='baseline'><strong>Jacob</strong><p>Choose number of points to send.</font><div class='respPicDiv'><img src='img/responseButtonOffersNo0L.png' class='respPic'></div></div>","2","2","Jacob","4","Kept","0.2,0.65","10","0.2","trustrating_stim/white_00785_941205_fb_edt.bmp","5","22","6"
"html-keyboard-response","153","376040","0.0-19.0-2.5","640415971520c41606ca4389","bdp_trlrn","Tue Mar 14 2023 00:23:54 GMT-0400 (Eastern Daylight Time)","649646","Trustworthy,Untrustworthy","","null","","","","decisionFB","","<div class='trialDiv'><img src='trustrating_stim/white_00785_941205_fb_edt.bmp'><br><font class='baseline'><strong>Jacob</strong><p>Choose number of points to send.</font><div class='respPicDiv'><img src='img/responseButtonOffersNo0L2.png' class='respPic'></div></div>","null","2","Jacob","4","Kept","0.2,0.65","10","0.2","trustrating_stim/white_00785_941205_fb_edt.bmp","5","20","6"
"html-keyboard-response","154","377055","0.0-19.0-3.5","640415971520c41606ca4389","bdp_trlrn","Tue Mar 14 2023 00:23:54 GMT-0400 (Eastern Daylight Time)","649646","Trustworthy,Untrustworthy","","null","","","","feedback","","<div class='trialDiv'><img src='trustrating_stim/white_00785_941205_fb_edt.bmp'><br><font class='baseline'><strong>Jacob</strong><p>Received: <strong>8</strong></font> &nbsp; &nbsp; &nbsp; &nbsp; &nbsp; &nbsp;<font class='negOutcome'>Shared back: <strong>0</strong></font></font><div class='respPicDiv'><img src='img/responseButtonOffersNo0_wht.png' class='respPic'></div></div>","null","2","Jacob","4","Kept","0.2,0.65","10","0.2","trustrating_stim/white_00785_941205_fb_edt.bmp","5","20","6"
"html-keyboard-response","155","378212","0.0-19.0-1.6","640415971520c41606ca4389","bdp_trlrn","Tue Mar 14 2023 00:23:54 GMT-0400 (Eastern Daylight Time)","649646","Trustworthy,Untrustworthy","","1156","","","","decision","","<div class='trialDiv'><img src='trustrating_stim/white_00577_940928_fa_edt.bmp'><br><font class='baseline'><strong>Matthew</strong><p>Choose number of points to send.</font><div class='respPicDiv'><img src='img/responseButtonOffersNo0L.png' class='respPic'></div></div>","1","3","Matthew","0","Kept","0.2,0.8","9","0.2","trustrating_stim/white_00577_940928_fa_edt.bmp","2","25","7"
"html-keyboard-response","156","378465","0.0-19.0-2.6","640415971520c41606ca4389","bdp_trlrn","Tue Mar 14 2023 00:23:54 GMT-0400 (Eastern Daylight Time)","649646","Trustworthy,Untrustworthy","","null","","","","decisionFB","","<div class='trialDiv'><img src='trustrating_stim/white_00577_940928_fa_edt.bmp'><br><font class='baseline'><strong>Matthew</strong><p>Choose number of points to send.</font><div class='respPicDiv'><img src='img/responseButtonOffersNo0L1.png' class='respPic'></div></div>","null","3","Matthew","0","Kept","0.2,0.8","9","0.2","trustrating_stim/white_00577_940928_fa_edt.bmp","2","24","7"
"html-keyboard-response","157","379480","0.0-19.0-3.6","640415971520c41606ca4389","bdp_trlrn","Tue Mar 14 2023 00:23:54 GMT-0400 (Eastern Daylight Time)","649646","Trustworthy,Untrustworthy","","null","","","","feedback","","<div class='trialDiv'><img src='trustrating_stim/white_00577_940928_fa_edt.bmp'><br><font class='baseline'><strong>Matthew</strong><p>Received: <strong>4</strong></font> &nbsp; &nbsp; &nbsp; &nbsp; &nbsp; &nbsp;<font class='negOutcome'>Shared back: <strong>0</strong></font></font><div class='respPicDiv'><img src='img/responseButtonOffersNo0_wht.png' class='respPic'></div></div>","null","3","Matthew","0","Kept","0.2,0.8","9","0.2","trustrating_stim/white_00577_940928_fa_edt.bmp","2","24","7"
"html-keyboard-response","158","380503","0.0-19.0-1.7","640415971520c41606ca4389","bdp_trlrn","Tue Mar 14 2023 00:23:54 GMT-0400 (Eastern Daylight Time)","649646","Trustworthy,Untrustworthy","","1021","","","","decision","","<div class='trialDiv'><img src='trustrating_stim/white_00109_931230_fa_edt.bmp'><br><font class='baseline'><strong>Jonathan</strong><p>Choose number of points to send.</font><div class='respPicDiv'><img src='img/responseButtonOffersNo0L.png' class='respPic'></div></div>","3","3","Jonathan","9","Kept","0.8,0.35","11","0.8","trustrating_stim/white_00109_931230_fa_edt.bmp","7.5","29","8"
"html-keyboard-response","159","380757","0.0-19.0-2.7","640415971520c41606ca4389","bdp_trlrn","Tue Mar 14 2023 00:23:54 GMT-0400 (Eastern Daylight Time)","649646","Trustworthy,Untrustworthy","","null","","","","decisionFB","","<div class='trialDiv'><img src='trustrating_stim/white_00109_931230_fa_edt.bmp'><br><font class='baseline'><strong>Jonathan</strong><p>Choose number of points to send.</font><div class='respPicDiv'><img src='img/responseButtonOffersNo0L3.png' class='respPic'></div></div>","null","3","Jonathan","9","Kept","0.8,0.35","11","0.8","trustrating_stim/white_00109_931230_fa_edt.bmp","7.5","26","8"
"html-keyboard-response","160","381767","0.0-19.0-3.7","640415971520c41606ca4389","bdp_trlrn","Tue Mar 14 2023 00:23:54 GMT-0400 (Eastern Daylight Time)","649646","Trustworthy,Untrustworthy","","null","","","","feedback","","<div class='trialDiv'><img src='trustrating_stim/white_00109_931230_fa_edt.bmp'><br><font class='baseline'><strong>Jonathan</strong><p>Received: <strong>12</strong></font> &nbsp; &nbsp; &nbsp; &nbsp; &nbsp; &nbsp;<font class='negOutcome'>Shared back: <strong>0</strong></font></font><div class='respPicDiv'><img src='img/responseButtonOffersNo0_wht.png' class='respPic'></div></div>","null","3","Jonathan","9","Kept","0.8,0.35","11","0.8","trustrating_stim/white_00109_931230_fa_edt.bmp","7.5","26","8"
"html-keyboard-response","161","382914","0.0-19.0-1.8","640415971520c41606ca4389","bdp_trlrn","Tue Mar 14 2023 00:23:54 GMT-0400 (Eastern Daylight Time)","649646","Trustworthy,Untrustworthy","","1145","","","","decision","","<div class='trialDiv'><img src='trustrating_stim/white_00785_941205_fb_edt.bmp'><br><font class='baseline'><strong>Jacob</strong><p>Choose number of points to send.</font><div class='respPicDiv'><img src='img/responseButtonOffersNo0L.png' class='respPic'></div></div>","1","3","Jacob","4","Kept","0.2,0.65","10","0.2","trustrating_stim/white_00785_941205_fb_edt.bmp","5","31","9"
"html-keyboard-response","162","383174","0.0-19.0-2.8","640415971520c41606ca4389","bdp_trlrn","Tue Mar 14 2023 00:23:54 GMT-0400 (Eastern Daylight Time)","649646","Trustworthy,Untrustworthy","","null","","","","decisionFB","","<div class='trialDiv'><img src='trustrating_stim/white_00785_941205_fb_edt.bmp'><br><font class='baseline'><strong>Jacob</strong><p>Choose number of points to send.</font><div class='respPicDiv'><img src='img/responseButtonOffersNo0L1.png' class='respPic'></div></div>","null","3","Jacob","4","Kept","0.2,0.65","10","0.2","trustrating_stim/white_00785_941205_fb_edt.bmp","5","30","9"
"html-keyboard-response","163","384177","0.0-19.0-3.8","640415971520c41606ca4389","bdp_trlrn","Tue Mar 14 2023 00:23:54 GMT-0400 (Eastern Daylight Time)","649646","Trustworthy,Untrustworthy","","null","","","","feedback","","<div class='trialDiv'><img src='trustrating_stim/white_00785_941205_fb_edt.bmp'><br><font class='baseline'><strong>Jacob</strong><p>Received: <strong>4</strong></font> &nbsp; &nbsp; &nbsp; &nbsp; &nbsp; &nbsp;<font class='negOutcome'>Shared back: <strong>0</strong></font></font><div class='respPicDiv'><img src='img/responseButtonOffersNo0_wht.png' class='respPic'></div></div>","null","3","Jacob","4","Kept","0.2,0.65","10","0.2","trustrating_stim/white_00785_941205_fb_edt.bmp","5","30","9"
"html-keyboard-response","164","385085","0.0-19.0-1.9","640415971520c41606ca4389","bdp_trlrn","Tue Mar 14 2023 00:23:54 GMT-0400 (Eastern Daylight Time)","649646","Trustworthy,Untrustworthy","","906","","","","decision","","<div class='trialDiv'><img src='trustrating_stim/white_00577_940928_fa_edt.bmp'><br><font class='baseline'><strong>Matthew</strong><p>Choose number of points to send.</font><div class='respPicDiv'><img src='img/responseButtonOffersNo0L.png' class='respPic'></div></div>","1","4","Matthew","0","Shared","0.2,0.8","9","0.2","trustrating_stim/white_00577_940928_fa_edt.bmp","2","35","10"
"html-keyboard-response","165","385346","0.0-19.0-2.9","640415971520c41606ca4389","bdp_trlrn","Tue Mar 14 2023 00:23:54 GMT-0400 (Eastern Daylight Time)","649646","Trustworthy,Untrustworthy","","null","","","","decisionFB","","<div class='trialDiv'><img src='trustrating_stim/white_00577_940928_fa_edt.bmp'><br><font class='baseline'><strong>Matthew</strong><p>Choose number of points to send.</font><div class='respPicDiv'><img src='img/responseButtonOffersNo0L1.png' class='respPic'></div></div>","null","4","Matthew","0","Shared","0.2,0.8","9","0.2","trustrating_stim/white_00577_940928_fa_edt.bmp","2","34","10"
"html-keyboard-response","166","386349","0.0-19.0-3.9","640415971520c41606ca4389","bdp_trlrn","Tue Mar 14 2023 00:23:54 GMT-0400 (Eastern Daylight Time)","649646","Trustworthy,Untrustworthy","","null","","","","feedback","","<div class='trialDiv'><img src='trustrating_stim/white_00577_940928_fa_edt.bmp'><br><font class='baseline'><strong>Matthew</strong><p>Received: <strong>4</strong></font> &nbsp; &nbsp; &nbsp; &nbsp; &nbsp; &nbsp;<font class='posOutcome'>Shared back: <strong>2</strong></font></font><div class='respPicDiv'><img src='img/responseButtonOffersNo0_wht.png' class='respPic'></div></div>","null","4","Matthew","0","Shared","0.2,0.8","9","0.2","trustrating_stim/white_00577_940928_fa_edt.bmp","2","36","10"
"html-keyboard-response","167","387985","0.0-19.0-1.10","640415971520c41606ca4389","bdp_trlrn","Tue Mar 14 2023 00:23:54 GMT-0400 (Eastern Daylight Time)","649646","Trustworthy,Untrustworthy","","1634","","","","decision","","<div class='trialDiv'><img src='trustrating_stim/white_00785_941205_fb_edt.bmp'><br><font class='baseline'><strong>Jacob</strong><p>Choose number of points to send.</font><div class='respPicDiv'><img src='img/responseButtonOffersNo0L.png' class='respPic'></div></div>","2","4","Jacob","4","Kept","0.2,0.65","10","0.2","trustrating_stim/white_00785_941205_fb_edt.bmp","5","41","11"
"html-keyboard-response","168","388248","0.0-19.0-2.10","640415971520c41606ca4389","bdp_trlrn","Tue Mar 14 2023 00:23:54 GMT-0400 (Eastern Daylight Time)","649646","Trustworthy,Untrustworthy","","null","","","","decisionFB","","<div class='trialDiv'><img src='trustrating_stim/white_00785_941205_fb_edt.bmp'><br><font class='baseline'><strong>Jacob</strong><p>Choose number of points to send.</font><div class='respPicDiv'><img src='img/responseButtonOffersNo0L2.png' class='respPic'></div></div>","null","4","Jacob","4","Kept","0.2,0.65","10","0.2","trustrating_stim/white_00785_941205_fb_edt.bmp","5","39","11"
"html-keyboard-response","169","389257","0.0-19.0-3.10","640415971520c41606ca4389","bdp_trlrn","Tue Mar 14 2023 00:23:54 GMT-0400 (Eastern Daylight Time)","649646","Trustworthy,Untrustworthy","","null","","","","feedback","","<div class='trialDiv'><img src='trustrating_stim/white_00785_941205_fb_edt.bmp'><br><font class='baseline'><strong>Jacob</strong><p>Received: <strong>8</strong></font> &nbsp; &nbsp; &nbsp; &nbsp; &nbsp; &nbsp;<font class='negOutcome'>Shared back: <strong>0</strong></font></font><div class='respPicDiv'><img src='img/responseButtonOffersNo0_wht.png' class='respPic'></div></div>","null","4","Jacob","4","Kept","0.2,0.65","10","0.2","trustrating_stim/white_00785_941205_fb_edt.bmp","5","39","11"
"html-keyboard-response","170","390539","0.0-19.0-1.11","640415971520c41606ca4389","bdp_trlrn","Tue Mar 14 2023 00:23:54 GMT-0400 (Eastern Daylight Time)","649646","Trustworthy,Untrustworthy","","1280","","","","decision","","<div class='trialDiv'><img src='trustrating_stim/white_00109_931230_fa_edt.bmp'><br><font class='baseline'><strong>Jonathan</strong><p>Choose number of points to send.</font><div class='respPicDiv'><img src='img/responseButtonOffersNo0L.png' class='respPic'></div></div>","2","4","Jonathan","9","Shared","0.8,0.35","11","0.8","trustrating_stim/white_00109_931230_fa_edt.bmp","7.5","44","12"
"html-keyboard-response","171","390793","0.0-19.0-2.11","640415971520c41606ca4389","bdp_trlrn","Tue Mar 14 2023 00:23:54 GMT-0400 (Eastern Daylight Time)","649646","Trustworthy,Untrustworthy","","null","","","","decisionFB","","<div class='trialDiv'><img src='trustrating_stim/white_00109_931230_fa_edt.bmp'><br><font class='baseline'><strong>Jonathan</strong><p>Choose number of points to send.</font><div class='respPicDiv'><img src='img/responseButtonOffersNo0L2.png' class='respPic'></div></div>","null","4","Jonathan","9","Shared","0.8,0.35","11","0.8","trustrating_stim/white_00109_931230_fa_edt.bmp","7.5","42","12"
"html-keyboard-response","172","391805","0.0-19.0-3.11","640415971520c41606ca4389","bdp_trlrn","Tue Mar 14 2023 00:23:54 GMT-0400 (Eastern Daylight Time)","649646","Trustworthy,Untrustworthy","","null","","","","feedback","","<div class='trialDiv'><img src='trustrating_stim/white_00109_931230_fa_edt.bmp'><br><font class='baseline'><strong>Jonathan</strong><p>Received: <strong>8</strong></font> &nbsp; &nbsp; &nbsp; &nbsp; &nbsp; &nbsp;<font class='posOutcome'>Shared back: <strong>4</strong></font></font><div class='respPicDiv'><img src='img/responseButtonOffersNo0_wht.png' class='respPic'></div></div>","null","4","Jonathan","9","Shared","0.8,0.35","11","0.8","trustrating_stim/white_00109_931230_fa_edt.bmp","7.5","46","12"
"html-keyboard-response","173","393400","0.0-19.0-1.12","640415971520c41606ca4389","bdp_trlrn","Tue Mar 14 2023 00:23:54 GMT-0400 (Eastern Daylight Time)","649646","Trustworthy,Untrustworthy","","1593","","","","decision","","<div class='trialDiv'><img src='trustrating_stim/white_00577_940928_fa_edt.bmp'><br><font class='baseline'><strong>Matthew</strong><p>Choose number of points to send.</font><div class='respPicDiv'><img src='img/responseButtonOffersNo0L.png' class='respPic'></div></div>","1","5","Matthew","0","Shared","0.2,0.8","9","0.2","trustrating_stim/white_00577_940928_fa_edt.bmp","2","51","13"
"html-keyboard-response","174","393662","0.0-19.0-2.12","640415971520c41606ca4389","bdp_trlrn","Tue Mar 14 2023 00:23:54 GMT-0400 (Eastern Daylight Time)","649646","Trustworthy,Untrustworthy","","null","","","","decisionFB","","<div class='trialDiv'><img src='trustrating_stim/white_00577_940928_fa_edt.bmp'><br><font class='baseline'><strong>Matthew</strong><p>Choose number of points to send.</font><div class='respPicDiv'><img src='img/responseButtonOffersNo0L1.png' class='respPic'></div></div>","null","5","Matthew","0","Shared","0.2,0.8","9","0.2","trustrating_stim/white_00577_940928_fa_edt.bmp","2","50","13"
"html-keyboard-response","175","394674","0.0-19.0-3.12","640415971520c41606ca4389","bdp_trlrn","Tue Mar 14 2023 00:23:54 GMT-0400 (Eastern Daylight Time)","649646","Trustworthy,Untrustworthy","","null","","","","feedback","","<div class='trialDiv'><img src='trustrating_stim/white_00577_940928_fa_edt.bmp'><br><font class='baseline'><strong>Matthew</strong><p>Received: <strong>4</strong></font> &nbsp; &nbsp; &nbsp; &nbsp; &nbsp; &nbsp;<font class='posOutcome'>Shared back: <strong>2</strong></font></font><div class='respPicDiv'><img src='img/responseButtonOffersNo0_wht.png' class='respPic'></div></div>","null","5","Matthew","0","Shared","0.2,0.8","9","0.2","trustrating_stim/white_00577_940928_fa_edt.bmp","2","52","13"
"html-keyboard-response","176","395999","0.0-19.0-1.13","640415971520c41606ca4389","bdp_trlrn","Tue Mar 14 2023 00:23:54 GMT-0400 (Eastern Daylight Time)","649646","Trustworthy,Untrustworthy","","1323","","","","decision","","<div class='trialDiv'><img src='trustrating_stim/white_00785_941205_fb_edt.bmp'><br><font class='baseline'><strong>Jacob</strong><p>Choose number of points to send.</font><div class='respPicDiv'><img src='img/responseButtonOffersNo0L.png' class='respPic'></div></div>","1","5","Jacob","4","Kept","0.2,0.65","10","0.2","trustrating_stim/white_00785_941205_fb_edt.bmp","5","57","14"
"html-keyboard-response","177","396264","0.0-19.0-2.13","640415971520c41606ca4389","bdp_trlrn","Tue Mar 14 2023 00:23:54 GMT-0400 (Eastern Daylight Time)","649646","Trustworthy,Untrustworthy","","null","","","","decisionFB","","<div class='trialDiv'><img src='trustrating_stim/white_00785_941205_fb_edt.bmp'><br><font class='baseline'><strong>Jacob</strong><p>Choose number of points to send.</font><div class='respPicDiv'><img src='img/responseButtonOffersNo0L1.png' class='respPic'></div></div>","null","5","Jacob","4","Kept","0.2,0.65","10","0.2","trustrating_stim/white_00785_941205_fb_edt.bmp","5","56","14"
"html-keyboard-response","178","397272","0.0-19.0-3.13","640415971520c41606ca4389","bdp_trlrn","Tue Mar 14 2023 00:23:54 GMT-0400 (Eastern Daylight Time)","649646","Trustworthy,Untrustworthy","","null","","","","feedback","","<div class='trialDiv'><img src='trustrating_stim/white_00785_941205_fb_edt.bmp'><br><font class='baseline'><strong>Jacob</strong><p>Received: <strong>4</strong></font> &nbsp; &nbsp; &nbsp; &nbsp; &nbsp; &nbsp;<font class='negOutcome'>Shared back: <strong>0</strong></font></font><div class='respPicDiv'><img src='img/responseButtonOffersNo0_wht.png' class='respPic'></div></div>","null","5","Jacob","4","Kept","0.2,0.65","10","0.2","trustrating_stim/white_00785_941205_fb_edt.bmp","5","56","14"
"html-keyboard-response","179","398189","0.0-19.0-1.14","640415971520c41606ca4389","bdp_trlrn","Tue Mar 14 2023 00:23:54 GMT-0400 (Eastern Daylight Time)","649646","Trustworthy,Untrustworthy","","915","","","","decision","","<div class='trialDiv'><img src='trustrating_stim/white_00109_931230_fa_edt.bmp'><br><font class='baseline'><strong>Jonathan</strong><p>Choose number of points to send.</font><div class='respPicDiv'><img src='img/responseButtonOffersNo0L.png' class='respPic'></div></div>","2","5","Jonathan","9","Shared","0.8,0.35","11","0.8","trustrating_stim/white_00109_931230_fa_edt.bmp","7.5","61","15"
"html-keyboard-response","180","398450","0.0-19.0-2.14","640415971520c41606ca4389","bdp_trlrn","Tue Mar 14 2023 00:23:54 GMT-0400 (Eastern Daylight Time)","649646","Trustworthy,Untrustworthy","","null","","","","decisionFB","","<div class='trialDiv'><img src='trustrating_stim/white_00109_931230_fa_edt.bmp'><br><font class='baseline'><strong>Jonathan</strong><p>Choose number of points to send.</font><div class='respPicDiv'><img src='img/responseButtonOffersNo0L2.png' class='respPic'></div></div>","null","5","Jonathan","9","Shared","0.8,0.35","11","0.8","trustrating_stim/white_00109_931230_fa_edt.bmp","7.5","59","15"
"html-keyboard-response","181","399458","0.0-19.0-3.14","640415971520c41606ca4389","bdp_trlrn","Tue Mar 14 2023 00:23:54 GMT-0400 (Eastern Daylight Time)","649646","Trustworthy,Untrustworthy","","null","","","","feedback","","<div class='trialDiv'><img src='trustrating_stim/white_00109_931230_fa_edt.bmp'><br><font class='baseline'><strong>Jonathan</strong><p>Received: <strong>8</strong></font> &nbsp; &nbsp; &nbsp; &nbsp; &nbsp; &nbsp;<font class='posOutcome'>Shared back: <strong>4</strong></font></font><div class='respPicDiv'><img src='img/responseButtonOffersNo0_wht.png' class='respPic'></div></div>","null","5","Jonathan","9","Shared","0.8,0.35","11","0.8","trustrating_stim/white_00109_931230_fa_edt.bmp","7.5","63","15"
"html-keyboard-response","182","400458","0.0-19.0-1.15","640415971520c41606ca4389","bdp_trlrn","Tue Mar 14 2023 00:23:54 GMT-0400 (Eastern Daylight Time)","649646","Trustworthy,Untrustworthy","","999","","","","decision","","<div class='trialDiv'><img src='trustrating_stim/white_00577_940928_fa_edt.bmp'><br><font class='baseline'><strong>Matthew</strong><p>Choose number of points to send.</font><div class='respPicDiv'><img src='img/responseButtonOffersNo0L.png' class='respPic'></div></div>","1","6","Matthew","0","Shared","0.2,0.8","9","0.2","trustrating_stim/white_00577_940928_fa_edt.bmp","2","68","16"
"html-keyboard-response","183","400722","0.0-19.0-2.15","640415971520c41606ca4389","bdp_trlrn","Tue Mar 14 2023 00:23:54 GMT-0400 (Eastern Daylight Time)","649646","Trustworthy,Untrustworthy","","null","","","","decisionFB","","<div class='trialDiv'><img src='trustrating_stim/white_00577_940928_fa_edt.bmp'><br><font class='baseline'><strong>Matthew</strong><p>Choose number of points to send.</font><div class='respPicDiv'><img src='img/responseButtonOffersNo0L1.png' class='respPic'></div></div>","null","6","Matthew","0","Shared","0.2,0.8","9","0.2","trustrating_stim/white_00577_940928_fa_edt.bmp","2","67","16"
"html-keyboard-response","184","401725","0.0-19.0-3.15","640415971520c41606ca4389","bdp_trlrn","Tue Mar 14 2023 00:23:54 GMT-0400 (Eastern Daylight Time)","649646","Trustworthy,Untrustworthy","","null","","","","feedback","","<div class='trialDiv'><img src='trustrating_stim/white_00577_940928_fa_edt.bmp'><br><font class='baseline'><strong>Matthew</strong><p>Received: <strong>4</strong></font> &nbsp; &nbsp; &nbsp; &nbsp; &nbsp; &nbsp;<font class='posOutcome'>Shared back: <strong>2</strong></font></font><div class='respPicDiv'><img src='img/responseButtonOffersNo0_wht.png' class='respPic'></div></div>","null","6","Matthew","0","Shared","0.2,0.8","9","0.2","trustrating_stim/white_00577_940928_fa_edt.bmp","2","69","16"
"html-keyboard-response","185","402808","0.0-19.0-1.16","640415971520c41606ca4389","bdp_trlrn","Tue Mar 14 2023 00:23:54 GMT-0400 (Eastern Daylight Time)","649646","Trustworthy,Untrustworthy","","1082","","","","decision","","<div class='trialDiv'><img src='trustrating_stim/white_00109_931230_fa_edt.bmp'><br><font class='baseline'><strong>Jonathan</strong><p>Choose number of points to send.</font><div class='respPicDiv'><img src='img/responseButtonOffersNo0L.png' class='respPic'></div></div>","3","6","Jonathan","9","Shared","0.8,0.35","11","0.8","trustrating_stim/white_00109_931230_fa_edt.bmp","7.5","74","17"
"html-keyboard-response","186","403060","0.0-19.0-2.16","640415971520c41606ca4389","bdp_trlrn","Tue Mar 14 2023 00:23:54 GMT-0400 (Eastern Daylight Time)","649646","Trustworthy,Untrustworthy","","null","","","","decisionFB","","<div class='trialDiv'><img src='trustrating_stim/white_00109_931230_fa_edt.bmp'><br><font class='baseline'><strong>Jonathan</strong><p>Choose number of points to send.</font><div class='respPicDiv'><img src='img/responseButtonOffersNo0L3.png' class='respPic'></div></div>","null","6","Jonathan","9","Shared","0.8,0.35","11","0.8","trustrating_stim/white_00109_931230_fa_edt.bmp","7.5","71","17"
"html-keyboard-response","187","404076","0.0-19.0-3.16","640415971520c41606ca4389","bdp_trlrn","Tue Mar 14 2023 00:23:54 GMT-0400 (Eastern Daylight Time)","649646","Trustworthy,Untrustworthy","","null","","","","feedback","","<div class='trialDiv'><img src='trustrating_stim/white_00109_931230_fa_edt.bmp'><br><font class='baseline'><strong>Jonathan</strong><p>Received: <strong>12</strong></font> &nbsp; &nbsp; &nbsp; &nbsp; &nbsp; &nbsp;<font class='posOutcome'>Shared back: <strong>6</strong></font></font><div class='respPicDiv'><img src='img/responseButtonOffersNo0_wht.png' class='respPic'></div></div>","null","6","Jonathan","9","Shared","0.8,0.35","11","0.8","trustrating_stim/white_00109_931230_fa_edt.bmp","7.5","77","17"
"html-keyboard-response","188","405319","0.0-19.0-1.17","640415971520c41606ca4389","bdp_trlrn","Tue Mar 14 2023 00:23:54 GMT-0400 (Eastern Daylight Time)","649646","Trustworthy,Untrustworthy","","1242","","","","decision","","<div class='trialDiv'><img src='trustrating_stim/white_00785_941205_fb_edt.bmp'><br><font class='baseline'><strong>Jacob</strong><p>Choose number of points to send.</font><div class='respPicDiv'><img src='img/responseButtonOffersNo0L.png' class='respPic'></div></div>","2","6","Jacob","4","Kept","0.2,0.65","10","0.2","trustrating_stim/white_00785_941205_fb_edt.bmp","5","82","18"
"html-keyboard-response","189","405584","0.0-19.0-2.17","640415971520c41606ca4389","bdp_trlrn","Tue Mar 14 2023 00:23:54 GMT-0400 (Eastern Daylight Time)","649646","Trustworthy,Untrustworthy","","null","","","","decisionFB","","<div class='trialDiv'><img src='trustrating_stim/white_00785_941205_fb_edt.bmp'><br><font class='baseline'><strong>Jacob</strong><p>Choose number of points to send.</font><div class='respPicDiv'><img src='img/responseButtonOffersNo0L2.png' class='respPic'></div></div>","null","6","Jacob","4","Kept","0.2,0.65","10","0.2","trustrating_stim/white_00785_941205_fb_edt.bmp","5","80","18"
"html-keyboard-response","190","406597","0.0-19.0-3.17","640415971520c41606ca4389","bdp_trlrn","Tue Mar 14 2023 00:23:54 GMT-0400 (Eastern Daylight Time)","649646","Trustworthy,Untrustworthy","","null","","","","feedback","","<div class='trialDiv'><img src='trustrating_stim/white_00785_941205_fb_edt.bmp'><br><font class='baseline'><strong>Jacob</strong><p>Received: <strong>8</strong></font> &nbsp; &nbsp; &nbsp; &nbsp; &nbsp; &nbsp;<font class='negOutcome'>Shared back: <strong>0</strong></font></font><div class='respPicDiv'><img src='img/responseButtonOffersNo0_wht.png' class='respPic'></div></div>","null","6","Jacob","4","Kept","0.2,0.65","10","0.2","trustrating_stim/white_00785_941205_fb_edt.bmp","5","80","18"
"html-keyboard-response","191","407429","0.0-19.0-1.18","640415971520c41606ca4389","bdp_trlrn","Tue Mar 14 2023 00:23:54 GMT-0400 (Eastern Daylight Time)","649646","Trustworthy,Untrustworthy","","830","","","","decision","","<div class='trialDiv'><img src='trustrating_stim/white_00109_931230_fa_edt.bmp'><br><font class='baseline'><strong>Jonathan</strong><p>Choose number of points to send.</font><div class='respPicDiv'><img src='img/responseButtonOffersNo0L.png' class='respPic'></div></div>","3","7","Jonathan","9","Shared","0.8,0.35","11","0.8","trustrating_stim/white_00109_931230_fa_edt.bmp","7.5","85","19"
"html-keyboard-response","192","407683","0.0-19.0-2.18","640415971520c41606ca4389","bdp_trlrn","Tue Mar 14 2023 00:23:54 GMT-0400 (Eastern Daylight Time)","649646","Trustworthy,Untrustworthy","","null","","","","decisionFB","","<div class='trialDiv'><img src='trustrating_stim/white_00109_931230_fa_edt.bmp'><br><font class='baseline'><strong>Jonathan</strong><p>Choose number of points to send.</font><div class='respPicDiv'><img src='img/responseButtonOffersNo0L3.png' class='respPic'></div></div>","null","7","Jonathan","9","Shared","0.8,0.35","11","0.8","trustrating_stim/white_00109_931230_fa_edt.bmp","7.5","82","19"
"html-keyboard-response","193","408690","0.0-19.0-3.18","640415971520c41606ca4389","bdp_trlrn","Tue Mar 14 2023 00:23:54 GMT-0400 (Eastern Daylight Time)","649646","Trustworthy,Untrustworthy","","null","","","","feedback","","<div class='trialDiv'><img src='trustrating_stim/white_00109_931230_fa_edt.bmp'><br><font class='baseline'><strong>Jonathan</strong><p>Received: <strong>12</strong></font> &nbsp; &nbsp; &nbsp; &nbsp; &nbsp; &nbsp;<font class='posOutcome'>Shared back: <strong>6</strong></font></font><div class='respPicDiv'><img src='img/responseButtonOffersNo0_wht.png' class='respPic'></div></div>","null","7","Jonathan","9","Shared","0.8,0.35","11","0.8","trustrating_stim/white_00109_931230_fa_edt.bmp","7.5","88","19"
"html-keyboard-response","194","409390","0.0-19.0-1.19","640415971520c41606ca4389","bdp_trlrn","Tue Mar 14 2023 00:23:54 GMT-0400 (Eastern Daylight Time)","649646","Trustworthy,Untrustworthy","","698","","","","decision","","<div class='trialDiv'><img src='trustrating_stim/white_00785_941205_fb_edt.bmp'><br><font class='baseline'><strong>Jacob</strong><p>Choose number of points to send.</font><div class='respPicDiv'><img src='img/responseButtonOffersNo0L.png' class='respPic'></div></div>","1","7","Jacob","4","Shared","0.2,0.65","10","0.2","trustrating_stim/white_00785_941205_fb_edt.bmp","5","93","20"
"html-keyboard-response","195","409654","0.0-19.0-2.19","640415971520c41606ca4389","bdp_trlrn","Tue Mar 14 2023 00:23:54 GMT-0400 (Eastern Daylight Time)","649646","Trustworthy,Untrustworthy","","null","","","","decisionFB","","<div class='trialDiv'><img src='trustrating_stim/white_00785_941205_fb_edt.bmp'><br><font class='baseline'><strong>Jacob</strong><p>Choose number of points to send.</font><div class='respPicDiv'><img src='img/responseButtonOffersNo0L1.png' class='respPic'></div></div>","null","7","Jacob","4","Shared","0.2,0.65","10","0.2","trustrating_stim/white_00785_941205_fb_edt.bmp","5","92","20"
"html-keyboard-response","196","410659","0.0-19.0-3.19","640415971520c41606ca4389","bdp_trlrn","Tue Mar 14 2023 00:23:54 GMT-0400 (Eastern Daylight Time)","649646","Trustworthy,Untrustworthy","","null","","","","feedback","","<div class='trialDiv'><img src='trustrating_stim/white_00785_941205_fb_edt.bmp'><br><font class='baseline'><strong>Jacob</strong><p>Received: <strong>4</strong></font> &nbsp; &nbsp; &nbsp; &nbsp; &nbsp; &nbsp;<font class='posOutcome'>Shared back: <strong>2</strong></font></font><div class='respPicDiv'><img src='img/responseButtonOffersNo0_wht.png' class='respPic'></div></div>","null","7","Jacob","4","Shared","0.2,0.65","10","0.2","trustrating_stim/white_00785_941205_fb_edt.bmp","5","94","20"
"html-keyboard-response","197","411405","0.0-19.0-1.20","640415971520c41606ca4389","bdp_trlrn","Tue Mar 14 2023 00:23:54 GMT-0400 (Eastern Daylight Time)","649646","Trustworthy,Untrustworthy","","744","","","","decision","","<div class='trialDiv'><img src='trustrating_stim/white_00577_940928_fa_edt.bmp'><br><font class='baseline'><strong>Matthew</strong><p>Choose number of points to send.</font><div class='respPicDiv'><img src='img/responseButtonOffersNo0L.png' class='respPic'></div></div>","2","7","Matthew","0","Kept","0.2,0.8","9","0.2","trustrating_stim/white_00577_940928_fa_edt.bmp","2","99","21"
"html-keyboard-response","198","411667","0.0-19.0-2.20","640415971520c41606ca4389","bdp_trlrn","Tue Mar 14 2023 00:23:54 GMT-0400 (Eastern Daylight Time)","649646","Trustworthy,Untrustworthy","","null","","","","decisionFB","","<div class='trialDiv'><img src='trustrating_stim/white_00577_940928_fa_edt.bmp'><br><font class='baseline'><strong>Matthew</strong><p>Choose number of points to send.</font><div class='respPicDiv'><img src='img/responseButtonOffersNo0L2.png' class='respPic'></div></div>","null","7","Matthew","0","Kept","0.2,0.8","9","0.2","trustrating_stim/white_00577_940928_fa_edt.bmp","2","97","21"
"html-keyboard-response","199","412673","0.0-19.0-3.20","640415971520c41606ca4389","bdp_trlrn","Tue Mar 14 2023 00:23:54 GMT-0400 (Eastern Daylight Time)","649646","Trustworthy,Untrustworthy","","null","","","","feedback","","<div class='trialDiv'><img src='trustrating_stim/white_00577_940928_fa_edt.bmp'><br><font class='baseline'><strong>Matthew</strong><p>Received: <strong>8</strong></font> &nbsp; &nbsp; &nbsp; &nbsp; &nbsp; &nbsp;<font class='negOutcome'>Shared back: <strong>0</strong></font></font><div class='respPicDiv'><img src='img/responseButtonOffersNo0_wht.png' class='respPic'></div></div>","null","7","Matthew","0","Kept","0.2,0.8","9","0.2","trustrating_stim/white_00577_940928_fa_edt.bmp","2","97","21"
"html-keyboard-response","200","413657","0.0-19.0-1.21","640415971520c41606ca4389","bdp_trlrn","Tue Mar 14 2023 00:23:54 GMT-0400 (Eastern Daylight Time)","649646","Trustworthy,Untrustworthy","","981","","","","decision","","<div class='trialDiv'><img src='trustrating_stim/white_00109_931230_fa_edt.bmp'><br><font class='baseline'><strong>Jonathan</strong><p>Choose number of points to send.</font><div class='respPicDiv'><img src='img/responseButtonOffersNo0L.png' class='respPic'></div></div>","3","8","Jonathan","9","Kept","0.8,0.35","11","0.8","trustrating_stim/white_00109_931230_fa_edt.bmp","7.5","102","22"
"html-keyboard-response","201","413924","0.0-19.0-2.21","640415971520c41606ca4389","bdp_trlrn","Tue Mar 14 2023 00:23:54 GMT-0400 (Eastern Daylight Time)","649646","Trustworthy,Untrustworthy","","null","","","","decisionFB","","<div class='trialDiv'><img src='trustrating_stim/white_00109_931230_fa_edt.bmp'><br><font class='baseline'><strong>Jonathan</strong><p>Choose number of points to send.</font><div class='respPicDiv'><img src='img/responseButtonOffersNo0L3.png' class='respPic'></div></div>","null","8","Jonathan","9","Kept","0.8,0.35","11","0.8","trustrating_stim/white_00109_931230_fa_edt.bmp","7.5","99","22"
"html-keyboard-response","202","414934","0.0-19.0-3.21","640415971520c41606ca4389","bdp_trlrn","Tue Mar 14 2023 00:23:54 GMT-0400 (Eastern Daylight Time)","649646","Trustworthy,Untrustworthy","","null","","","","feedback","","<div class='trialDiv'><img src='trustrating_stim/white_00109_931230_fa_edt.bmp'><br><font class='baseline'><strong>Jonathan</strong><p>Received: <strong>12</strong></font> &nbsp; &nbsp; &nbsp; &nbsp; &nbsp; &nbsp;<font class='negOutcome'>Shared back: <strong>0</strong></font></font><div class='respPicDiv'><img src='img/responseButtonOffersNo0_wht.png' class='respPic'></div></div>","null","8","Jonathan","9","Kept","0.8,0.35","11","0.8","trustrating_stim/white_00109_931230_fa_edt.bmp","7.5","99","22"
"html-keyboard-response","203","415827","0.0-19.0-1.22","640415971520c41606ca4389","bdp_trlrn","Tue Mar 14 2023 00:23:54 GMT-0400 (Eastern Daylight Time)","649646","Trustworthy,Untrustworthy","","890","","","","decision","","<div class='trialDiv'><img src='trustrating_stim/white_00785_941205_fb_edt.bmp'><br><font class='baseline'><strong>Jacob</strong><p>Choose number of points to send.</font><div class='respPicDiv'><img src='img/responseButtonOffersNo0L.png' class='respPic'></div></div>","2","8","Jacob","4","Shared","0.2,0.65","10","0.2","trustrating_stim/white_00785_941205_fb_edt.bmp","5","104","23"
"html-keyboard-response","204","416082","0.0-19.0-2.22","640415971520c41606ca4389","bdp_trlrn","Tue Mar 14 2023 00:23:54 GMT-0400 (Eastern Daylight Time)","649646","Trustworthy,Untrustworthy","","null","","","","decisionFB","","<div class='trialDiv'><img src='trustrating_stim/white_00785_941205_fb_edt.bmp'><br><font class='baseline'><strong>Jacob</strong><p>Choose number of points to send.</font><div class='respPicDiv'><img src='img/responseButtonOffersNo0L2.png' class='respPic'></div></div>","null","8","Jacob","4","Shared","0.2,0.65","10","0.2","trustrating_stim/white_00785_941205_fb_edt.bmp","5","102","23"
"html-keyboard-response","205","417083","0.0-19.0-3.22","640415971520c41606ca4389","bdp_trlrn","Tue Mar 14 2023 00:23:54 GMT-0400 (Eastern Daylight Time)","649646","Trustworthy,Untrustworthy","","null","","","","feedback","","<div class='trialDiv'><img src='trustrating_stim/white_00785_941205_fb_edt.bmp'><br><font class='baseline'><strong>Jacob</strong><p>Received: <strong>8</strong></font> &nbsp; &nbsp; &nbsp; &nbsp; &nbsp; &nbsp;<font class='posOutcome'>Shared back: <strong>4</strong></font></font><div class='respPicDiv'><img src='img/responseButtonOffersNo0_wht.png' class='respPic'></div></div>","null","8","Jacob","4","Shared","0.2,0.65","10","0.2","trustrating_stim/white_00785_941205_fb_edt.bmp","5","106","23"
"html-keyboard-response","206","417837","0.0-19.0-1.23","640415971520c41606ca4389","bdp_trlrn","Tue Mar 14 2023 00:23:54 GMT-0400 (Eastern Daylight Time)","649646","Trustworthy,Untrustworthy","","753","","","","decision","","<div class='trialDiv'><img src='trustrating_stim/white_00577_940928_fa_edt.bmp'><br><font class='baseline'><strong>Matthew</strong><p>Choose number of points to send.</font><div class='respPicDiv'><img src='img/responseButtonOffersNo0L.png' class='respPic'></div></div>","1","8","Matthew","0","Shared","0.2,0.8","9","0.2","trustrating_stim/white_00577_940928_fa_edt.bmp","2","111","24"
"html-keyboard-response","207","418105","0.0-19.0-2.23","640415971520c41606ca4389","bdp_trlrn","Tue Mar 14 2023 00:23:54 GMT-0400 (Eastern Daylight Time)","649646","Trustworthy,Untrustworthy","","null","","","","decisionFB","","<div class='trialDiv'><img src='trustrating_stim/white_00577_940928_fa_edt.bmp'><br><font class='baseline'><strong>Matthew</strong><p>Choose number of points to send.</font><div class='respPicDiv'><img src='img/responseButtonOffersNo0L1.png' class='respPic'></div></div>","null","8","Matthew","0","Shared","0.2,0.8","9","0.2","trustrating_stim/white_00577_940928_fa_edt.bmp","2","110","24"
"html-keyboard-response","208","419121","0.0-19.0-3.23","640415971520c41606ca4389","bdp_trlrn","Tue Mar 14 2023 00:23:54 GMT-0400 (Eastern Daylight Time)","649646","Trustworthy,Untrustworthy","","null","","","","feedback","","<div class='trialDiv'><img src='trustrating_stim/white_00577_940928_fa_edt.bmp'><br><font class='baseline'><strong>Matthew</strong><p>Received: <strong>4</strong></font> &nbsp; &nbsp; &nbsp; &nbsp; &nbsp; &nbsp;<font class='posOutcome'>Shared back: <strong>2</strong></font></font><div class='respPicDiv'><img src='img/responseButtonOffersNo0_wht.png' class='respPic'></div></div>","null","8","Matthew","0","Shared","0.2,0.8","9","0.2","trustrating_stim/white_00577_940928_fa_edt.bmp","2","112","24"
"html-keyboard-response","209","420077","0.0-19.0-1.24","640415971520c41606ca4389","bdp_trlrn","Tue Mar 14 2023 00:23:54 GMT-0400 (Eastern Daylight Time)","649646","Trustworthy,Untrustworthy","","954","","","","decision","","<div class='trialDiv'><img src='trustrating_stim/white_00785_941205_fb_edt.bmp'><br><font class='baseline'><strong>Jacob</strong><p>Choose number of points to send.</font><div class='respPicDiv'><img src='img/responseButtonOffersNo0L.png' class='respPic'></div></div>","1","9","Jacob","4","Kept","0.2,0.65","10","0.2","trustrating_stim/white_00785_941205_fb_edt.bmp","5","117","25"
"html-keyboard-response","210","420330","0.0-19.0-2.24","640415971520c41606ca4389","bdp_trlrn","Tue Mar 14 2023 00:23:54 GMT-0400 (Eastern Daylight Time)","649646","Trustworthy,Untrustworthy","","null","","","","decisionFB","","<div class='trialDiv'><img src='trustrating_stim/white_00785_941205_fb_edt.bmp'><br><font class='baseline'><strong>Jacob</strong><p>Choose number of points to send.</font><div class='respPicDiv'><img src='img/responseButtonOffersNo0L1.png' class='respPic'></div></div>","null","9","Jacob","4","Kept","0.2,0.65","10","0.2","trustrating_stim/white_00785_941205_fb_edt.bmp","5","116","25"
"html-keyboard-response","211","421335","0.0-19.0-3.24","640415971520c41606ca4389","bdp_trlrn","Tue Mar 14 2023 00:23:54 GMT-0400 (Eastern Daylight Time)","649646","Trustworthy,Untrustworthy","","null","","","","feedback","","<div class='trialDiv'><img src='trustrating_stim/white_00785_941205_fb_edt.bmp'><br><font class='baseline'><strong>Jacob</strong><p>Received: <strong>4</strong></font> &nbsp; &nbsp; &nbsp; &nbsp; &nbsp; &nbsp;<font class='negOutcome'>Shared back: <strong>0</strong></font></font><div class='respPicDiv'><img src='img/responseButtonOffersNo0_wht.png' class='respPic'></div></div>","null","9","Jacob","4","Kept","0.2,0.65","10","0.2","trustrating_stim/white_00785_941205_fb_edt.bmp","5","116","25"
"html-keyboard-response","212","421951","0.0-19.0-1.25","640415971520c41606ca4389","bdp_trlrn","Tue Mar 14 2023 00:23:54 GMT-0400 (Eastern Daylight Time)","649646","Trustworthy,Untrustworthy","","614","","","","decision","","<div class='trialDiv'><img src='trustrating_stim/white_00109_931230_fa_edt.bmp'><br><font class='baseline'><strong>Jonathan</strong><p>Choose number of points to send.</font><div class='respPicDiv'><img src='img/responseButtonOffersNo0L.png' class='respPic'></div></div>","3","9","Jonathan","9","Shared","0.8,0.35","11","0.8","trustrating_stim/white_00109_931230_fa_edt.bmp","7.5","121","26"
"html-keyboard-response","213","422210","0.0-19.0-2.25","640415971520c41606ca4389","bdp_trlrn","Tue Mar 14 2023 00:23:54 GMT-0400 (Eastern Daylight Time)","649646","Trustworthy,Untrustworthy","","null","","","","decisionFB","","<div class='trialDiv'><img src='trustrating_stim/white_00109_931230_fa_edt.bmp'><br><font class='baseline'><strong>Jonathan</strong><p>Choose number of points to send.</font><div class='respPicDiv'><img src='img/responseButtonOffersNo0L3.png' class='respPic'></div></div>","null","9","Jonathan","9","Shared","0.8,0.35","11","0.8","trustrating_stim/white_00109_931230_fa_edt.bmp","7.5","118","26"
"html-keyboard-response","214","423216","0.0-19.0-3.25","640415971520c41606ca4389","bdp_trlrn","Tue Mar 14 2023 00:23:54 GMT-0400 (Eastern Daylight Time)","649646","Trustworthy,Untrustworthy","","null","","","","feedback","","<div class='trialDiv'><img src='trustrating_stim/white_00109_931230_fa_edt.bmp'><br><font class='baseline'><strong>Jonathan</strong><p>Received: <strong>12</strong></font> &nbsp; &nbsp; &nbsp; &nbsp; &nbsp; &nbsp;<font class='posOutcome'>Shared back: <strong>6</strong></font></font><div class='respPicDiv'><img src='img/responseButtonOffersNo0_wht.png' class='respPic'></div></div>","null","9","Jonathan","9","Shared","0.8,0.35","11","0.8","trustrating_stim/white_00109_931230_fa_edt.bmp","7.5","124","26"
"html-keyboard-response","215","424432","0.0-19.0-1.26","640415971520c41606ca4389","bdp_trlrn","Tue Mar 14 2023 00:23:54 GMT-0400 (Eastern Daylight Time)","649646","Trustworthy,Untrustworthy","","1213","","","","decision","","<div class='trialDiv'><img src='trustrating_stim/white_00577_940928_fa_edt.bmp'><br><font class='baseline'><strong>Matthew</strong><p>Choose number of points to send.</font><div class='respPicDiv'><img src='img/responseButtonOffersNo0L.png' class='respPic'></div></div>","1","9","Matthew","0","Shared","0.2,0.8","9","0.2","trustrating_stim/white_00577_940928_fa_edt.bmp","2","129","27"
"html-keyboard-response","216","424695","0.0-19.0-2.26","640415971520c41606ca4389","bdp_trlrn","Tue Mar 14 2023 00:23:54 GMT-0400 (Eastern Daylight Time)","649646","Trustworthy,Untrustworthy","","null","","","","decisionFB","","<div class='trialDiv'><img src='trustrating_stim/white_00577_940928_fa_edt.bmp'><br><font class='baseline'><strong>Matthew</strong><p>Choose number of points to send.</font><div class='respPicDiv'><img src='img/responseButtonOffersNo0L1.png' class='respPic'></div></div>","null","9","Matthew","0","Shared","0.2,0.8","9","0.2","trustrating_stim/white_00577_940928_fa_edt.bmp","2","128","27"
"html-keyboard-response","217","425711","0.0-19.0-3.26","640415971520c41606ca4389","bdp_trlrn","Tue Mar 14 2023 00:23:54 GMT-0400 (Eastern Daylight Time)","649646","Trustworthy,Untrustworthy","","null","","","","feedback","","<div class='trialDiv'><img src='trustrating_stim/white_00577_940928_fa_edt.bmp'><br><font class='baseline'><strong>Matthew</strong><p>Received: <strong>4</strong></font> &nbsp; &nbsp; &nbsp; &nbsp; &nbsp; &nbsp;<font class='posOutcome'>Shared back: <strong>2</strong></font></font><div class='respPicDiv'><img src='img/responseButtonOffersNo0_wht.png' class='respPic'></div></div>","null","9","Matthew","0","Shared","0.2,0.8","9","0.2","trustrating_stim/white_00577_940928_fa_edt.bmp","2","130","27"
"html-keyboard-response","218","426333","0.0-19.0-1.27","640415971520c41606ca4389","bdp_trlrn","Tue Mar 14 2023 00:23:54 GMT-0400 (Eastern Daylight Time)","649646","Trustworthy,Untrustworthy","","620","","","","decision","","<div class='trialDiv'><img src='trustrating_stim/white_00109_931230_fa_edt.bmp'><br><font class='baseline'><strong>Jonathan</strong><p>Choose number of points to send.</font><div class='respPicDiv'><img src='img/responseButtonOffersNo0L.png' class='respPic'></div></div>","2","10","Jonathan","9","Shared","0.8,0.35","11","0.8","trustrating_stim/white_00109_931230_fa_edt.bmp","7.5","135","28"
