"trial_type","trial_index","time_elapsed","internal_node_id","subject_id","task","startTime","totalTime","labels","event","trial","time","trialtype","view_history","rt","success","stimulus","key_press","numBlurs","aground","name","faceID","outcome","agenttype","agentswpt","agentcurrpshare","face","avgRating","point_total","round"
"pavlovia","0","2","0.0-0.0","63f77927711e9d061dbec33c","bdp_trlrn","Tue Mar 14 2023 21:32:47 GMT-0400 (Eastern Daylight Time)","752843","Trustworthy,Untrustworthy","","","","","","","","","","","","","","","","","","","","",""
"","","","","63f77927711e9d061dbec33c","bdp_trlrn","Tue Mar 14 2023 21:32:47 GMT-0400 (Eastern Daylight Time)","752843","Trustworthy,Untrustworthy","focus","1","7953","focusevent","","","","","","","","","","","","","","","","",""
"instructions","1","13572","0.0-1.0","63f77927711e9d061dbec33c","bdp_trlrn","Tue Mar 14 2023 21:32:47 GMT-0400 (Eastern Daylight Time)","752843","Trustworthy,Untrustworthy","","","","","[{""page_index"":0,""viewing_time"":13569}]","13569","","","","","","","","","","","","","","",""
"","","","","63f77927711e9d061dbec33c","bdp_trlrn","Tue Mar 14 2023 21:32:47 GMT-0400 (Eastern Daylight Time)","752843","Trustworthy,Untrustworthy","fullscreenenter","2","15815","fullscreenenter","","","","","","","","","","","","","","","","",""
"fullscreen","2","16774","0.0-2.0","63f77927711e9d061dbec33c","bdp_trlrn","Tue Mar 14 2023 21:32:47 GMT-0400 (Eastern Daylight Time)","752843","Trustworthy,Untrustworthy","","","","","","","true","","","","","","","","","","","","","",""
"instructions","3","62844","0.0-4.0","63f77927711e9d061dbec33c","bdp_trlrn","Tue Mar 14 2023 21:32:47 GMT-0400 (Eastern Daylight Time)","752843","Trustworthy,Untrustworthy","","","","","[{""page_index"":0,""viewing_time"":15718},{""page_index"":1,""viewing_time"":30351}]","46069","","","","","","","","","","","","","","",""
"instructions","4","64402","0.0-5.0","63f77927711e9d061dbec33c","bdp_trlrn","Tue Mar 14 2023 21:32:47 GMT-0400 (Eastern Daylight Time)","752843","Trustworthy,Untrustworthy","","","","","[{""page_index"":0,""viewing_time"":1557}]","1557","","","","","","","","","","","","","","",""
"image-keyboard-response","5","65992","0.0-6.0-1.0","63f77927711e9d061dbec33c","bdp_trlrn","Tue Mar 14 2023 21:32:47 GMT-0400 (Eastern Daylight Time)","752843","Trustworthy,Untrustworthy","","","","rating","","1480","","trustrating_stim/white_00807_941205_fb_edt.bmp","3","","","","","","","","","","","",""
"image-keyboard-response","6","66205","0.0-6.0-2.0","63f77927711e9d061dbec33c","bdp_trlrn","Tue Mar 14 2023 21:32:47 GMT-0400 (Eastern Daylight Time)","752843","Trustworthy,Untrustworthy","","","","ratingFB","","null","","trustrating_stim/white_00807_941205_fb_edt.bmp","null","","","","","","","","","","","",""
"image-keyboard-response","7","67645","0.0-6.0-1.1","63f77927711e9d061dbec33c","bdp_trlrn","Tue Mar 14 2023 21:32:47 GMT-0400 (Eastern Daylight Time)","752843","Trustworthy,Untrustworthy","","","","rating","","1333","","trustrating_stim/white_mw071.bmp","8","","","","","","","","","","","",""
"image-keyboard-response","8","67848","0.0-6.0-2.1","63f77927711e9d061dbec33c","bdp_trlrn","Tue Mar 14 2023 21:32:47 GMT-0400 (Eastern Daylight Time)","752843","Trustworthy,Untrustworthy","","","","ratingFB","","null","","trustrating_stim/white_mw071.bmp","null","","","","","","","","","","","",""
"image-keyboard-response","9","69330","0.0-6.0-1.2","63f77927711e9d061dbec33c","bdp_trlrn","Tue Mar 14 2023 21:32:47 GMT-0400 (Eastern Daylight Time)","752843","Trustworthy,Untrustworthy","","","","rating","","1368","","trustrating_stim/white_mw060.bmp","3","","","","","","","","","","","",""
"image-keyboard-response","10","69537","0.0-6.0-2.2","63f77927711e9d061dbec33c","bdp_trlrn","Tue Mar 14 2023 21:32:47 GMT-0400 (Eastern Daylight Time)","752843","Trustworthy,Untrustworthy","","","","ratingFB","","null","","trustrating_stim/white_mw060.bmp","null","","","","","","","","","","","",""
"image-keyboard-response","11","71891","0.0-6.0-1.3","63f77927711e9d061dbec33c","bdp_trlrn","Tue Mar 14 2023 21:32:47 GMT-0400 (Eastern Daylight Time)","752843","Trustworthy,Untrustworthy","","","","rating","","2247","","trustrating_stim/white_mw056.bmp","4","","","","","","","","","","","",""
"image-keyboard-response","12","72104","0.0-6.0-2.3","63f77927711e9d061dbec33c","bdp_trlrn","Tue Mar 14 2023 21:32:47 GMT-0400 (Eastern Daylight Time)","752843","Trustworthy,Untrustworthy","","","","ratingFB","","null","","trustrating_stim/white_mw056.bmp","null","","","","","","","","","","","",""
"image-keyboard-response","13","73656","0.0-6.0-1.4","63f77927711e9d061dbec33c","bdp_trlrn","Tue Mar 14 2023 21:32:47 GMT-0400 (Eastern Daylight Time)","752843","Trustworthy,Untrustworthy","","","","rating","","1445","","trustrating_stim/white_mw063.bmp","3","","","","","","","","","","","",""
"image-keyboard-response","14","73867","0.0-6.0-2.4","63f77927711e9d061dbec33c","bdp_trlrn","Tue Mar 14 2023 21:32:47 GMT-0400 (Eastern Daylight Time)","752843","Trustworthy,Untrustworthy","","","","ratingFB","","null","","trustrating_stim/white_mw063.bmp","null","","","","","","","","","","","",""
"image-keyboard-response","15","76515","0.0-6.0-1.5","63f77927711e9d061dbec33c","bdp_trlrn","Tue Mar 14 2023 21:32:47 GMT-0400 (Eastern Daylight Time)","752843","Trustworthy,Untrustworthy","","","","rating","","2540","","trustrating_stim/white_mw033.bmp","6","","","","","","","","","","","",""
"image-keyboard-response","16","76718","0.0-6.0-2.5","63f77927711e9d061dbec33c","bdp_trlrn","Tue Mar 14 2023 21:32:47 GMT-0400 (Eastern Daylight Time)","752843","Trustworthy,Untrustworthy","","","","ratingFB","","null","","trustrating_stim/white_mw033.bmp","null","","","","","","","","","","","",""
"image-keyboard-response","17","78603","0.0-6.0-1.6","63f77927711e9d061dbec33c","bdp_trlrn","Tue Mar 14 2023 21:32:47 GMT-0400 (Eastern Daylight Time)","752843","Trustworthy,Untrustworthy","","","","rating","","1778","","trustrating_stim/white_00519_940519_fb_edt.bmp","2","","","","","","","","","","","",""
"image-keyboard-response","18","78817","0.0-6.0-2.6","63f77927711e9d061dbec33c","bdp_trlrn","Tue Mar 14 2023 21:32:47 GMT-0400 (Eastern Daylight Time)","752843","Trustworthy,Untrustworthy","","","","ratingFB","","null","","trustrating_stim/white_00519_940519_fb_edt.bmp","null","","","","","","","","","","","",""
"image-keyboard-response","19","80971","0.0-6.0-1.7","63f77927711e9d061dbec33c","bdp_trlrn","Tue Mar 14 2023 21:32:47 GMT-0400 (Eastern Daylight Time)","752843","Trustworthy,Untrustworthy","","","","rating","","2045","","trustrating_stim/white_mw084.bmp","6","","","","","","","","","","","",""
"image-keyboard-response","20","81182","0.0-6.0-2.7","63f77927711e9d061dbec33c","bdp_trlrn","Tue Mar 14 2023 21:32:47 GMT-0400 (Eastern Daylight Time)","752843","Trustworthy,Untrustworthy","","","","ratingFB","","null","","trustrating_stim/white_mw084.bmp","null","","","","","","","","","","","",""
"image-keyboard-response","21","83010","0.0-6.0-1.8","63f77927711e9d061dbec33c","bdp_trlrn","Tue Mar 14 2023 21:32:47 GMT-0400 (Eastern Daylight Time)","752843","Trustworthy,Untrustworthy","","","","rating","","1702","","trustrating_stim/white_00757_941201_fa_edt.bmp","3","","","","","","","","","","","",""
"image-keyboard-response","22","83218","0.0-6.0-2.8","63f77927711e9d061dbec33c","bdp_trlrn","Tue Mar 14 2023 21:32:47 GMT-0400 (Eastern Daylight Time)","752843","Trustworthy,Untrustworthy","","","","ratingFB","","null","","trustrating_stim/white_00757_941201_fa_edt.bmp","null","","","","","","","","","","","",""
"image-keyboard-response","23","84517","0.0-6.0-1.9","63f77927711e9d061dbec33c","bdp_trlrn","Tue Mar 14 2023 21:32:47 GMT-0400 (Eastern Daylight Time)","752843","Trustworthy,Untrustworthy","","","","rating","","1192","","trustrating_stim/white_mw048.bmp","3","","","","","","","","","","","",""
"image-keyboard-response","24","84732","0.0-6.0-2.9","63f77927711e9d061dbec33c","bdp_trlrn","Tue Mar 14 2023 21:32:47 GMT-0400 (Eastern Daylight Time)","752843","Trustworthy,Untrustworthy","","","","ratingFB","","null","","trustrating_stim/white_mw048.bmp","null","","","","","","","","","","","",""
"image-keyboard-response","25","85991","0.0-6.0-1.10","63f77927711e9d061dbec33c","bdp_trlrn","Tue Mar 14 2023 21:32:47 GMT-0400 (Eastern Daylight Time)","752843","Trustworthy,Untrustworthy","","","","rating","","1151","","trustrating_stim/white_00129_931230_fb_edt.bmp","3","","","","","","","","","","","",""
"image-keyboard-response","26","86200","0.0-6.0-2.10","63f77927711e9d061dbec33c","bdp_trlrn","Tue Mar 14 2023 21:32:47 GMT-0400 (Eastern Daylight Time)","752843","Trustworthy,Untrustworthy","","","","ratingFB","","null","","trustrating_stim/white_00129_931230_fb_edt.bmp","null","","","","","","","","","","","",""
"image-keyboard-response","27","87847","0.0-6.0-1.11","63f77927711e9d061dbec33c","bdp_trlrn","Tue Mar 14 2023 21:32:47 GMT-0400 (Eastern Daylight Time)","752843","Trustworthy,Untrustworthy","","","","rating","","1540","","trustrating_stim/white_mw099.bmp","2","","","","","","","","","","","",""
"image-keyboard-response","28","88048","0.0-6.0-2.11","63f77927711e9d061dbec33c","bdp_trlrn","Tue Mar 14 2023 21:32:47 GMT-0400 (Eastern Daylight Time)","752843","Trustworthy,Untrustworthy","","","","ratingFB","","null","","trustrating_stim/white_mw099.bmp","null","","","","","","","","","","","",""
"image-keyboard-response","29","89269","0.0-6.0-1.12","63f77927711e9d061dbec33c","bdp_trlrn","Tue Mar 14 2023 21:32:47 GMT-0400 (Eastern Daylight Time)","752843","Trustworthy,Untrustworthy","","","","rating","","1098","","trustrating_stim/white_mw089.bmp","2","","","","","","","","","","","",""
"image-keyboard-response","30","89479","0.0-6.0-2.12","63f77927711e9d061dbec33c","bdp_trlrn","Tue Mar 14 2023 21:32:47 GMT-0400 (Eastern Daylight Time)","752843","Trustworthy,Untrustworthy","","","","ratingFB","","null","","trustrating_stim/white_mw089.bmp","null","","","","","","","","","","","",""
"image-keyboard-response","31","90273","0.0-6.0-1.13","63f77927711e9d061dbec33c","bdp_trlrn","Tue Mar 14 2023 21:32:47 GMT-0400 (Eastern Daylight Time)","752843","Trustworthy,Untrustworthy","","","","rating","","685","","trustrating_stim/white_00761_941201_fb_edt.bmp","2","","","","","","","","","","","",""
"image-keyboard-response","32","90484","0.0-6.0-2.13","63f77927711e9d061dbec33c","bdp_trlrn","Tue Mar 14 2023 21:32:47 GMT-0400 (Eastern Daylight Time)","752843","Trustworthy,Untrustworthy","","","","ratingFB","","null","","trustrating_stim/white_00761_941201_fb_edt.bmp","null","","","","","","","","","","","",""
"image-keyboard-response","33","91644","0.0-6.0-1.14","63f77927711e9d061dbec33c","bdp_trlrn","Tue Mar 14 2023 21:32:47 GMT-0400 (Eastern Daylight Time)","752843","Trustworthy,Untrustworthy","","","","rating","","1057","","trustrating_stim/white_mw046.bmp","2","","","","","","","","","","","",""
"image-keyboard-response","34","91848","0.0-6.0-2.14","63f77927711e9d061dbec33c","bdp_trlrn","Tue Mar 14 2023 21:32:47 GMT-0400 (Eastern Daylight Time)","752843","Trustworthy,Untrustworthy","","","","ratingFB","","null","","trustrating_stim/white_mw046.bmp","null","","","","","","","","","","","",""
"image-keyboard-response","35","92744","0.0-6.0-1.15","63f77927711e9d061dbec33c","bdp_trlrn","Tue Mar 14 2023 21:32:47 GMT-0400 (Eastern Daylight Time)","752843","Trustworthy,Untrustworthy","","","","rating","","790","","trustrating_stim/white_mw035.bmp","2","","","","","","","","","","","",""
"image-keyboard-response","36","92947","0.0-6.0-2.15","63f77927711e9d061dbec33c","bdp_trlrn","Tue Mar 14 2023 21:32:47 GMT-0400 (Eastern Daylight Time)","752843","Trustworthy,Untrustworthy","","","","ratingFB","","null","","trustrating_stim/white_mw035.bmp","null","","","","","","","","","","","",""
"","","","","63f77927711e9d061dbec33c","bdp_trlrn","Tue Mar 14 2023 21:32:47 GMT-0400 (Eastern Daylight Time)","752843","Trustworthy,Untrustworthy","blur","37","93918","blurevent","","","","","","1","","","","","","","","","","",""
"","","","","63f77927711e9d061dbec33c","bdp_trlrn","Tue Mar 14 2023 21:32:47 GMT-0400 (Eastern Daylight Time)","752843","Trustworthy,Untrustworthy","focus","37","107271","focusevent","","","","","","","","","","","","","","","","",""
"image-keyboard-response","37","109249","0.0-6.0-1.16","63f77927711e9d061dbec33c","bdp_trlrn","Tue Mar 14 2023 21:32:47 GMT-0400 (Eastern Daylight Time)","752843","Trustworthy,Untrustworthy","blur","37","93918","rating","","16195","","trustrating_stim/white_00785_941205_fb_edt.bmp","2","1","","","","","","","","","","",""
"image-keyboard-response","38","109460","0.0-6.0-2.16","63f77927711e9d061dbec33c","bdp_trlrn","Tue Mar 14 2023 21:32:47 GMT-0400 (Eastern Daylight Time)","752843","Trustworthy,Untrustworthy","","","","ratingFB","","null","","trustrating_stim/white_00785_941205_fb_edt.bmp","null","","","","","","","","","","","",""
"image-keyboard-response","39","135488","0.0-6.0-0.17-0.17","63f77927711e9d061dbec33c","bdp_trlrn","Tue Mar 14 2023 21:32:47 GMT-0400 (Eastern Daylight Time)","752843","Trustworthy,Untrustworthy","","","","blurwarn","","25921","","","49","1","","","","","","","","","","",""
"image-keyboard-response","40","136882","0.0-6.0-1.17","63f77927711e9d061dbec33c","bdp_trlrn","Tue Mar 14 2023 21:32:47 GMT-0400 (Eastern Daylight Time)","752843","Trustworthy,Untrustworthy","","","","rating","","1134","","trustrating_stim/white_mw097.bmp","1","","","","","","","","","","","",""
"image-keyboard-response","41","137096","0.0-6.0-2.17","63f77927711e9d061dbec33c","bdp_trlrn","Tue Mar 14 2023 21:32:47 GMT-0400 (Eastern Daylight Time)","752843","Trustworthy,Untrustworthy","","","","ratingFB","","null","","trustrating_stim/white_mw097.bmp","null","","","","","","","","","","","",""
"image-keyboard-response","42","138365","0.0-6.0-1.18","63f77927711e9d061dbec33c","bdp_trlrn","Tue Mar 14 2023 21:32:47 GMT-0400 (Eastern Daylight Time)","752843","Trustworthy,Untrustworthy","","","","rating","","1161","","trustrating_stim/white_00340_940422_fa_edt.bmp","2","","","","","","","","","","","",""
"image-keyboard-response","43","138579","0.0-6.0-2.18","63f77927711e9d061dbec33c","bdp_trlrn","Tue Mar 14 2023 21:32:47 GMT-0400 (Eastern Daylight Time)","752843","Trustworthy,Untrustworthy","","","","ratingFB","","null","","trustrating_stim/white_00340_940422_fa_edt.bmp","null","","","","","","","","","","","",""
"image-keyboard-response","44","139775","0.0-6.0-1.19","63f77927711e9d061dbec33c","bdp_trlrn","Tue Mar 14 2023 21:32:47 GMT-0400 (Eastern Daylight Time)","752843","Trustworthy,Untrustworthy","","","","rating","","1087","","trustrating_stim/white_00120_931230_fa_edt.bmp","2","","","","","","","","","","","",""
"image-keyboard-response","45","139980","0.0-6.0-2.19","63f77927711e9d061dbec33c","bdp_trlrn","Tue Mar 14 2023 21:32:47 GMT-0400 (Eastern Daylight Time)","752843","Trustworthy,Untrustworthy","","","","ratingFB","","null","","trustrating_stim/white_00120_931230_fa_edt.bmp","null","","","","","","","","","","","",""
"image-keyboard-response","46","141277","0.0-6.0-1.20","63f77927711e9d061dbec33c","bdp_trlrn","Tue Mar 14 2023 21:32:47 GMT-0400 (Eastern Daylight Time)","752843","Trustworthy,Untrustworthy","","","","rating","","1190","","trustrating_stim/white_mw049.bmp","6","","","","","","","","","","","",""
"image-keyboard-response","47","141481","0.0-6.0-2.20","63f77927711e9d061dbec33c","bdp_trlrn","Tue Mar 14 2023 21:32:47 GMT-0400 (Eastern Daylight Time)","752843","Trustworthy,Untrustworthy","","","","ratingFB","","null","","trustrating_stim/white_mw049.bmp","null","","","","","","","","","","","",""
"image-keyboard-response","48","143133","0.0-6.0-1.21","63f77927711e9d061dbec33c","bdp_trlrn","Tue Mar 14 2023 21:32:47 GMT-0400 (Eastern Daylight Time)","752843","Trustworthy,Untrustworthy","","","","rating","","1545","","trustrating_stim/white_00659_941121_fa_edt.bmp","3","","","","","","","","","","","",""
"image-keyboard-response","49","143345","0.0-6.0-2.21","63f77927711e9d061dbec33c","bdp_trlrn","Tue Mar 14 2023 21:32:47 GMT-0400 (Eastern Daylight Time)","752843","Trustworthy,Untrustworthy","","","","ratingFB","","null","","trustrating_stim/white_00659_941121_fa_edt.bmp","null","","","","","","","","","","","",""
"image-keyboard-response","50","144963","0.0-6.0-1.22","63f77927711e9d061dbec33c","bdp_trlrn","Tue Mar 14 2023 21:32:47 GMT-0400 (Eastern Daylight Time)","752843","Trustworthy,Untrustworthy","","","","rating","","1510","","trustrating_stim/white_00223_940128_fb_edt.bmp","3","","","","","","","","","","","",""
"image-keyboard-response","51","145177","0.0-6.0-2.22","63f77927711e9d061dbec33c","bdp_trlrn","Tue Mar 14 2023 21:32:47 GMT-0400 (Eastern Daylight Time)","752843","Trustworthy,Untrustworthy","","","","ratingFB","","null","","trustrating_stim/white_00223_940128_fb_edt.bmp","null","","","","","","","","","","","",""
"image-keyboard-response","52","146139","0.0-6.0-1.23","63f77927711e9d061dbec33c","bdp_trlrn","Tue Mar 14 2023 21:32:47 GMT-0400 (Eastern Daylight Time)","752843","Trustworthy,Untrustworthy","","","","rating","","839","","trustrating_stim/white_mw066.bmp","3","","","","","","","","","","","",""
"image-keyboard-response","53","146344","0.0-6.0-2.23","63f77927711e9d061dbec33c","bdp_trlrn","Tue Mar 14 2023 21:32:47 GMT-0400 (Eastern Daylight Time)","752843","Trustworthy,Untrustworthy","","","","ratingFB","","null","","trustrating_stim/white_mw066.bmp","null","","","","","","","","","","","",""
"image-keyboard-response","54","147798","0.0-6.0-1.24","63f77927711e9d061dbec33c","bdp_trlrn","Tue Mar 14 2023 21:32:47 GMT-0400 (Eastern Daylight Time)","752843","Trustworthy,Untrustworthy","","","","rating","","1345","","trustrating_stim/white_00898_960530_fa_edt.bmp","2","","","","","","","","","","","",""
"image-keyboard-response","55","148010","0.0-6.0-2.24","63f77927711e9d061dbec33c","bdp_trlrn","Tue Mar 14 2023 21:32:47 GMT-0400 (Eastern Daylight Time)","752843","Trustworthy,Untrustworthy","","","","ratingFB","","null","","trustrating_stim/white_00898_960530_fa_edt.bmp","null","","","","","","","","","","","",""
"image-keyboard-response","56","149162","0.0-6.0-1.25","63f77927711e9d061dbec33c","bdp_trlrn","Tue Mar 14 2023 21:32:47 GMT-0400 (Eastern Daylight Time)","752843","Trustworthy,Untrustworthy","","","","rating","","1042","","trustrating_stim/white_mw053.bmp","2","","","","","","","","","","","",""
"image-keyboard-response","57","149376","0.0-6.0-2.25","63f77927711e9d061dbec33c","bdp_trlrn","Tue Mar 14 2023 21:32:47 GMT-0400 (Eastern Daylight Time)","752843","Trustworthy,Untrustworthy","","","","ratingFB","","null","","trustrating_stim/white_mw053.bmp","null","","","","","","","","","","","",""
"image-keyboard-response","58","150603","0.0-6.0-1.26","63f77927711e9d061dbec33c","bdp_trlrn","Tue Mar 14 2023 21:32:47 GMT-0400 (Eastern Daylight Time)","752843","Trustworthy,Untrustworthy","","","","rating","","1119","","trustrating_stim/white_00577_940928_fa_edt.bmp","3","","","","","","","","","","","",""
"image-keyboard-response","59","150811","0.0-6.0-2.26","63f77927711e9d061dbec33c","bdp_trlrn","Tue Mar 14 2023 21:32:47 GMT-0400 (Eastern Daylight Time)","752843","Trustworthy,Untrustworthy","","","","ratingFB","","null","","trustrating_stim/white_00577_940928_fa_edt.bmp","null","","","","","","","","","","","",""
"image-keyboard-response","60","151801","0.0-6.0-1.27","63f77927711e9d061dbec33c","bdp_trlrn","Tue Mar 14 2023 21:32:47 GMT-0400 (Eastern Daylight Time)","752843","Trustworthy,Untrustworthy","","","","rating","","883","","trustrating_stim/white_00109_931230_fa_edt.bmp","3","","","","","","","","","","","",""
"image-keyboard-response","61","152011","0.0-6.0-2.27","63f77927711e9d061dbec33c","bdp_trlrn","Tue Mar 14 2023 21:32:47 GMT-0400 (Eastern Daylight Time)","752843","Trustworthy,Untrustworthy","","","","ratingFB","","null","","trustrating_stim/white_00109_931230_fa_edt.bmp","null","","","","","","","","","","","",""
"image-keyboard-response","62","153235","0.0-6.0-1.28","63f77927711e9d061dbec33c","bdp_trlrn","Tue Mar 14 2023 21:32:47 GMT-0400 (Eastern Daylight Time)","752843","Trustworthy,Untrustworthy","","","","rating","","1116","","trustrating_stim/white_00299_940422_fa_edt.bmp","3","","","","","","","","","","","",""
"image-keyboard-response","63","153444","0.0-6.0-2.28","63f77927711e9d061dbec33c","bdp_trlrn","Tue Mar 14 2023 21:32:47 GMT-0400 (Eastern Daylight Time)","752843","Trustworthy,Untrustworthy","","","","ratingFB","","null","","trustrating_stim/white_00299_940422_fa_edt.bmp","null","","","","","","","","","","","",""
"image-keyboard-response","64","156523","0.0-6.0-1.29","63f77927711e9d061dbec33c","bdp_trlrn","Tue Mar 14 2023 21:32:47 GMT-0400 (Eastern Daylight Time)","752843","Trustworthy,Untrustworthy","","","","rating","","2972","","trustrating_stim/white_00602_940928_fb_edt.bmp","6","","","","","","","","","","","",""
"image-keyboard-response","65","156726","0.0-6.0-2.29","63f77927711e9d061dbec33c","bdp_trlrn","Tue Mar 14 2023 21:32:47 GMT-0400 (Eastern Daylight Time)","752843","Trustworthy,Untrustworthy","","","","ratingFB","","null","","trustrating_stim/white_00602_940928_fb_edt.bmp","null","","","","","","","","","","","",""
"image-keyboard-response","66","157622","0.0-6.0-1.30","63f77927711e9d061dbec33c","bdp_trlrn","Tue Mar 14 2023 21:32:47 GMT-0400 (Eastern Daylight Time)","752843","Trustworthy,Untrustworthy","","","","rating","","788","","trustrating_stim/white_00340_940422_fa_edt.bmp","3","","","","","","","","","","","",""
"image-keyboard-response","67","157826","0.0-6.0-2.30","63f77927711e9d061dbec33c","bdp_trlrn","Tue Mar 14 2023 21:32:47 GMT-0400 (Eastern Daylight Time)","752843","Trustworthy,Untrustworthy","","","","ratingFB","","null","","trustrating_stim/white_00340_940422_fa_edt.bmp","null","","","","","","","","","","","",""
"image-keyboard-response","68","158800","0.0-6.0-1.31","63f77927711e9d061dbec33c","bdp_trlrn","Tue Mar 14 2023 21:32:47 GMT-0400 (Eastern Daylight Time)","752843","Trustworthy,Untrustworthy","","","","rating","","851","","trustrating_stim/white_mw056.bmp","3","","","","","","","","","","","",""
"image-keyboard-response","69","159012","0.0-6.0-2.31","63f77927711e9d061dbec33c","bdp_trlrn","Tue Mar 14 2023 21:32:47 GMT-0400 (Eastern Daylight Time)","752843","Trustworthy,Untrustworthy","","","","ratingFB","","null","","trustrating_stim/white_mw056.bmp","null","","","","","","","","","","","",""
"image-keyboard-response","70","159893","0.0-6.0-1.32","63f77927711e9d061dbec33c","bdp_trlrn","Tue Mar 14 2023 21:32:47 GMT-0400 (Eastern Daylight Time)","752843","Trustworthy,Untrustworthy","","","","rating","","763","","trustrating_stim/white_mw060.bmp","3","","","","","","","","","","","",""
"image-keyboard-response","71","160106","0.0-6.0-2.32","63f77927711e9d061dbec33c","bdp_trlrn","Tue Mar 14 2023 21:32:47 GMT-0400 (Eastern Daylight Time)","752843","Trustworthy,Untrustworthy","","","","ratingFB","","null","","trustrating_stim/white_mw060.bmp","null","","","","","","","","","","","",""
"image-keyboard-response","72","160794","0.0-6.0-1.33","63f77927711e9d061dbec33c","bdp_trlrn","Tue Mar 14 2023 21:32:47 GMT-0400 (Eastern Daylight Time)","752843","Trustworthy,Untrustworthy","","","","rating","","579","","trustrating_stim/white_mw099.bmp","3","","","","","","","","","","","",""
"image-keyboard-response","73","161007","0.0-6.0-2.33","63f77927711e9d061dbec33c","bdp_trlrn","Tue Mar 14 2023 21:32:47 GMT-0400 (Eastern Daylight Time)","752843","Trustworthy,Untrustworthy","","","","ratingFB","","null","","trustrating_stim/white_mw099.bmp","null","","","","","","","","","","","",""
"image-keyboard-response","74","161590","0.0-6.0-1.34","63f77927711e9d061dbec33c","bdp_trlrn","Tue Mar 14 2023 21:32:47 GMT-0400 (Eastern Daylight Time)","752843","Trustworthy,Untrustworthy","","","","rating","","475","","trustrating_stim/white_mw084.bmp","3","","","","","","","","","","","",""
"image-keyboard-response","75","161803","0.0-6.0-2.34","63f77927711e9d061dbec33c","bdp_trlrn","Tue Mar 14 2023 21:32:47 GMT-0400 (Eastern Daylight Time)","752843","Trustworthy,Untrustworthy","","","","ratingFB","","null","","trustrating_stim/white_mw084.bmp","null","","","","","","","","","","","",""
"image-keyboard-response","76","162591","0.0-6.0-1.35","63f77927711e9d061dbec33c","bdp_trlrn","Tue Mar 14 2023 21:32:47 GMT-0400 (Eastern Daylight Time)","752843","Trustworthy,Untrustworthy","","","","rating","","676","","trustrating_stim/white_00109_931230_fa_edt.bmp","3","","","","","","","","","","","",""
"image-keyboard-response","77","162806","0.0-6.0-2.35","63f77927711e9d061dbec33c","bdp_trlrn","Tue Mar 14 2023 21:32:47 GMT-0400 (Eastern Daylight Time)","752843","Trustworthy,Untrustworthy","","","","ratingFB","","null","","trustrating_stim/white_00109_931230_fa_edt.bmp","null","","","","","","","","","","","",""
"image-keyboard-response","78","163446","0.0-6.0-1.36","63f77927711e9d061dbec33c","bdp_trlrn","Tue Mar 14 2023 21:32:47 GMT-0400 (Eastern Daylight Time)","752843","Trustworthy,Untrustworthy","","","","rating","","531","","trustrating_stim/white_00761_941201_fb_edt.bmp","3","","","","","","","","","","","",""
"image-keyboard-response","79","163657","0.0-6.0-2.36","63f77927711e9d061dbec33c","bdp_trlrn","Tue Mar 14 2023 21:32:47 GMT-0400 (Eastern Daylight Time)","752843","Trustworthy,Untrustworthy","","","","ratingFB","","null","","trustrating_stim/white_00761_941201_fb_edt.bmp","null","","","","","","","","","","","",""
"image-keyboard-response","80","164490","0.0-6.0-1.37","63f77927711e9d061dbec33c","bdp_trlrn","Tue Mar 14 2023 21:32:47 GMT-0400 (Eastern Daylight Time)","752843","Trustworthy,Untrustworthy","","","","rating","","725","","trustrating_stim/white_mw071.bmp","3","","","","","","","","","","","",""
"image-keyboard-response","81","164706","0.0-6.0-2.37","63f77927711e9d061dbec33c","bdp_trlrn","Tue Mar 14 2023 21:32:47 GMT-0400 (Eastern Daylight Time)","752843","Trustworthy,Untrustworthy","","","","ratingFB","","null","","trustrating_stim/white_mw071.bmp","null","","","","","","","","","","","",""
"image-keyboard-response","82","166089","0.0-6.0-1.38","63f77927711e9d061dbec33c","bdp_trlrn","Tue Mar 14 2023 21:32:47 GMT-0400 (Eastern Daylight Time)","752843","Trustworthy,Untrustworthy","","","","rating","","1275","","trustrating_stim/white_mw046.bmp","3","","","","","","","","","","","",""
"image-keyboard-response","83","166306","0.0-6.0-2.38","63f77927711e9d061dbec33c","bdp_trlrn","Tue Mar 14 2023 21:32:47 GMT-0400 (Eastern Daylight Time)","752843","Trustworthy,Untrustworthy","","","","ratingFB","","null","","trustrating_stim/white_mw046.bmp","null","","","","","","","","","","","",""
"image-keyboard-response","84","167234","0.0-6.0-1.39","63f77927711e9d061dbec33c","bdp_trlrn","Tue Mar 14 2023 21:32:47 GMT-0400 (Eastern Daylight Time)","752843","Trustworthy,Untrustworthy","","","","rating","","819","","trustrating_stim/white_mw053.bmp","2","","","","","","","","","","","",""
"image-keyboard-response","85","167439","0.0-6.0-2.39","63f77927711e9d061dbec33c","bdp_trlrn","Tue Mar 14 2023 21:32:47 GMT-0400 (Eastern Daylight Time)","752843","Trustworthy,Untrustworthy","","","","ratingFB","","null","","trustrating_stim/white_mw053.bmp","null","","","","","","","","","","","",""
"image-keyboard-response","86","167972","0.0-6.0-1.40","63f77927711e9d061dbec33c","bdp_trlrn","Tue Mar 14 2023 21:32:47 GMT-0400 (Eastern Daylight Time)","752843","Trustworthy,Untrustworthy","","","","rating","","426","","trustrating_stim/white_mw035.bmp","2","","","","","","","","","","","",""
"image-keyboard-response","87","168189","0.0-6.0-2.40","63f77927711e9d061dbec33c","bdp_trlrn","Tue Mar 14 2023 21:32:47 GMT-0400 (Eastern Daylight Time)","752843","Trustworthy,Untrustworthy","","","","ratingFB","","null","","trustrating_stim/white_mw035.bmp","null","","","","","","","","","","","",""
"image-keyboard-response","88","168656","0.0-6.0-1.41","63f77927711e9d061dbec33c","bdp_trlrn","Tue Mar 14 2023 21:32:47 GMT-0400 (Eastern Daylight Time)","752843","Trustworthy,Untrustworthy","","","","rating","","343","","trustrating_stim/white_00785_941205_fb_edt.bmp","2","","","","","","","","","","","",""
"image-keyboard-response","89","168872","0.0-6.0-2.41","63f77927711e9d061dbec33c","bdp_trlrn","Tue Mar 14 2023 21:32:47 GMT-0400 (Eastern Daylight Time)","752843","Trustworthy,Untrustworthy","","","","ratingFB","","null","","trustrating_stim/white_00785_941205_fb_edt.bmp","null","","","","","","","","","","","",""
"image-keyboard-response","90","169930","0.0-6.0-1.42","63f77927711e9d061dbec33c","bdp_trlrn","Tue Mar 14 2023 21:32:47 GMT-0400 (Eastern Daylight Time)","752843","Trustworthy,Untrustworthy","","","","rating","","951","","trustrating_stim/white_mw097.bmp","1","","","","","","","","","","","",""
"image-keyboard-response","91","170139","0.0-6.0-2.42","63f77927711e9d061dbec33c","bdp_trlrn","Tue Mar 14 2023 21:32:47 GMT-0400 (Eastern Daylight Time)","752843","Trustworthy,Untrustworthy","","","","ratingFB","","null","","trustrating_stim/white_mw097.bmp","null","","","","","","","","","","","",""
"image-keyboard-response","92","171583","0.0-6.0-1.43","63f77927711e9d061dbec33c","bdp_trlrn","Tue Mar 14 2023 21:32:47 GMT-0400 (Eastern Daylight Time)","752843","Trustworthy,Untrustworthy","","","","rating","","1337","","trustrating_stim/white_00577_940928_fa_edt.bmp","2","","","","","","","","","","","",""
"image-keyboard-response","93","171790","0.0-6.0-2.43","63f77927711e9d061dbec33c","bdp_trlrn","Tue Mar 14 2023 21:32:47 GMT-0400 (Eastern Daylight Time)","752843","Trustworthy,Untrustworthy","","","","ratingFB","","null","","trustrating_stim/white_00577_940928_fa_edt.bmp","null","","","","","","","","","","","",""
"image-keyboard-response","94","173545","0.0-6.0-1.44","63f77927711e9d061dbec33c","bdp_trlrn","Tue Mar 14 2023 21:32:47 GMT-0400 (Eastern Daylight Time)","752843","Trustworthy,Untrustworthy","","","","rating","","1651","","trustrating_stim/white_mw089.bmp","3","","","","","","","","","","","",""
"image-keyboard-response","95","173754","0.0-6.0-2.44","63f77927711e9d061dbec33c","bdp_trlrn","Tue Mar 14 2023 21:32:47 GMT-0400 (Eastern Daylight Time)","752843","Trustworthy,Untrustworthy","","","","ratingFB","","null","","trustrating_stim/white_mw089.bmp","null","","","","","","","","","","","",""
"image-keyboard-response","96","173952","0.0-6.0-1.45","63f77927711e9d061dbec33c","bdp_trlrn","Tue Mar 14 2023 21:32:47 GMT-0400 (Eastern Daylight Time)","752843","Trustworthy,Untrustworthy","","","","rating","","91","","trustrating_stim/white_00757_941201_fa_edt.bmp","3","","","","","","","","","","","",""
"image-keyboard-response","97","174154","0.0-6.0-2.45","63f77927711e9d061dbec33c","bdp_trlrn","Tue Mar 14 2023 21:32:47 GMT-0400 (Eastern Daylight Time)","752843","Trustworthy,Untrustworthy","","","","ratingFB","","null","","trustrating_stim/white_00757_941201_fa_edt.bmp","null","","","","","","","","","","","",""
"image-keyboard-response","98","174698","0.0-6.0-1.46","63f77927711e9d061dbec33c","bdp_trlrn","Tue Mar 14 2023 21:32:47 GMT-0400 (Eastern Daylight Time)","752843","Trustworthy,Untrustworthy","","","","rating","","434","","trustrating_stim/white_00519_940519_fb_edt.bmp","3","","","","","","","","","","","",""
"image-keyboard-response","99","174904","0.0-6.0-2.46","63f77927711e9d061dbec33c","bdp_trlrn","Tue Mar 14 2023 21:32:47 GMT-0400 (Eastern Daylight Time)","752843","Trustworthy,Untrustworthy","","","","ratingFB","","null","","trustrating_stim/white_00519_940519_fb_edt.bmp","null","","","","","","","","","","","",""
"image-keyboard-response","100","176171","0.0-6.0-1.47","63f77927711e9d061dbec33c","bdp_trlrn","Tue Mar 14 2023 21:32:47 GMT-0400 (Eastern Daylight Time)","752843","Trustworthy,Untrustworthy","","","","rating","","1158","","trustrating_stim/white_mw048.bmp","3","","","","","","","","","","","",""
"image-keyboard-response","101","176387","0.0-6.0-2.47","63f77927711e9d061dbec33c","bdp_trlrn","Tue Mar 14 2023 21:32:47 GMT-0400 (Eastern Daylight Time)","752843","Trustworthy,Untrustworthy","","","","ratingFB","","null","","trustrating_stim/white_mw048.bmp","null","","","","","","","","","","","",""
"image-keyboard-response","102","177380","0.0-6.0-1.48","63f77927711e9d061dbec33c","bdp_trlrn","Tue Mar 14 2023 21:32:47 GMT-0400 (Eastern Daylight Time)","752843","Trustworthy,Untrustworthy","","","","rating","","884","","trustrating_stim/white_00659_941121_fa_edt.bmp","3","","","","","","","","","","","",""
"image-keyboard-response","103","177586","0.0-6.0-2.48","63f77927711e9d061dbec33c","bdp_trlrn","Tue Mar 14 2023 21:32:47 GMT-0400 (Eastern Daylight Time)","752843","Trustworthy,Untrustworthy","","","","ratingFB","","null","","trustrating_stim/white_00659_941121_fa_edt.bmp","null","","","","","","","","","","","",""
"image-keyboard-response","104","178029","0.0-6.0-1.49","63f77927711e9d061dbec33c","bdp_trlrn","Tue Mar 14 2023 21:32:47 GMT-0400 (Eastern Daylight Time)","752843","Trustworthy,Untrustworthy","","","","rating","","336","","trustrating_stim/white_00807_941205_fb_edt.bmp","3","","","","","","","","","","","",""
"image-keyboard-response","105","178239","0.0-6.0-2.49","63f77927711e9d061dbec33c","bdp_trlrn","Tue Mar 14 2023 21:32:47 GMT-0400 (Eastern Daylight Time)","752843","Trustworthy,Untrustworthy","","","","ratingFB","","null","","trustrating_stim/white_00807_941205_fb_edt.bmp","null","","","","","","","","","","","",""
"image-keyboard-response","106","178834","0.0-6.0-1.50","63f77927711e9d061dbec33c","bdp_trlrn","Tue Mar 14 2023 21:32:47 GMT-0400 (Eastern Daylight Time)","752843","Trustworthy,Untrustworthy","","","","rating","","487","","trustrating_stim/white_mw033.bmp","3","","","","","","","","","","","",""
"image-keyboard-response","107","179037","0.0-6.0-2.50","63f77927711e9d061dbec33c","bdp_trlrn","Tue Mar 14 2023 21:32:47 GMT-0400 (Eastern Daylight Time)","752843","Trustworthy,Untrustworthy","","","","ratingFB","","null","","trustrating_stim/white_mw033.bmp","null","","","","","","","","","","","",""
"image-keyboard-response","108","180497","0.0-6.0-1.51","63f77927711e9d061dbec33c","bdp_trlrn","Tue Mar 14 2023 21:32:47 GMT-0400 (Eastern Daylight Time)","752843","Trustworthy,Untrustworthy","","","","rating","","1354","","trustrating_stim/white_mw049.bmp","6","","","","","","","","","","","",""
"image-keyboard-response","109","180704","0.0-6.0-2.51","63f77927711e9d061dbec33c","bdp_trlrn","Tue Mar 14 2023 21:32:47 GMT-0400 (Eastern Daylight Time)","752843","Trustworthy,Untrustworthy","","","","ratingFB","","null","","trustrating_stim/white_mw049.bmp","null","","","","","","","","","","","",""
"image-keyboard-response","110","182177","0.0-6.0-1.52","63f77927711e9d061dbec33c","bdp_trlrn","Tue Mar 14 2023 21:32:47 GMT-0400 (Eastern Daylight Time)","752843","Trustworthy,Untrustworthy","","","","rating","","1365","","trustrating_stim/white_00602_940928_fb_edt.bmp","6","","","","","","","","","","","",""
"image-keyboard-response","111","182385","0.0-6.0-2.52","63f77927711e9d061dbec33c","bdp_trlrn","Tue Mar 14 2023 21:32:47 GMT-0400 (Eastern Daylight Time)","752843","Trustworthy,Untrustworthy","","","","ratingFB","","null","","trustrating_stim/white_00602_940928_fb_edt.bmp","null","","","","","","","","","","","",""
"image-keyboard-response","112","183213","0.0-6.0-1.53","63f77927711e9d061dbec33c","bdp_trlrn","Tue Mar 14 2023 21:32:47 GMT-0400 (Eastern Daylight Time)","752843","Trustworthy,Untrustworthy","","","","rating","","719","","trustrating_stim/white_mw063.bmp","3","","","","","","","","","","","",""
"image-keyboard-response","113","183436","0.0-6.0-2.53","63f77927711e9d061dbec33c","bdp_trlrn","Tue Mar 14 2023 21:32:47 GMT-0400 (Eastern Daylight Time)","752843","Trustworthy,Untrustworthy","","","","ratingFB","","null","","trustrating_stim/white_mw063.bmp","null","","","","","","","","","","","",""
"image-keyboard-response","114","185099","0.0-6.0-1.54","63f77927711e9d061dbec33c","bdp_trlrn","Tue Mar 14 2023 21:32:47 GMT-0400 (Eastern Daylight Time)","752843","Trustworthy,Untrustworthy","","","","rating","","1556","","trustrating_stim/white_00223_940128_fb_edt.bmp","2","","","","","","","","","","","",""
"image-keyboard-response","115","185303","0.0-6.0-2.54","63f77927711e9d061dbec33c","bdp_trlrn","Tue Mar 14 2023 21:32:47 GMT-0400 (Eastern Daylight Time)","752843","Trustworthy,Untrustworthy","","","","ratingFB","","null","","trustrating_stim/white_00223_940128_fb_edt.bmp","null","","","","","","","","","","","",""
"image-keyboard-response","116","186569","0.0-6.0-1.55","63f77927711e9d061dbec33c","bdp_trlrn","Tue Mar 14 2023 21:32:47 GMT-0400 (Eastern Daylight Time)","752843","Trustworthy,Untrustworthy","","","","rating","","1161","","trustrating_stim/white_00120_931230_fa_edt.bmp","3","","","","","","","","","","","",""
"image-keyboard-response","117","186783","0.0-6.0-2.55","63f77927711e9d061dbec33c","bdp_trlrn","Tue Mar 14 2023 21:32:47 GMT-0400 (Eastern Daylight Time)","752843","Trustworthy,Untrustworthy","","","","ratingFB","","null","","trustrating_stim/white_00120_931230_fa_edt.bmp","null","","","","","","","","","","","",""
"image-keyboard-response","118","187771","0.0-6.0-1.56","63f77927711e9d061dbec33c","bdp_trlrn","Tue Mar 14 2023 21:32:47 GMT-0400 (Eastern Daylight Time)","752843","Trustworthy,Untrustworthy","","","","rating","","880","","trustrating_stim/white_00898_960530_fa_edt.bmp","2","","","","","","","","","","","",""
"image-keyboard-response","119","187985","0.0-6.0-2.56","63f77927711e9d061dbec33c","bdp_trlrn","Tue Mar 14 2023 21:32:47 GMT-0400 (Eastern Daylight Time)","752843","Trustworthy,Untrustworthy","","","","ratingFB","","null","","trustrating_stim/white_00898_960530_fa_edt.bmp","null","","","","","","","","","","","",""
"image-keyboard-response","120","188488","0.0-6.0-1.57","63f77927711e9d061dbec33c","bdp_trlrn","Tue Mar 14 2023 21:32:47 GMT-0400 (Eastern Daylight Time)","752843","Trustworthy,Untrustworthy","","","","rating","","397","","trustrating_stim/white_00299_940422_fa_edt.bmp","2","","","","","","","","","","","",""
"image-keyboard-response","121","188699","0.0-6.0-2.57","63f77927711e9d061dbec33c","bdp_trlrn","Tue Mar 14 2023 21:32:47 GMT-0400 (Eastern Daylight Time)","752843","Trustworthy,Untrustworthy","","","","ratingFB","","null","","trustrating_stim/white_00299_940422_fa_edt.bmp","null","","","","","","","","","","","",""
"image-keyboard-response","122","190037","0.0-6.0-1.58","63f77927711e9d061dbec33c","bdp_trlrn","Tue Mar 14 2023 21:32:47 GMT-0400 (Eastern Daylight Time)","752843","Trustworthy,Untrustworthy","","","","rating","","1229","","trustrating_stim/white_mw066.bmp","2","","","","","","","","","","","",""
"image-keyboard-response","123","190251","0.0-6.0-2.58","63f77927711e9d061dbec33c","bdp_trlrn","Tue Mar 14 2023 21:32:47 GMT-0400 (Eastern Daylight Time)","752843","Trustworthy,Untrustworthy","","","","ratingFB","","null","","trustrating_stim/white_mw066.bmp","null","","","","","","","","","","","",""
"image-keyboard-response","124","191308","0.0-6.0-1.59","63f77927711e9d061dbec33c","bdp_trlrn","Tue Mar 14 2023 21:32:47 GMT-0400 (Eastern Daylight Time)","752843","Trustworthy,Untrustworthy","","","","rating","","950","","trustrating_stim/white_00129_931230_fb_edt.bmp","2","","","","","","","","","","","",""
"image-keyboard-response","125","191519","0.0-6.0-2.59","63f77927711e9d061dbec33c","bdp_trlrn","Tue Mar 14 2023 21:32:47 GMT-0400 (Eastern Daylight Time)","752843","Trustworthy,Untrustworthy","","","","ratingFB","","null","","trustrating_stim/white_00129_931230_fb_edt.bmp","null","","","","","","","","","","","",""
"instructions","126","193793","0.0-7.0","63f77927711e9d061dbec33c","bdp_trlrn","Tue Mar 14 2023 21:32:47 GMT-0400 (Eastern Daylight Time)","752843","Trustworthy,Untrustworthy","","","","","[{""page_index"":0,""viewing_time"":2170}]","2170","","","","","","","","","","","","","","",""
"instructions","127","324500","0.0-8.0","63f77927711e9d061dbec33c","bdp_trlrn","Tue Mar 14 2023 21:32:47 GMT-0400 (Eastern Daylight Time)","752843","Trustworthy,Untrustworthy","","","","","[{""page_index"":0,""viewing_time"":29349},{""page_index"":1,""viewing_time"":26133},{""page_index"":2,""viewing_time"":13904},{""page_index"":3,""viewing_time"":18809},{""page_index"":4,""viewing_time"":5720},{""page_index"":5,""viewing_time"":9463},{""page_index"":6,""viewing_time"":25692},{""page_index"":7,""viewing_time"":1522}]","130592","","","","","","","","","","","","","","",""
"html-keyboard-response","128","331823","0.0-9.0","63f77927711e9d061dbec33c","bdp_trlrn","Tue Mar 14 2023 21:32:47 GMT-0400 (Eastern Daylight Time)","752843","Trustworthy,Untrustworthy","","","","","","7320","","<div class='header' style='text-align:left; position: absolute; top: 5%; left: 5%;'><small>Task 2 of 5</small></div><div class='instruxDiv'><p><strong>1) What is the minimum number of points you can choose to send to your partner?</strong></p><p>a) 0</p><p>b) 1</p><p>c) 5</p>","C","","","","","","","","","","","",""
"html-keyboard-response","129","339684","0.0-10.0","63f77927711e9d061dbec33c","bdp_trlrn","Tue Mar 14 2023 21:32:47 GMT-0400 (Eastern Daylight Time)","752843","Trustworthy,Untrustworthy","","","","","","7749","","<div class='header' style='text-align:left; position: absolute; top: 5%; left: 5%;'><small>Task 2 of 5</small></div><div class='instruxDiv'><p><strong>1) What is the minimum number of points you can choose to send to your partner?</strong></p><p>a) 1</p><p>b) 1</p><p style='color:#FF0000'>c) 5</p><h3 style='color:#FF0000'>Incorrect!</h3><h3 class='center-content'>The correct response is b).</h3><h3 class='center-content'>The minimum number of points you can choose to send to your partner is 1 point.</h3><p><em>Press SPACEBAR to continue</em></p></div>"," ","","","","","","","","","","","",""
"html-keyboard-response","130","344735","0.0-11.0","63f77927711e9d061dbec33c","bdp_trlrn","Tue Mar 14 2023 21:32:47 GMT-0400 (Eastern Daylight Time)","752843","Trustworthy,Untrustworthy","","","","","","4936","","<div class='header' style='text-align:left; position: absolute; top: 5%; left: 5%;'><small>Task 2 of 5</small></div><div class='instruxDiv'><p><strong>2) What is the maximum number of points you can choose to send to your partner?</strong></p><p>a) 8</p><p>b) 5</p><p>c) 3</p>","B","","","","","","","","","","","",""
"html-keyboard-response","131","346202","0.0-12.0","63f77927711e9d061dbec33c","bdp_trlrn","Tue Mar 14 2023 21:32:47 GMT-0400 (Eastern Daylight Time)","752843","Trustworthy,Untrustworthy","","","","","","1353","","<div class='header' style='text-align:left; position: absolute; top: 5%; left: 5%;'><small>Task 2 of 5</small></div><div class='instruxDiv'><p><strong>2) What is the maximum number of points you can choose to send to your partner?</strong></p><p>a) 8</p><p style='color:#00FF00'>b) 5</p><p>c) 3</p><h3 style='color:#00FF00'>Correct!</h3><h3 class='center-content'>The correct response is b).</h3><h3 class='center-content'>The maximum number of points you can choose to send to your partner is 5 points.</h3><p><em>Press SPACEBAR to continue</em></p></div>"," ","","","","","","","","","","","",""
"html-keyboard-response","132","350776","0.0-13.0","63f77927711e9d061dbec33c","bdp_trlrn","Tue Mar 14 2023 21:32:47 GMT-0400 (Eastern Daylight Time)","752843","Trustworthy,Untrustworthy","","","","","","4461","","<div class='header' style='text-align:left; position: absolute; top: 5%; left: 5%;'><small>Task 2 of 5</small></div><div class='instruxDiv'><p><strong>3) What happens to the amount of points you send to your partner?</strong></p><p>a) Nothing</p><p>b) It doubles</p><p>c) It quadruples</p>","C","","","","","","","","","","","",""
"html-keyboard-response","133","351640","0.0-14.0","63f77927711e9d061dbec33c","bdp_trlrn","Tue Mar 14 2023 21:32:47 GMT-0400 (Eastern Daylight Time)","752843","Trustworthy,Untrustworthy","","","","","","761","","<div class='header' style='text-align:left; position: absolute; top: 5%; left: 5%;'><small>Task 2 of 5</small></div><div class='instruxDiv'><p><strong>3) What happens to the amount of points you send to your partner?</strong></p><p>a) Nothing</p><p>b) It doubles</p><p style='color:#00FF00'>c) It quadruples</p><h3 style='color:#00FF00'>Correct!</h3><h3 class='center-content'>The correct response is c).</h3><h3 class='center-content'>The amount of points you send to your partner quadruples.</h3><p><em>Press SPACEBAR to continue</em></p></div>"," ","","","","","","","","","","","",""
"html-keyboard-response","134","362543","0.0-15.0","63f77927711e9d061dbec33c","bdp_trlrn","Tue Mar 14 2023 21:32:47 GMT-0400 (Eastern Daylight Time)","752843","Trustworthy,Untrustworthy","","","","","","10797","","<div class='header' style='text-align:left; position: absolute; top: 5%; left: 5%;'><small>Task 2 of 5</small></div><div class='instruxDiv'><p><strong>4) If you decided to share 4 out of 5 points with your partner, and they decided to share half of the amount they received with you, how many points would you receive back from them on this round?</strong></p><p>a) 16</p><p>b) 0</p><p>c) 8</p>","C","","","","","","","","","","","",""
"html-keyboard-response","135","363090","0.0-16.0","63f77927711e9d061dbec33c","bdp_trlrn","Tue Mar 14 2023 21:32:47 GMT-0400 (Eastern Daylight Time)","752843","Trustworthy,Untrustworthy","","","","","","444","","<div class='header' style='text-align:left; position: absolute; top: 5%; left: 5%;'><small>Task 2 of 5</small></div><div class='instruxDiv'><p><strong>4) If you decided to share 4 out of 5 points with your partner, and they decided to share half of the amount they received with you, how many points would you receive back from them on this round?</strong></p><p>a) 16</p><p>b) 0</p><p style='color:#00FF00'>c) 8</p><h3 style='color:#00FF00'>Correct!</h3><h3 class='center-content'>The correct response is c).</h3><h3 class='center-content'>If you shared 4 out of 5 points with your partner and they decided to share half of the amount they received with you, you would receive 8 points back (i.e. (4 x 4)/2 = 8).</h3><p><em>Press SPACEBAR to continue</em></p></div>"," ","","","","","","","","","","","",""
"html-keyboard-response","136","368198","0.0-17.0","63f77927711e9d061dbec33c","bdp_trlrn","Tue Mar 14 2023 21:32:47 GMT-0400 (Eastern Daylight Time)","752843","Trustworthy,Untrustworthy","","","","","","null","","<div class='header' style='text-align:left; position: absolute; top: 5%; left: 5%;'><small>Task 2 of 5</small></div><div class='instruxDiv'><p>Thank you for completing the quiz<p>These are the actual partners you will be interacting with in the next block:<p><div class='tc' align='center'><img class='introPic' src='trustrating_stim/white_mw035.bmp'><br><strong>Devin</strong></div><div class='bl' align='center'><img class='introPic' src='trustrating_stim/white_00519_940519_fb_edt.bmp'><br><strong>Tyler</strong></div><div class='br' align='center'><img class='introPic' src='trustrating_stim/white_mw033.bmp'><br><strong>Aaron</strong></div></div><p>Across <strong>66 rounds</strong> you will interact with each partner <strong>22 times</strong> (in random order).<p style='align:center; color:white'><font <em>Press SPACEBAR to continue</em></p>","null","","","","","","","","","","","",""
"instructions","137","391684","0.0-18.0","63f77927711e9d061dbec33c","bdp_trlrn","Tue Mar 14 2023 21:32:47 GMT-0400 (Eastern Daylight Time)","752843","Trustworthy,Untrustworthy","","","","","[{""page_index"":0,""viewing_time"":15978},{""page_index"":1,""viewing_time"":7507}]","23485","","","","","","","","","","","","","","",""
"html-keyboard-response","138","397793","0.0-19.0-1.0","63f77927711e9d061dbec33c","bdp_trlrn","Tue Mar 14 2023 21:32:47 GMT-0400 (Eastern Daylight Time)","752843","Trustworthy,Untrustworthy","","","","decision","","5991","","<div class='trialDiv'><img src='trustrating_stim/white_mw033.bmp'><br><font class='baseline'><strong>Aaron</strong><p>Choose number of points to send.</font><div class='respPicDiv'><img src='img/responseButtonOffersNo0L.png' class='respPic'></div></div>","4","","1","Aaron","8","Shared","0.8,0.35","9","0.8","trustrating_stim/white_mw033.bmp","4.5","5","1"
"html-keyboard-response","139","398061","0.0-19.0-2.0","63f77927711e9d061dbec33c","bdp_trlrn","Tue Mar 14 2023 21:32:47 GMT-0400 (Eastern Daylight Time)","752843","Trustworthy,Untrustworthy","","","","decisionFB","","null","","<div class='trialDiv'><img src='trustrating_stim/white_mw033.bmp'><br><font class='baseline'><strong>Aaron</strong><p>Choose number of points to send.</font><div class='respPicDiv'><img src='img/responseButtonOffersNo0L4.png' class='respPic'></div></div>","null","","1","Aaron","8","Shared","0.8,0.35","9","0.8","trustrating_stim/white_mw033.bmp","4.5","1","1"
"html-keyboard-response","140","399065","0.0-19.0-3.0","63f77927711e9d061dbec33c","bdp_trlrn","Tue Mar 14 2023 21:32:47 GMT-0400 (Eastern Daylight Time)","752843","Trustworthy,Untrustworthy","","","","feedback","","null","","<div class='trialDiv'><img src='trustrating_stim/white_mw033.bmp'><br><font class='baseline'><strong>Aaron</strong><p>Received: <strong>16</strong></font> &nbsp; &nbsp; &nbsp; &nbsp; &nbsp; &nbsp;<font class='posOutcome'>Shared back: <strong>8</strong></font></font><div class='respPicDiv'><img src='img/responseButtonOffersNo0_wht.png' class='respPic'></div></div>","null","","1","Aaron","8","Shared","0.8,0.35","9","0.8","trustrating_stim/white_mw033.bmp","4.5","9","1"
"html-keyboard-response","141","405335","0.0-19.0-1.1","63f77927711e9d061dbec33c","bdp_trlrn","Tue Mar 14 2023 21:32:47 GMT-0400 (Eastern Daylight Time)","752843","Trustworthy,Untrustworthy","","","","decision","","6269","","<div class='trialDiv'><img src='trustrating_stim/white_mw035.bmp'><br><font class='baseline'><strong>Devin</strong><p>Choose number of points to send.</font><div class='respPicDiv'><img src='img/responseButtonOffersNo0L.png' class='respPic'></div></div>","4","","1","Devin","1","Shared","0.8,0.2","11","0.8","trustrating_stim/white_mw035.bmp","2","14","2"
"html-keyboard-response","142","405600","0.0-19.0-2.1","63f77927711e9d061dbec33c","bdp_trlrn","Tue Mar 14 2023 21:32:47 GMT-0400 (Eastern Daylight Time)","752843","Trustworthy,Untrustworthy","","","","decisionFB","","null","","<div class='trialDiv'><img src='trustrating_stim/white_mw035.bmp'><br><font class='baseline'><strong>Devin</strong><p>Choose number of points to send.</font><div class='respPicDiv'><img src='img/responseButtonOffersNo0L4.png' class='respPic'></div></div>","null","","1","Devin","1","Shared","0.8,0.2","11","0.8","trustrating_stim/white_mw035.bmp","2","10","2"
"html-keyboard-response","143","406611","0.0-19.0-3.1","63f77927711e9d061dbec33c","bdp_trlrn","Tue Mar 14 2023 21:32:47 GMT-0400 (Eastern Daylight Time)","752843","Trustworthy,Untrustworthy","","","","feedback","","null","","<div class='trialDiv'><img src='trustrating_stim/white_mw035.bmp'><br><font class='baseline'><strong>Devin</strong><p>Received: <strong>16</strong></font> &nbsp; &nbsp; &nbsp; &nbsp; &nbsp; &nbsp;<font class='posOutcome'>Shared back: <strong>8</strong></font></font><div class='respPicDiv'><img src='img/responseButtonOffersNo0_wht.png' class='respPic'></div></div>","null","","1","Devin","1","Shared","0.8,0.2","11","0.8","trustrating_stim/white_mw035.bmp","2","18","2"
"html-keyboard-response","144","407075","0.0-19.0-1.2","63f77927711e9d061dbec33c","bdp_trlrn","Tue Mar 14 2023 21:32:47 GMT-0400 (Eastern Daylight Time)","752843","Trustworthy,Untrustworthy","","","","decision","","462","","<div class='trialDiv'><img src='trustrating_stim/white_00519_940519_fb_edt.bmp'><br><font class='baseline'><strong>Tyler</strong><p>Choose number of points to send.</font><div class='respPicDiv'><img src='img/responseButtonOffersNo0L.png' class='respPic'></div></div>","4","","1","Tyler","5","Shared","0.35,0.8","14","0.35","trustrating_stim/white_00519_940519_fb_edt.bmp","2.5","23","3"
"html-keyboard-response","145","407337","0.0-19.0-2.2","63f77927711e9d061dbec33c","bdp_trlrn","Tue Mar 14 2023 21:32:47 GMT-0400 (Eastern Daylight Time)","752843","Trustworthy,Untrustworthy","","","","decisionFB","","null","","<div class='trialDiv'><img src='trustrating_stim/white_00519_940519_fb_edt.bmp'><br><font class='baseline'><strong>Tyler</strong><p>Choose number of points to send.</font><div class='respPicDiv'><img src='img/responseButtonOffersNo0L4.png' class='respPic'></div></div>","null","","1","Tyler","5","Shared","0.35,0.8","14","0.35","trustrating_stim/white_00519_940519_fb_edt.bmp","2.5","19","3"
"html-keyboard-response","146","408354","0.0-19.0-3.2","63f77927711e9d061dbec33c","bdp_trlrn","Tue Mar 14 2023 21:32:47 GMT-0400 (Eastern Daylight Time)","752843","Trustworthy,Untrustworthy","","","","feedback","","null","","<div class='trialDiv'><img src='trustrating_stim/white_00519_940519_fb_edt.bmp'><br><font class='baseline'><strong>Tyler</strong><p>Received: <strong>16</strong></font> &nbsp; &nbsp; &nbsp; &nbsp; &nbsp; &nbsp;<font class='posOutcome'>Shared back: <strong>8</strong></font></font><div class='respPicDiv'><img src='img/responseButtonOffersNo0_wht.png' class='respPic'></div></div>","null","","1","Tyler","5","Shared","0.35,0.8","14","0.35","trustrating_stim/white_00519_940519_fb_edt.bmp","2.5","27","3"
"html-keyboard-response","147","409872","0.0-19.0-1.3","63f77927711e9d061dbec33c","bdp_trlrn","Tue Mar 14 2023 21:32:47 GMT-0400 (Eastern Daylight Time)","752843","Trustworthy,Untrustworthy","","","","decision","","1516","","<div class='trialDiv'><img src='trustrating_stim/white_mw033.bmp'><br><font class='baseline'><strong>Aaron</strong><p>Choose number of points to send.</font><div class='respPicDiv'><img src='img/responseButtonOffersNo0L.png' class='respPic'></div></div>","3","","2","Aaron","8","Kept","0.8,0.35","9","0.8","trustrating_stim/white_mw033.bmp","4.5","32","4"
"html-keyboard-response","148","410125","0.0-19.0-2.3","63f77927711e9d061dbec33c","bdp_trlrn","Tue Mar 14 2023 21:32:47 GMT-0400 (Eastern Daylight Time)","752843","Trustworthy,Untrustworthy","","","","decisionFB","","null","","<div class='trialDiv'><img src='trustrating_stim/white_mw033.bmp'><br><font class='baseline'><strong>Aaron</strong><p>Choose number of points to send.</font><div class='respPicDiv'><img src='img/responseButtonOffersNo0L3.png' class='respPic'></div></div>","null","","2","Aaron","8","Kept","0.8,0.35","9","0.8","trustrating_stim/white_mw033.bmp","4.5","29","4"
"html-keyboard-response","149","411130","0.0-19.0-3.3","63f77927711e9d061dbec33c","bdp_trlrn","Tue Mar 14 2023 21:32:47 GMT-0400 (Eastern Daylight Time)","752843","Trustworthy,Untrustworthy","","","","feedback","","null","","<div class='trialDiv'><img src='trustrating_stim/white_mw033.bmp'><br><font class='baseline'><strong>Aaron</strong><p>Received: <strong>12</strong></font> &nbsp; &nbsp; &nbsp; &nbsp; &nbsp; &nbsp;<font class='negOutcome'>Shared back: <strong>0</strong></font></font><div class='respPicDiv'><img src='img/responseButtonOffersNo0_wht.png' class='respPic'></div></div>","null","","2","Aaron","8","Kept","0.8,0.35","9","0.8","trustrating_stim/white_mw033.bmp","4.5","29","4"
"html-keyboard-response","150","411643","0.0-19.0-1.4","63f77927711e9d061dbec33c","bdp_trlrn","Tue Mar 14 2023 21:32:47 GMT-0400 (Eastern Daylight Time)","752843","Trustworthy,Untrustworthy","","","","decision","","510","","<div class='trialDiv'><img src='trustrating_stim/white_00519_940519_fb_edt.bmp'><br><font class='baseline'><strong>Tyler</strong><p>Choose number of points to send.</font><div class='respPicDiv'><img src='img/responseButtonOffersNo0L.png' class='respPic'></div></div>","3","","2","Tyler","5","Kept","0.35,0.8","14","0.35","trustrating_stim/white_00519_940519_fb_edt.bmp","2.5","34","5"
"html-keyboard-response","151","411902","0.0-19.0-2.4","63f77927711e9d061dbec33c","bdp_trlrn","Tue Mar 14 2023 21:32:47 GMT-0400 (Eastern Daylight Time)","752843","Trustworthy,Untrustworthy","","","","decisionFB","","null","","<div class='trialDiv'><img src='trustrating_stim/white_00519_940519_fb_edt.bmp'><br><font class='baseline'><strong>Tyler</strong><p>Choose number of points to send.</font><div class='respPicDiv'><img src='img/responseButtonOffersNo0L3.png' class='respPic'></div></div>","null","","2","Tyler","5","Kept","0.35,0.8","14","0.35","trustrating_stim/white_00519_940519_fb_edt.bmp","2.5","31","5"
"html-keyboard-response","152","412915","0.0-19.0-3.4","63f77927711e9d061dbec33c","bdp_trlrn","Tue Mar 14 2023 21:32:47 GMT-0400 (Eastern Daylight Time)","752843","Trustworthy,Untrustworthy","","","","feedback","","null","","<div class='trialDiv'><img src='trustrating_stim/white_00519_940519_fb_edt.bmp'><br><font class='baseline'><strong>Tyler</strong><p>Received: <strong>12</strong></font> &nbsp; &nbsp; &nbsp; &nbsp; &nbsp; &nbsp;<font class='negOutcome'>Shared back: <strong>0</strong></font></font><div class='respPicDiv'><img src='img/responseButtonOffersNo0_wht.png' class='respPic'></div></div>","null","","2","Tyler","5","Kept","0.35,0.8","14","0.35","trustrating_stim/white_00519_940519_fb_edt.bmp","2.5","31","5"
"html-keyboard-response","153","413214","0.0-19.0-1.5","63f77927711e9d061dbec33c","bdp_trlrn","Tue Mar 14 2023 21:32:47 GMT-0400 (Eastern Daylight Time)","752843","Trustworthy,Untrustworthy","","","","decision","","296","","<div class='trialDiv'><img src='trustrating_stim/white_mw035.bmp'><br><font class='baseline'><strong>Devin</strong><p>Choose number of points to send.</font><div class='respPicDiv'><img src='img/responseButtonOffersNo0L.png' class='respPic'></div></div>","3","","2","Devin","1","Shared","0.8,0.2","11","0.8","trustrating_stim/white_mw035.bmp","2","36","6"
"html-keyboard-response","154","413477","0.0-19.0-2.5","63f77927711e9d061dbec33c","bdp_trlrn","Tue Mar 14 2023 21:32:47 GMT-0400 (Eastern Daylight Time)","752843","Trustworthy,Untrustworthy","","","","decisionFB","","null","","<div class='trialDiv'><img src='trustrating_stim/white_mw035.bmp'><br><font class='baseline'><strong>Devin</strong><p>Choose number of points to send.</font><div class='respPicDiv'><img src='img/responseButtonOffersNo0L3.png' class='respPic'></div></div>","null","","2","Devin","1","Shared","0.8,0.2","11","0.8","trustrating_stim/white_mw035.bmp","2","33","6"
"html-keyboard-response","155","414483","0.0-19.0-3.5","63f77927711e9d061dbec33c","bdp_trlrn","Tue Mar 14 2023 21:32:47 GMT-0400 (Eastern Daylight Time)","752843","Trustworthy,Untrustworthy","","","","feedback","","null","","<div class='trialDiv'><img src='trustrating_stim/white_mw035.bmp'><br><font class='baseline'><strong>Devin</strong><p>Received: <strong>12</strong></font> &nbsp; &nbsp; &nbsp; &nbsp; &nbsp; &nbsp;<font class='posOutcome'>Shared back: <strong>6</strong></font></font><div class='respPicDiv'><img src='img/responseButtonOffersNo0_wht.png' class='respPic'></div></div>","null","","2","Devin","1","Shared","0.8,0.2","11","0.8","trustrating_stim/white_mw035.bmp","2","39","6"
"html-keyboard-response","156","421092","0.0-19.0-1.6","63f77927711e9d061dbec33c","bdp_trlrn","Tue Mar 14 2023 21:32:47 GMT-0400 (Eastern Daylight Time)","752843","Trustworthy,Untrustworthy","","","","decision","","6607","","<div class='trialDiv'><img src='trustrating_stim/white_mw033.bmp'><br><font class='baseline'><strong>Aaron</strong><p>Choose number of points to send.</font><div class='respPicDiv'><img src='img/responseButtonOffersNo0L.png' class='respPic'></div></div>","5","","3","Aaron","8","Shared","0.8,0.35","9","0.8","trustrating_stim/white_mw033.bmp","4.5","44","7"
"html-keyboard-response","157","421347","0.0-19.0-2.6","63f77927711e9d061dbec33c","bdp_trlrn","Tue Mar 14 2023 21:32:47 GMT-0400 (Eastern Daylight Time)","752843","Trustworthy,Untrustworthy","","","","decisionFB","","null","","<div class='trialDiv'><img src='trustrating_stim/white_mw033.bmp'><br><font class='baseline'><strong>Aaron</strong><p>Choose number of points to send.</font><div class='respPicDiv'><img src='img/responseButtonOffersNo0L5.png' class='respPic'></div></div>","null","","3","Aaron","8","Shared","0.8,0.35","9","0.8","trustrating_stim/white_mw033.bmp","4.5","39","7"
"html-keyboard-response","158","422349","0.0-19.0-3.6","63f77927711e9d061dbec33c","bdp_trlrn","Tue Mar 14 2023 21:32:47 GMT-0400 (Eastern Daylight Time)","752843","Trustworthy,Untrustworthy","","","","feedback","","null","","<div class='trialDiv'><img src='trustrating_stim/white_mw033.bmp'><br><font class='baseline'><strong>Aaron</strong><p>Received: <strong>20</strong></font> &nbsp; &nbsp; &nbsp; &nbsp; &nbsp; &nbsp;<font class='posOutcome'>Shared back: <strong>10</strong></font></font><div class='respPicDiv'><img src='img/responseButtonOffersNo0_wht.png' class='respPic'></div></div>","null","","3","Aaron","8","Shared","0.8,0.35","9","0.8","trustrating_stim/white_mw033.bmp","4.5","49","7"
"html-keyboard-response","159","423491","0.0-19.0-1.7","63f77927711e9d061dbec33c","bdp_trlrn","Tue Mar 14 2023 21:32:47 GMT-0400 (Eastern Daylight Time)","752843","Trustworthy,Untrustworthy","","","","decision","","1140","","<div class='trialDiv'><img src='trustrating_stim/white_00519_940519_fb_edt.bmp'><br><font class='baseline'><strong>Tyler</strong><p>Choose number of points to send.</font><div class='respPicDiv'><img src='img/responseButtonOffersNo0L.png' class='respPic'></div></div>","5","","3","Tyler","5","Shared","0.35,0.8","14","0.35","trustrating_stim/white_00519_940519_fb_edt.bmp","2.5","54","8"
"html-keyboard-response","160","423748","0.0-19.0-2.7","63f77927711e9d061dbec33c","bdp_trlrn","Tue Mar 14 2023 21:32:47 GMT-0400 (Eastern Daylight Time)","752843","Trustworthy,Untrustworthy","","","","decisionFB","","null","","<div class='trialDiv'><img src='trustrating_stim/white_00519_940519_fb_edt.bmp'><br><font class='baseline'><strong>Tyler</strong><p>Choose number of points to send.</font><div class='respPicDiv'><img src='img/responseButtonOffersNo0L5.png' class='respPic'></div></div>","null","","3","Tyler","5","Shared","0.35,0.8","14","0.35","trustrating_stim/white_00519_940519_fb_edt.bmp","2.5","49","8"
"html-keyboard-response","161","424764","0.0-19.0-3.7","63f77927711e9d061dbec33c","bdp_trlrn","Tue Mar 14 2023 21:32:47 GMT-0400 (Eastern Daylight Time)","752843","Trustworthy,Untrustworthy","","","","feedback","","null","","<div class='trialDiv'><img src='trustrating_stim/white_00519_940519_fb_edt.bmp'><br><font class='baseline'><strong>Tyler</strong><p>Received: <strong>20</strong></font> &nbsp; &nbsp; &nbsp; &nbsp; &nbsp; &nbsp;<font class='posOutcome'>Shared back: <strong>10</strong></font></font><div class='respPicDiv'><img src='img/responseButtonOffersNo0_wht.png' class='respPic'></div></div>","null","","3","Tyler","5","Shared","0.35,0.8","14","0.35","trustrating_stim/white_00519_940519_fb_edt.bmp","2.5","59","8"
"html-keyboard-response","162","425143","0.0-19.0-1.8","63f77927711e9d061dbec33c","bdp_trlrn","Tue Mar 14 2023 21:32:47 GMT-0400 (Eastern Daylight Time)","752843","Trustworthy,Untrustworthy","","","","decision","","378","","<div class='trialDiv'><img src='trustrating_stim/white_mw035.bmp'><br><font class='baseline'><strong>Devin</strong><p>Choose number of points to send.</font><div class='respPicDiv'><img src='img/responseButtonOffersNo0L.png' class='respPic'></div></div>","5","","3","Devin","1","Kept","0.8,0.2","11","0.8","trustrating_stim/white_mw035.bmp","2","64","9"
"html-keyboard-response","163","425397","0.0-19.0-2.8","63f77927711e9d061dbec33c","bdp_trlrn","Tue Mar 14 2023 21:32:47 GMT-0400 (Eastern Daylight Time)","752843","Trustworthy,Untrustworthy","","","","decisionFB","","null","","<div class='trialDiv'><img src='trustrating_stim/white_mw035.bmp'><br><font class='baseline'><strong>Devin</strong><p>Choose number of points to send.</font><div class='respPicDiv'><img src='img/responseButtonOffersNo0L5.png' class='respPic'></div></div>","null","","3","Devin","1","Kept","0.8,0.2","11","0.8","trustrating_stim/white_mw035.bmp","2","59","9"
"html-keyboard-response","164","426402","0.0-19.0-3.8","63f77927711e9d061dbec33c","bdp_trlrn","Tue Mar 14 2023 21:32:47 GMT-0400 (Eastern Daylight Time)","752843","Trustworthy,Untrustworthy","","","","feedback","","null","","<div class='trialDiv'><img src='trustrating_stim/white_mw035.bmp'><br><font class='baseline'><strong>Devin</strong><p>Received: <strong>20</strong></font> &nbsp; &nbsp; &nbsp; &nbsp; &nbsp; &nbsp;<font class='negOutcome'>Shared back: <strong>0</strong></font></font><div class='respPicDiv'><img src='img/responseButtonOffersNo0_wht.png' class='respPic'></div></div>","null","","3","Devin","1","Kept","0.8,0.2","11","0.8","trustrating_stim/white_mw035.bmp","2","59","9"
"html-keyboard-response","165","431317","0.0-19.0-1.9","63f77927711e9d061dbec33c","bdp_trlrn","Tue Mar 14 2023 21:32:47 GMT-0400 (Eastern Daylight Time)","752843","Trustworthy,Untrustworthy","","","","decision","","4913","","<div class='trialDiv'><img src='trustrating_stim/white_mw033.bmp'><br><font class='baseline'><strong>Aaron</strong><p>Choose number of points to send.</font><div class='respPicDiv'><img src='img/responseButtonOffersNo0L.png' class='respPic'></div></div>","5","","4","Aaron","8","Kept","0.8,0.35","9","0.8","trustrating_stim/white_mw033.bmp","4.5","64","10"
"html-keyboard-response","166","431577","0.0-19.0-2.9","63f77927711e9d061dbec33c","bdp_trlrn","Tue Mar 14 2023 21:32:47 GMT-0400 (Eastern Daylight Time)","752843","Trustworthy,Untrustworthy","","","","decisionFB","","null","","<div class='trialDiv'><img src='trustrating_stim/white_mw033.bmp'><br><font class='baseline'><strong>Aaron</strong><p>Choose number of points to send.</font><div class='respPicDiv'><img src='img/responseButtonOffersNo0L5.png' class='respPic'></div></div>","null","","4","Aaron","8","Kept","0.8,0.35","9","0.8","trustrating_stim/white_mw033.bmp","4.5","59","10"
"html-keyboard-response","167","432584","0.0-19.0-3.9","63f77927711e9d061dbec33c","bdp_trlrn","Tue Mar 14 2023 21:32:47 GMT-0400 (Eastern Daylight Time)","752843","Trustworthy,Untrustworthy","","","","feedback","","null","","<div class='trialDiv'><img src='trustrating_stim/white_mw033.bmp'><br><font class='baseline'><strong>Aaron</strong><p>Received: <strong>20</strong></font> &nbsp; &nbsp; &nbsp; &nbsp; &nbsp; &nbsp;<font class='negOutcome'>Shared back: <strong>0</strong></font></font><div class='respPicDiv'><img src='img/responseButtonOffersNo0_wht.png' class='respPic'></div></div>","null","","4","Aaron","8","Kept","0.8,0.35","9","0.8","trustrating_stim/white_mw033.bmp","4.5","59","10"
"html-keyboard-response","168","436758","0.0-19.0-1.10","63f77927711e9d061dbec33c","bdp_trlrn","Tue Mar 14 2023 21:32:47 GMT-0400 (Eastern Daylight Time)","752843","Trustworthy,Untrustworthy","","","","decision","","4173","","<div class='trialDiv'><img src='trustrating_stim/white_mw035.bmp'><br><font class='baseline'><strong>Devin</strong><p>Choose number of points to send.</font><div class='respPicDiv'><img src='img/responseButtonOffersNo0L.png' class='respPic'></div></div>","3","","4","Devin","1","Kept","0.8,0.2","11","0.8","trustrating_stim/white_mw035.bmp","2","64","11"
"html-keyboard-response","169","437027","0.0-19.0-2.10","63f77927711e9d061dbec33c","bdp_trlrn","Tue Mar 14 2023 21:32:47 GMT-0400 (Eastern Daylight Time)","752843","Trustworthy,Untrustworthy","","","","decisionFB","","null","","<div class='trialDiv'><img src='trustrating_stim/white_mw035.bmp'><br><font class='baseline'><strong>Devin</strong><p>Choose number of points to send.</font><div class='respPicDiv'><img src='img/responseButtonOffersNo0L3.png' class='respPic'></div></div>","null","","4","Devin","1","Kept","0.8,0.2","11","0.8","trustrating_stim/white_mw035.bmp","2","61","11"
"html-keyboard-response","170","438036","0.0-19.0-3.10","63f77927711e9d061dbec33c","bdp_trlrn","Tue Mar 14 2023 21:32:47 GMT-0400 (Eastern Daylight Time)","752843","Trustworthy,Untrustworthy","","","","feedback","","null","","<div class='trialDiv'><img src='trustrating_stim/white_mw035.bmp'><br><font class='baseline'><strong>Devin</strong><p>Received: <strong>12</strong></font> &nbsp; &nbsp; &nbsp; &nbsp; &nbsp; &nbsp;<font class='negOutcome'>Shared back: <strong>0</strong></font></font><div class='respPicDiv'><img src='img/responseButtonOffersNo0_wht.png' class='respPic'></div></div>","null","","4","Devin","1","Kept","0.8,0.2","11","0.8","trustrating_stim/white_mw035.bmp","2","61","11"
"html-keyboard-response","171","439660","0.0-19.0-1.11","63f77927711e9d061dbec33c","bdp_trlrn","Tue Mar 14 2023 21:32:47 GMT-0400 (Eastern Daylight Time)","752843","Trustworthy,Untrustworthy","","","","decision","","1621","","<div class='trialDiv'><img src='trustrating_stim/white_00519_940519_fb_edt.bmp'><br><font class='baseline'><strong>Tyler</strong><p>Choose number of points to send.</font><div class='respPicDiv'><img src='img/responseButtonOffersNo0L.png' class='respPic'></div></div>","5","","4","Tyler","5","Shared","0.35,0.8","14","0.35","trustrating_stim/white_00519_940519_fb_edt.bmp","2.5","66","12"
"html-keyboard-response","172","439926","0.0-19.0-2.11","63f77927711e9d061dbec33c","bdp_trlrn","Tue Mar 14 2023 21:32:47 GMT-0400 (Eastern Daylight Time)","752843","Trustworthy,Untrustworthy","","","","decisionFB","","null","","<div class='trialDiv'><img src='trustrating_stim/white_00519_940519_fb_edt.bmp'><br><font class='baseline'><strong>Tyler</strong><p>Choose number of points to send.</font><div class='respPicDiv'><img src='img/responseButtonOffersNo0L5.png' class='respPic'></div></div>","null","","4","Tyler","5","Shared","0.35,0.8","14","0.35","trustrating_stim/white_00519_940519_fb_edt.bmp","2.5","61","12"
"html-keyboard-response","173","440939","0.0-19.0-3.11","63f77927711e9d061dbec33c","bdp_trlrn","Tue Mar 14 2023 21:32:47 GMT-0400 (Eastern Daylight Time)","752843","Trustworthy,Untrustworthy","","","","feedback","","null","","<div class='trialDiv'><img src='trustrating_stim/white_00519_940519_fb_edt.bmp'><br><font class='baseline'><strong>Tyler</strong><p>Received: <strong>20</strong></font> &nbsp; &nbsp; &nbsp; &nbsp; &nbsp; &nbsp;<font class='posOutcome'>Shared back: <strong>10</strong></font></font><div class='respPicDiv'><img src='img/responseButtonOffersNo0_wht.png' class='respPic'></div></div>","null","","4","Tyler","5","Shared","0.35,0.8","14","0.35","trustrating_stim/white_00519_940519_fb_edt.bmp","2.5","71","12"
"html-keyboard-response","174","442574","0.0-19.0-1.12","63f77927711e9d061dbec33c","bdp_trlrn","Tue Mar 14 2023 21:32:47 GMT-0400 (Eastern Daylight Time)","752843","Trustworthy,Untrustworthy","","","","decision","","1633","","<div class='trialDiv'><img src='trustrating_stim/white_mw035.bmp'><br><font class='baseline'><strong>Devin</strong><p>Choose number of points to send.</font><div class='respPicDiv'><img src='img/responseButtonOffersNo0L.png' class='respPic'></div></div>","1","","5","Devin","1","Kept","0.8,0.2","11","0.8","trustrating_stim/white_mw035.bmp","2","76","13"
"html-keyboard-response","175","442828","0.0-19.0-2.12","63f77927711e9d061dbec33c","bdp_trlrn","Tue Mar 14 2023 21:32:47 GMT-0400 (Eastern Daylight Time)","752843","Trustworthy,Untrustworthy","","","","decisionFB","","null","","<div class='trialDiv'><img src='trustrating_stim/white_mw035.bmp'><br><font class='baseline'><strong>Devin</strong><p>Choose number of points to send.</font><div class='respPicDiv'><img src='img/responseButtonOffersNo0L1.png' class='respPic'></div></div>","null","","5","Devin","1","Kept","0.8,0.2","11","0.8","trustrating_stim/white_mw035.bmp","2","75","13"
"html-keyboard-response","176","443833","0.0-19.0-3.12","63f77927711e9d061dbec33c","bdp_trlrn","Tue Mar 14 2023 21:32:47 GMT-0400 (Eastern Daylight Time)","752843","Trustworthy,Untrustworthy","","","","feedback","","null","","<div class='trialDiv'><img src='trustrating_stim/white_mw035.bmp'><br><font class='baseline'><strong>Devin</strong><p>Received: <strong>4</strong></font> &nbsp; &nbsp; &nbsp; &nbsp; &nbsp; &nbsp;<font class='negOutcome'>Shared back: <strong>0</strong></font></font><div class='respPicDiv'><img src='img/responseButtonOffersNo0_wht.png' class='respPic'></div></div>","null","","5","Devin","1","Kept","0.8,0.2","11","0.8","trustrating_stim/white_mw035.bmp","2","75","13"
"html-keyboard-response","177","445859","0.0-19.0-1.13","63f77927711e9d061dbec33c","bdp_trlrn","Tue Mar 14 2023 21:32:47 GMT-0400 (Eastern Daylight Time)","752843","Trustworthy,Untrustworthy","","","","decision","","2024","","<div class='trialDiv'><img src='trustrating_stim/white_mw033.bmp'><br><font class='baseline'><strong>Aaron</strong><p>Choose number of points to send.</font><div class='respPicDiv'><img src='img/responseButtonOffersNo0L.png' class='respPic'></div></div>","5","","5","Aaron","8","Kept","0.8,0.35","9","0.8","trustrating_stim/white_mw033.bmp","4.5","80","14"
"html-keyboard-response","178","446124","0.0-19.0-2.13","63f77927711e9d061dbec33c","bdp_trlrn","Tue Mar 14 2023 21:32:47 GMT-0400 (Eastern Daylight Time)","752843","Trustworthy,Untrustworthy","","","","decisionFB","","null","","<div class='trialDiv'><img src='trustrating_stim/white_mw033.bmp'><br><font class='baseline'><strong>Aaron</strong><p>Choose number of points to send.</font><div class='respPicDiv'><img src='img/responseButtonOffersNo0L5.png' class='respPic'></div></div>","null","","5","Aaron","8","Kept","0.8,0.35","9","0.8","trustrating_stim/white_mw033.bmp","4.5","75","14"
"html-keyboard-response","179","447140","0.0-19.0-3.13","63f77927711e9d061dbec33c","bdp_trlrn","Tue Mar 14 2023 21:32:47 GMT-0400 (Eastern Daylight Time)","752843","Trustworthy,Untrustworthy","","","","feedback","","null","","<div class='trialDiv'><img src='trustrating_stim/white_mw033.bmp'><br><font class='baseline'><strong>Aaron</strong><p>Received: <strong>20</strong></font> &nbsp; &nbsp; &nbsp; &nbsp; &nbsp; &nbsp;<font class='negOutcome'>Shared back: <strong>0</strong></font></font><div class='respPicDiv'><img src='img/responseButtonOffersNo0_wht.png' class='respPic'></div></div>","null","","5","Aaron","8","Kept","0.8,0.35","9","0.8","trustrating_stim/white_mw033.bmp","4.5","75","14"
"html-keyboard-response","180","447692","0.0-19.0-1.14","63f77927711e9d061dbec33c","bdp_trlrn","Tue Mar 14 2023 21:32:47 GMT-0400 (Eastern Daylight Time)","752843","Trustworthy,Untrustworthy","","","","decision","","551","","<div class='trialDiv'><img src='trustrating_stim/white_00519_940519_fb_edt.bmp'><br><font class='baseline'><strong>Tyler</strong><p>Choose number of points to send.</font><div class='respPicDiv'><img src='img/responseButtonOffersNo0L.png' class='respPic'></div></div>","5","","5","Tyler","5","Kept","0.35,0.8","14","0.35","trustrating_stim/white_00519_940519_fb_edt.bmp","2.5","80","15"
"html-keyboard-response","181","447957","0.0-19.0-2.14","63f77927711e9d061dbec33c","bdp_trlrn","Tue Mar 14 2023 21:32:47 GMT-0400 (Eastern Daylight Time)","752843","Trustworthy,Untrustworthy","","","","decisionFB","","null","","<div class='trialDiv'><img src='trustrating_stim/white_00519_940519_fb_edt.bmp'><br><font class='baseline'><strong>Tyler</strong><p>Choose number of points to send.</font><div class='respPicDiv'><img src='img/responseButtonOffersNo0L5.png' class='respPic'></div></div>","null","","5","Tyler","5","Kept","0.35,0.8","14","0.35","trustrating_stim/white_00519_940519_fb_edt.bmp","2.5","75","15"
"html-keyboard-response","182","448970","0.0-19.0-3.14","63f77927711e9d061dbec33c","bdp_trlrn","Tue Mar 14 2023 21:32:47 GMT-0400 (Eastern Daylight Time)","752843","Trustworthy,Untrustworthy","","","","feedback","","null","","<div class='trialDiv'><img src='trustrating_stim/white_00519_940519_fb_edt.bmp'><br><font class='baseline'><strong>Tyler</strong><p>Received: <strong>20</strong></font> &nbsp; &nbsp; &nbsp; &nbsp; &nbsp; &nbsp;<font class='negOutcome'>Shared back: <strong>0</strong></font></font><div class='respPicDiv'><img src='img/responseButtonOffersNo0_wht.png' class='respPic'></div></div>","null","","5","Tyler","5","Kept","0.35,0.8","14","0.35","trustrating_stim/white_00519_940519_fb_edt.bmp","2.5","75","15"
"html-keyboard-response","183","449542","0.0-19.0-1.15","63f77927711e9d061dbec33c","bdp_trlrn","Tue Mar 14 2023 21:32:47 GMT-0400 (Eastern Daylight Time)","752843","Trustworthy,Untrustworthy","","","","decision","","571","","<div class='trialDiv'><img src='trustrating_stim/white_mw033.bmp'><br><font class='baseline'><strong>Aaron</strong><p>Choose number of points to send.</font><div class='respPicDiv'><img src='img/responseButtonOffersNo0L.png' class='respPic'></div></div>","3","","6","Aaron","8","Kept","0.8,0.35","9","0.8","trustrating_stim/white_mw033.bmp","4.5","80","16"
"html-keyboard-response","184","449807","0.0-19.0-2.15","63f77927711e9d061dbec33c","bdp_trlrn","Tue Mar 14 2023 21:32:47 GMT-0400 (Eastern Daylight Time)","752843","Trustworthy,Untrustworthy","","","","decisionFB","","null","","<div class='trialDiv'><img src='trustrating_stim/white_mw033.bmp'><br><font class='baseline'><strong>Aaron</strong><p>Choose number of points to send.</font><div class='respPicDiv'><img src='img/responseButtonOffersNo0L3.png' class='respPic'></div></div>","null","","6","Aaron","8","Kept","0.8,0.35","9","0.8","trustrating_stim/white_mw033.bmp","4.5","77","16"
"html-keyboard-response","185","450823","0.0-19.0-3.15","63f77927711e9d061dbec33c","bdp_trlrn","Tue Mar 14 2023 21:32:47 GMT-0400 (Eastern Daylight Time)","752843","Trustworthy,Untrustworthy","","","","feedback","","null","","<div class='trialDiv'><img src='trustrating_stim/white_mw033.bmp'><br><font class='baseline'><strong>Aaron</strong><p>Received: <strong>12</strong></font> &nbsp; &nbsp; &nbsp; &nbsp; &nbsp; &nbsp;<font class='negOutcome'>Shared back: <strong>0</strong></font></font><div class='respPicDiv'><img src='img/responseButtonOffersNo0_wht.png' class='respPic'></div></div>","null","","6","Aaron","8","Kept","0.8,0.35","9","0.8","trustrating_stim/white_mw033.bmp","4.5","77","16"
"html-keyboard-response","186","451410","0.0-19.0-1.16","63f77927711e9d061dbec33c","bdp_trlrn","Tue Mar 14 2023 21:32:47 GMT-0400 (Eastern Daylight Time)","752843","Trustworthy,Untrustworthy","","","","decision","","585","","<div class='trialDiv'><img src='trustrating_stim/white_mw035.bmp'><br><font class='baseline'><strong>Devin</strong><p>Choose number of points to send.</font><div class='respPicDiv'><img src='img/responseButtonOffersNo0L.png' class='respPic'></div></div>","3","","6","Devin","1","Shared","0.8,0.2","11","0.8","trustrating_stim/white_mw035.bmp","2","82","17"
"html-keyboard-response","187","451672","0.0-19.0-2.16","63f77927711e9d061dbec33c","bdp_trlrn","Tue Mar 14 2023 21:32:47 GMT-0400 (Eastern Daylight Time)","752843","Trustworthy,Untrustworthy","","","","decisionFB","","null","","<div class='trialDiv'><img src='trustrating_stim/white_mw035.bmp'><br><font class='baseline'><strong>Devin</strong><p>Choose number of points to send.</font><div class='respPicDiv'><img src='img/responseButtonOffersNo0L3.png' class='respPic'></div></div>","null","","6","Devin","1","Shared","0.8,0.2","11","0.8","trustrating_stim/white_mw035.bmp","2","79","17"
"html-keyboard-response","188","452688","0.0-19.0-3.16","63f77927711e9d061dbec33c","bdp_trlrn","Tue Mar 14 2023 21:32:47 GMT-0400 (Eastern Daylight Time)","752843","Trustworthy,Untrustworthy","","","","feedback","","null","","<div class='trialDiv'><img src='trustrating_stim/white_mw035.bmp'><br><font class='baseline'><strong>Devin</strong><p>Received: <strong>12</strong></font> &nbsp; &nbsp; &nbsp; &nbsp; &nbsp; &nbsp;<font class='posOutcome'>Shared back: <strong>6</strong></font></font><div class='respPicDiv'><img src='img/responseButtonOffersNo0_wht.png' class='respPic'></div></div>","null","","6","Devin","1","Shared","0.8,0.2","11","0.8","trustrating_stim/white_mw035.bmp","2","85","17"
"html-keyboard-response","189","453293","0.0-19.0-1.17","63f77927711e9d061dbec33c","bdp_trlrn","Tue Mar 14 2023 21:32:47 GMT-0400 (Eastern Daylight Time)","752843","Trustworthy,Untrustworthy","","","","decision","","604","","<div class='trialDiv'><img src='trustrating_stim/white_00519_940519_fb_edt.bmp'><br><font class='baseline'><strong>Tyler</strong><p>Choose number of points to send.</font><div class='respPicDiv'><img src='img/responseButtonOffersNo0L.png' class='respPic'></div></div>","3","","6","Tyler","5","Kept","0.35,0.8","14","0.35","trustrating_stim/white_00519_940519_fb_edt.bmp","2.5","90","18"
"html-keyboard-response","190","453556","0.0-19.0-2.17","63f77927711e9d061dbec33c","bdp_trlrn","Tue Mar 14 2023 21:32:47 GMT-0400 (Eastern Daylight Time)","752843","Trustworthy,Untrustworthy","","","","decisionFB","","null","","<div class='trialDiv'><img src='trustrating_stim/white_00519_940519_fb_edt.bmp'><br><font class='baseline'><strong>Tyler</strong><p>Choose number of points to send.</font><div class='respPicDiv'><img src='img/responseButtonOffersNo0L3.png' class='respPic'></div></div>","null","","6","Tyler","5","Kept","0.35,0.8","14","0.35","trustrating_stim/white_00519_940519_fb_edt.bmp","2.5","87","18"
"html-keyboard-response","191","454573","0.0-19.0-3.17","63f77927711e9d061dbec33c","bdp_trlrn","Tue Mar 14 2023 21:32:47 GMT-0400 (Eastern Daylight Time)","752843","Trustworthy,Untrustworthy","","","","feedback","","null","","<div class='trialDiv'><img src='trustrating_stim/white_00519_940519_fb_edt.bmp'><br><font class='baseline'><strong>Tyler</strong><p>Received: <strong>12</strong></font> &nbsp; &nbsp; &nbsp; &nbsp; &nbsp; &nbsp;<font class='negOutcome'>Shared back: <strong>0</strong></font></font><div class='respPicDiv'><img src='img/responseButtonOffersNo0_wht.png' class='respPic'></div></div>","null","","6","Tyler","5","Kept","0.35,0.8","14","0.35","trustrating_stim/white_00519_940519_fb_edt.bmp","2.5","87","18"
"html-keyboard-response","192","462555","0.0-19.0-1.18","63f77927711e9d061dbec33c","bdp_trlrn","Tue Mar 14 2023 21:32:47 GMT-0400 (Eastern Daylight Time)","752843","Trustworthy,Untrustworthy","","","","decision","","7980","","<div class='trialDiv'><img src='trustrating_stim/white_mw033.bmp'><br><font class='baseline'><strong>Aaron</strong><p>Choose number of points to send.</font><div class='respPicDiv'><img src='img/responseButtonOffersNo0L.png' class='respPic'></div></div>","3","","7","Aaron","8","Shared","0.8,0.35","9","0.8","trustrating_stim/white_mw033.bmp","4.5","92","19"
"html-keyboard-response","193","462820","0.0-19.0-2.18","63f77927711e9d061dbec33c","bdp_trlrn","Tue Mar 14 2023 21:32:47 GMT-0400 (Eastern Daylight Time)","752843","Trustworthy,Untrustworthy","","","","decisionFB","","null","","<div class='trialDiv'><img src='trustrating_stim/white_mw033.bmp'><br><font class='baseline'><strong>Aaron</strong><p>Choose number of points to send.</font><div class='respPicDiv'><img src='img/responseButtonOffersNo0L3.png' class='respPic'></div></div>","null","","7","Aaron","8","Shared","0.8,0.35","9","0.8","trustrating_stim/white_mw033.bmp","4.5","89","19"
"html-keyboard-response","194","463827","0.0-19.0-3.18","63f77927711e9d061dbec33c","bdp_trlrn","Tue Mar 14 2023 21:32:47 GMT-0400 (Eastern Daylight Time)","752843","Trustworthy,Untrustworthy","","","","feedback","","null","","<div class='trialDiv'><img src='trustrating_stim/white_mw033.bmp'><br><font class='baseline'><strong>Aaron</strong><p>Received: <strong>12</strong></font> &nbsp; &nbsp; &nbsp; &nbsp; &nbsp; &nbsp;<font class='posOutcome'>Shared back: <strong>6</strong></font></font><div class='respPicDiv'><img src='img/responseButtonOffersNo0_wht.png' class='respPic'></div></div>","null","","7","Aaron","8","Shared","0.8,0.35","9","0.8","trustrating_stim/white_mw033.bmp","4.5","95","19"
"html-keyboard-response","195","465241","0.0-19.0-1.19","63f77927711e9d061dbec33c","bdp_trlrn","Tue Mar 14 2023 21:32:47 GMT-0400 (Eastern Daylight Time)","752843","Trustworthy,Untrustworthy","","","","decision","","1413","","<div class='trialDiv'><img src='trustrating_stim/white_00519_940519_fb_edt.bmp'><br><font class='baseline'><strong>Tyler</strong><p>Choose number of points to send.</font><div class='respPicDiv'><img src='img/responseButtonOffersNo0L.png' class='respPic'></div></div>","2","","7","Tyler","5","Kept","0.35,0.8","14","0.35","trustrating_stim/white_00519_940519_fb_edt.bmp","2.5","100","20"
"html-keyboard-response","196","465505","0.0-19.0-2.19","63f77927711e9d061dbec33c","bdp_trlrn","Tue Mar 14 2023 21:32:47 GMT-0400 (Eastern Daylight Time)","752843","Trustworthy,Untrustworthy","","","","decisionFB","","null","","<div class='trialDiv'><img src='trustrating_stim/white_00519_940519_fb_edt.bmp'><br><font class='baseline'><strong>Tyler</strong><p>Choose number of points to send.</font><div class='respPicDiv'><img src='img/responseButtonOffersNo0L2.png' class='respPic'></div></div>","null","","7","Tyler","5","Kept","0.35,0.8","14","0.35","trustrating_stim/white_00519_940519_fb_edt.bmp","2.5","98","20"
"html-keyboard-response","197","466515","0.0-19.0-3.19","63f77927711e9d061dbec33c","bdp_trlrn","Tue Mar 14 2023 21:32:47 GMT-0400 (Eastern Daylight Time)","752843","Trustworthy,Untrustworthy","","","","feedback","","null","","<div class='trialDiv'><img src='trustrating_stim/white_00519_940519_fb_edt.bmp'><br><font class='baseline'><strong>Tyler</strong><p>Received: <strong>8</strong></font> &nbsp; &nbsp; &nbsp; &nbsp; &nbsp; &nbsp;<font class='negOutcome'>Shared back: <strong>0</strong></font></font><div class='respPicDiv'><img src='img/responseButtonOffersNo0_wht.png' class='respPic'></div></div>","null","","7","Tyler","5","Kept","0.35,0.8","14","0.35","trustrating_stim/white_00519_940519_fb_edt.bmp","2.5","98","20"
"html-keyboard-response","198","468519","0.0-19.0-1.20","63f77927711e9d061dbec33c","bdp_trlrn","Tue Mar 14 2023 21:32:47 GMT-0400 (Eastern Daylight Time)","752843","Trustworthy,Untrustworthy","","","","decision","","2003","","<div class='trialDiv'><img src='trustrating_stim/white_mw035.bmp'><br><font class='baseline'><strong>Devin</strong><p>Choose number of points to send.</font><div class='respPicDiv'><img src='img/responseButtonOffersNo0L.png' class='respPic'></div></div>","5","","7","Devin","1","Shared","0.8,0.2","11","0.8","trustrating_stim/white_mw035.bmp","2","103","21"
"html-keyboard-response","199","468774","0.0-19.0-2.20","63f77927711e9d061dbec33c","bdp_trlrn","Tue Mar 14 2023 21:32:47 GMT-0400 (Eastern Daylight Time)","752843","Trustworthy,Untrustworthy","","","","decisionFB","","null","","<div class='trialDiv'><img src='trustrating_stim/white_mw035.bmp'><br><font class='baseline'><strong>Devin</strong><p>Choose number of points to send.</font><div class='respPicDiv'><img src='img/responseButtonOffersNo0L5.png' class='respPic'></div></div>","null","","7","Devin","1","Shared","0.8,0.2","11","0.8","trustrating_stim/white_mw035.bmp","2","98","21"
"html-keyboard-response","200","469787","0.0-19.0-3.20","63f77927711e9d061dbec33c","bdp_trlrn","Tue Mar 14 2023 21:32:47 GMT-0400 (Eastern Daylight Time)","752843","Trustworthy,Untrustworthy","","","","feedback","","null","","<div class='trialDiv'><img src='trustrating_stim/white_mw035.bmp'><br><font class='baseline'><strong>Devin</strong><p>Received: <strong>20</strong></font> &nbsp; &nbsp; &nbsp; &nbsp; &nbsp; &nbsp;<font class='posOutcome'>Shared back: <strong>10</strong></font></font><div class='respPicDiv'><img src='img/responseButtonOffersNo0_wht.png' class='respPic'></div></div>","null","","7","Devin","1","Shared","0.8,0.2","11","0.8","trustrating_stim/white_mw035.bmp","2","108","21"
"html-keyboard-response","201","471267","0.0-19.0-1.21","63f77927711e9d061dbec33c","bdp_trlrn","Tue Mar 14 2023 21:32:47 GMT-0400 (Eastern Daylight Time)","752843","Trustworthy,Untrustworthy","","","","decision","","1479","","<div class='trialDiv'><img src='trustrating_stim/white_00519_940519_fb_edt.bmp'><br><font class='baseline'><strong>Tyler</strong><p>Choose number of points to send.</font><div class='respPicDiv'><img src='img/responseButtonOffersNo0L.png' class='respPic'></div></div>","1","","8","Tyler","5","Kept","0.35,0.8","14","0.35","trustrating_stim/white_00519_940519_fb_edt.bmp","2.5","113","22"
"html-keyboard-response","202","471521","0.0-19.0-2.21","63f77927711e9d061dbec33c","bdp_trlrn","Tue Mar 14 2023 21:32:47 GMT-0400 (Eastern Daylight Time)","752843","Trustworthy,Untrustworthy","","","","decisionFB","","null","","<div class='trialDiv'><img src='trustrating_stim/white_00519_940519_fb_edt.bmp'><br><font class='baseline'><strong>Tyler</strong><p>Choose number of points to send.</font><div class='respPicDiv'><img src='img/responseButtonOffersNo0L1.png' class='respPic'></div></div>","null","","8","Tyler","5","Kept","0.35,0.8","14","0.35","trustrating_stim/white_00519_940519_fb_edt.bmp","2.5","112","22"
"html-keyboard-response","203","472527","0.0-19.0-3.21","63f77927711e9d061dbec33c","bdp_trlrn","Tue Mar 14 2023 21:32:47 GMT-0400 (Eastern Daylight Time)","752843","Trustworthy,Untrustworthy","","","","feedback","","null","","<div class='trialDiv'><img src='trustrating_stim/white_00519_940519_fb_edt.bmp'><br><font class='baseline'><strong>Tyler</strong><p>Received: <strong>4</strong></font> &nbsp; &nbsp; &nbsp; &nbsp; &nbsp; &nbsp;<font class='negOutcome'>Shared back: <strong>0</strong></font></font><div class='respPicDiv'><img src='img/responseButtonOffersNo0_wht.png' class='respPic'></div></div>","null","","8","Tyler","5","Kept","0.35,0.8","14","0.35","trustrating_stim/white_00519_940519_fb_edt.bmp","2.5","112","22"
"html-keyboard-response","204","473510","0.0-19.0-1.22","63f77927711e9d061dbec33c","bdp_trlrn","Tue Mar 14 2023 21:32:47 GMT-0400 (Eastern Daylight Time)","752843","Trustworthy,Untrustworthy","","","","decision","","982","","<div class='trialDiv'><img src='trustrating_stim/white_mw035.bmp'><br><font class='baseline'><strong>Devin</strong><p>Choose number of points to send.</font><div class='respPicDiv'><img src='img/responseButtonOffersNo0L.png' class='respPic'></div></div>","3","","8","Devin","1","Shared","0.8,0.2","11","0.8","trustrating_stim/white_mw035.bmp","2","117","23"
"html-keyboard-response","205","473769","0.0-19.0-2.22","63f77927711e9d061dbec33c","bdp_trlrn","Tue Mar 14 2023 21:32:47 GMT-0400 (Eastern Daylight Time)","752843","Trustworthy,Untrustworthy","","","","decisionFB","","null","","<div class='trialDiv'><img src='trustrating_stim/white_mw035.bmp'><br><font class='baseline'><strong>Devin</strong><p>Choose number of points to send.</font><div class='respPicDiv'><img src='img/responseButtonOffersNo0L3.png' class='respPic'></div></div>","null","","8","Devin","1","Shared","0.8,0.2","11","0.8","trustrating_stim/white_mw035.bmp","2","114","23"
"html-keyboard-response","206","474782","0.0-19.0-3.22","63f77927711e9d061dbec33c","bdp_trlrn","Tue Mar 14 2023 21:32:47 GMT-0400 (Eastern Daylight Time)","752843","Trustworthy,Untrustworthy","","","","feedback","","null","","<div class='trialDiv'><img src='trustrating_stim/white_mw035.bmp'><br><font class='baseline'><strong>Devin</strong><p>Received: <strong>12</strong></font> &nbsp; &nbsp; &nbsp; &nbsp; &nbsp; &nbsp;<font class='posOutcome'>Shared back: <strong>6</strong></font></font><div class='respPicDiv'><img src='img/responseButtonOffersNo0_wht.png' class='respPic'></div></div>","null","","8","Devin","1","Shared","0.8,0.2","11","0.8","trustrating_stim/white_mw035.bmp","2","120","23"
"html-keyboard-response","207","476079","0.0-19.0-1.23","63f77927711e9d061dbec33c","bdp_trlrn","Tue Mar 14 2023 21:32:47 GMT-0400 (Eastern Daylight Time)","752843","Trustworthy,Untrustworthy","","","","decision","","1295","","<div class='trialDiv'><img src='trustrating_stim/white_mw033.bmp'><br><font class='baseline'><strong>Aaron</strong><p>Choose number of points to send.</font><div class='respPicDiv'><img src='img/responseButtonOffersNo0L.png' class='respPic'></div></div>","3","","8","Aaron","8","Shared","0.8,0.35","9","0.8","trustrating_stim/white_mw033.bmp","4.5","125","24"
"html-keyboard-response","208","476336","0.0-19.0-2.23","63f77927711e9d061dbec33c","bdp_trlrn","Tue Mar 14 2023 21:32:47 GMT-0400 (Eastern Daylight Time)","752843","Trustworthy,Untrustworthy","","","","decisionFB","","null","","<div class='trialDiv'><img src='trustrating_stim/white_mw033.bmp'><br><font class='baseline'><strong>Aaron</strong><p>Choose number of points to send.</font><div class='respPicDiv'><img src='img/responseButtonOffersNo0L3.png' class='respPic'></div></div>","null","","8","Aaron","8","Shared","0.8,0.35","9","0.8","trustrating_stim/white_mw033.bmp","4.5","122","24"
"html-keyboard-response","209","477354","0.0-19.0-3.23","63f77927711e9d061dbec33c","bdp_trlrn","Tue Mar 14 2023 21:32:47 GMT-0400 (Eastern Daylight Time)","752843","Trustworthy,Untrustworthy","","","","feedback","","null","","<div class='trialDiv'><img src='trustrating_stim/white_mw033.bmp'><br><font class='baseline'><strong>Aaron</strong><p>Received: <strong>12</strong></font> &nbsp; &nbsp; &nbsp; &nbsp; &nbsp; &nbsp;<font class='posOutcome'>Shared back: <strong>6</strong></font></font><div class='respPicDiv'><img src='img/responseButtonOffersNo0_wht.png' class='respPic'></div></div>","null","","8","Aaron","8","Shared","0.8,0.35","9","0.8","trustrating_stim/white_mw033.bmp","4.5","128","24"
"html-keyboard-response","210","478113","0.0-19.0-1.24","63f77927711e9d061dbec33c","bdp_trlrn","Tue Mar 14 2023 21:32:47 GMT-0400 (Eastern Daylight Time)","752843","Trustworthy,Untrustworthy","","","","decision","","758","","<div class='trialDiv'><img src='trustrating_stim/white_00519_940519_fb_edt.bmp'><br><font class='baseline'><strong>Tyler</strong><p>Choose number of points to send.</font><div class='respPicDiv'><img src='img/responseButtonOffersNo0L.png' class='respPic'></div></div>","1","","9","Tyler","5","Kept","0.35,0.8","14","0.35","trustrating_stim/white_00519_940519_fb_edt.bmp","2.5","133","25"
"html-keyboard-response","211","478375","0.0-19.0-2.24","63f77927711e9d061dbec33c","bdp_trlrn","Tue Mar 14 2023 21:32:47 GMT-0400 (Eastern Daylight Time)","752843","Trustworthy,Untrustworthy","","","","decisionFB","","null","","<div class='trialDiv'><img src='trustrating_stim/white_00519_940519_fb_edt.bmp'><br><font class='baseline'><strong>Tyler</strong><p>Choose number of points to send.</font><div class='respPicDiv'><img src='img/responseButtonOffersNo0L1.png' class='respPic'></div></div>","null","","9","Tyler","5","Kept","0.35,0.8","14","0.35","trustrating_stim/white_00519_940519_fb_edt.bmp","2.5","132","25"
"html-keyboard-response","212","479383","0.0-19.0-3.24","63f77927711e9d061dbec33c","bdp_trlrn","Tue Mar 14 2023 21:32:47 GMT-0400 (Eastern Daylight Time)","752843","Trustworthy,Untrustworthy","","","","feedback","","null","","<div class='trialDiv'><img src='trustrating_stim/white_00519_940519_fb_edt.bmp'><br><font class='baseline'><strong>Tyler</strong><p>Received: <strong>4</strong></font> &nbsp; &nbsp; &nbsp; &nbsp; &nbsp; &nbsp;<font class='negOutcome'>Shared back: <strong>0</strong></font></font><div class='respPicDiv'><img src='img/responseButtonOffersNo0_wht.png' class='respPic'></div></div>","null","","9","Tyler","5","Kept","0.35,0.8","14","0.35","trustrating_stim/white_00519_940519_fb_edt.bmp","2.5","132","25"
"html-keyboard-response","213","480463","0.0-19.0-1.25","63f77927711e9d061dbec33c","bdp_trlrn","Tue Mar 14 2023 21:32:47 GMT-0400 (Eastern Daylight Time)","752843","Trustworthy,Untrustworthy","","","","decision","","1078","","<div class='trialDiv'><img src='trustrating_stim/white_mw035.bmp'><br><font class='baseline'><strong>Devin</strong><p>Choose number of points to send.</font><div class='respPicDiv'><img src='img/responseButtonOffersNo0L.png' class='respPic'></div></div>","4","","9","Devin","1","Shared","0.8,0.2","11","0.8","trustrating_stim/white_mw035.bmp","2","137","26"
"html-keyboard-response","214","480717","0.0-19.0-2.25","63f77927711e9d061dbec33c","bdp_trlrn","Tue Mar 14 2023 21:32:47 GMT-0400 (Eastern Daylight Time)","752843","Trustworthy,Untrustworthy","","","","decisionFB","","null","","<div class='trialDiv'><img src='trustrating_stim/white_mw035.bmp'><br><font class='baseline'><strong>Devin</strong><p>Choose number of points to send.</font><div class='respPicDiv'><img src='img/responseButtonOffersNo0L4.png' class='respPic'></div></div>","null","","9","Devin","1","Shared","0.8,0.2","11","0.8","trustrating_stim/white_mw035.bmp","2","133","26"
"html-keyboard-response","215","481720","0.0-19.0-3.25","63f77927711e9d061dbec33c","bdp_trlrn","Tue Mar 14 2023 21:32:47 GMT-0400 (Eastern Daylight Time)","752843","Trustworthy,Untrustworthy","","","","feedback","","null","","<div class='trialDiv'><img src='trustrating_stim/white_mw035.bmp'><br><font class='baseline'><strong>Devin</strong><p>Received: <strong>16</strong></font> &nbsp; &nbsp; &nbsp; &nbsp; &nbsp; &nbsp;<font class='posOutcome'>Shared back: <strong>8</strong></font></font><div class='respPicDiv'><img src='img/responseButtonOffersNo0_wht.png' class='respPic'></div></div>","null","","9","Devin","1","Shared","0.8,0.2","11","0.8","trustrating_stim/white_mw035.bmp","2","141","26"
"html-keyboard-response","216","483028","0.0-19.0-1.26","63f77927711e9d061dbec33c","bdp_trlrn","Tue Mar 14 2023 21:32:47 GMT-0400 (Eastern Daylight Time)","752843","Trustworthy,Untrustworthy","","","","decision","","1306","","<div class='trialDiv'><img src='trustrating_stim/white_mw033.bmp'><br><font class='baseline'><strong>Aaron</strong><p>Choose number of points to send.</font><div class='respPicDiv'><img src='img/responseButtonOffersNo0L.png' class='respPic'></div></div>","5","","9","Aaron","8","Kept","0.8,0.35","9","0.8","trustrating_stim/white_mw033.bmp","4.5","146","27"
"html-keyboard-response","217","483287","0.0-19.0-2.26","63f77927711e9d061dbec33c","bdp_trlrn","Tue Mar 14 2023 21:32:47 GMT-0400 (Eastern Daylight Time)","752843","Trustworthy,Untrustworthy","","","","decisionFB","","null","","<div class='trialDiv'><img src='trustrating_stim/white_mw033.bmp'><br><font class='baseline'><strong>Aaron</strong><p>Choose number of points to send.</font><div class='respPicDiv'><img src='img/responseButtonOffersNo0L5.png' class='respPic'></div></div>","null","","9","Aaron","8","Kept","0.8,0.35","9","0.8","trustrating_stim/white_mw033.bmp","4.5","141","27"
"html-keyboard-response","218","484296","0.0-19.0-3.26","63f77927711e9d061dbec33c","bdp_trlrn","Tue Mar 14 2023 21:32:47 GMT-0400 (Eastern Daylight Time)","752843","Trustworthy,Untrustworthy","","","","feedback","","null","","<div class='trialDiv'><img src='trustrating_stim/white_mw033.bmp'><br><font class='baseline'><strong>Aaron</strong><p>Received: <strong>20</strong></font> &nbsp; &nbsp; &nbsp; &nbsp; &nbsp; &nbsp;<font class='negOutcome'>Shared back: <strong>0</strong></font></font><div class='respPicDiv'><img src='img/responseButtonOffersNo0_wht.png' class='respPic'></div></div>","null","","9","Aaron","8","Kept","0.8,0.35","9","0.8","trustrating_stim/white_mw033.bmp","4.5","141","27"
"html-keyboard-response","219","485229","0.0-19.0-1.27","63f77927711e9d061dbec33c","bdp_trlrn","Tue Mar 14 2023 21:32:47 GMT-0400 (Eastern Daylight Time)","752843","Trustworthy,Untrustworthy","","","","decision","","931","","<div class='trialDiv'><img src='trustrating_stim/white_mw035.bmp'><br><font class='baseline'><strong>Devin</strong><p>Choose number of points to send.</font><div class='respPicDiv'><img src='img/responseButtonOffersNo0L.png' class='respPic'></div></div>","5","","10","Devin","1","Shared","0.8,0.2","11","0.8","trustrating_stim/white_mw035.bmp","2","146","28"
