"event","trial","time","trialtype","subject_id","task","startTime","totalTime","labels","trial_type","trial_index","time_elapsed","internal_node_id","numBlurs","view_history","rt","success","stimulus","key_press","aground","name","faceID","outcome","agenttype","agentswpt","agentcurrpshare","face","avgRating","point_total","round"
"focus","0","0","focusevent","6320e37620d067c7d322246a","bdp_trlrn","Sat Apr 08 2023 11:16:00 GMT-0400 (Eastern Daylight Time)","724100","Untrustworthy,Trustworthy","","","","","","","","","","","","","","","","","","","","",""
"","","","","6320e37620d067c7d322246a","bdp_trlrn","Sat Apr 08 2023 11:16:00 GMT-0400 (Eastern Daylight Time)","724100","Untrustworthy,Trustworthy","pavlovia","0","1","0.0-0.0","","","","","","","","","","","","","","","","",""
"blur","1","10819","blurevent","6320e37620d067c7d322246a","bdp_trlrn","Sat Apr 08 2023 11:16:00 GMT-0400 (Eastern Daylight Time)","724100","Untrustworthy,Trustworthy","","","","","1","","","","","","","","","","","","","","","",""
"focus","1","13059","focusevent","6320e37620d067c7d322246a","bdp_trlrn","Sat Apr 08 2023 11:16:00 GMT-0400 (Eastern Daylight Time)","724100","Untrustworthy,Trustworthy","","","","","","","","","","","","","","","","","","","","",""
"","","","","6320e37620d067c7d322246a","bdp_trlrn","Sat Apr 08 2023 11:16:00 GMT-0400 (Eastern Daylight Time)","724100","Untrustworthy,Trustworthy","instructions","1","15349","0.0-1.0","","[{""page_index"":0,""viewing_time"":15347}]","15347","","","","","","","","","","","","","",""
"fullscreenexit","2","17236","fullscreenexit","6320e37620d067c7d322246a","bdp_trlrn","Sat Apr 08 2023 11:16:00 GMT-0400 (Eastern Daylight Time)","724100","Untrustworthy,Trustworthy","","","","","","","","","","","","","","","","","","","","",""
"","","","","6320e37620d067c7d322246a","bdp_trlrn","Sat Apr 08 2023 11:16:00 GMT-0400 (Eastern Daylight Time)","724100","Untrustworthy,Trustworthy","fullscreen","2","18229","0.0-2.0","","","","true","","","","","","","","","","","","",""
"","","","fullscreenfail","6320e37620d067c7d322246a","bdp_trlrn","Sat Apr 08 2023 11:16:00 GMT-0400 (Eastern Daylight Time)","724100","Untrustworthy,Trustworthy","image-keyboard-response","3","21015","0.0-3.0-0.0","","","2785","","","32","","","","","","","","","","",""
"","","","","6320e37620d067c7d322246a","bdp_trlrn","Sat Apr 08 2023 11:16:00 GMT-0400 (Eastern Daylight Time)","724100","Untrustworthy,Trustworthy","instructions","4","38431","0.0-4.0","","[{""page_index"":0,""viewing_time"":14924},{""page_index"":1,""viewing_time"":2242}]","17166","","","","","","","","","","","","","",""
"","","","","6320e37620d067c7d322246a","bdp_trlrn","Sat Apr 08 2023 11:16:00 GMT-0400 (Eastern Daylight Time)","724100","Untrustworthy,Trustworthy","instructions","5","39629","0.0-5.0","","[{""page_index"":0,""viewing_time"":1198}]","1198","","","","","","","","","","","","","",""
"","","","rating","6320e37620d067c7d322246a","bdp_trlrn","Sat Apr 08 2023 11:16:00 GMT-0400 (Eastern Daylight Time)","724100","Untrustworthy,Trustworthy","image-keyboard-response","6","44155","0.0-6.0-1.0","","","4425","","trustrating_stim/white_00109_931230_fa_edt.bmp","6","","","","","","","","","","",""
"","","","ratingFB","6320e37620d067c7d322246a","bdp_trlrn","Sat Apr 08 2023 11:16:00 GMT-0400 (Eastern Daylight Time)","724100","Untrustworthy,Trustworthy","image-keyboard-response","7","44356","0.0-6.0-2.0","","","null","","trustrating_stim/white_00109_931230_fa_edt.bmp","null","","","","","","","","","","",""
"","","","rating","6320e37620d067c7d322246a","bdp_trlrn","Sat Apr 08 2023 11:16:00 GMT-0400 (Eastern Daylight Time)","724100","Untrustworthy,Trustworthy","image-keyboard-response","8","46838","0.0-6.0-1.1","","","2381","","trustrating_stim/white_mw066.bmp","3","","","","","","","","","","",""
"","","","ratingFB","6320e37620d067c7d322246a","bdp_trlrn","Sat Apr 08 2023 11:16:00 GMT-0400 (Eastern Daylight Time)","724100","Untrustworthy,Trustworthy","image-keyboard-response","9","47038","0.0-6.0-2.1","","","null","","trustrating_stim/white_mw066.bmp","null","","","","","","","","","","",""
"","","","rating","6320e37620d067c7d322246a","bdp_trlrn","Sat Apr 08 2023 11:16:00 GMT-0400 (Eastern Daylight Time)","724100","Untrustworthy,Trustworthy","image-keyboard-response","10","49781","0.0-6.0-1.2","","","2642","","trustrating_stim/white_mw035.bmp","3","","","","","","","","","","",""
"","","","ratingFB","6320e37620d067c7d322246a","bdp_trlrn","Sat Apr 08 2023 11:16:00 GMT-0400 (Eastern Daylight Time)","724100","Untrustworthy,Trustworthy","image-keyboard-response","11","49981","0.0-6.0-2.2","","","null","","trustrating_stim/white_mw035.bmp","null","","","","","","","","","","",""
"","","","rating","6320e37620d067c7d322246a","bdp_trlrn","Sat Apr 08 2023 11:16:00 GMT-0400 (Eastern Daylight Time)","724100","Untrustworthy,Trustworthy","image-keyboard-response","12","53270","0.0-6.0-1.3","","","3187","","trustrating_stim/white_00223_940128_fb_edt.bmp","2","","","","","","","","","","",""
"","","","ratingFB","6320e37620d067c7d322246a","bdp_trlrn","Sat Apr 08 2023 11:16:00 GMT-0400 (Eastern Daylight Time)","724100","Untrustworthy,Trustworthy","image-keyboard-response","13","53472","0.0-6.0-2.3","","","null","","trustrating_stim/white_00223_940128_fb_edt.bmp","null","","","","","","","","","","",""
"","","","rating","6320e37620d067c7d322246a","bdp_trlrn","Sat Apr 08 2023 11:16:00 GMT-0400 (Eastern Daylight Time)","724100","Untrustworthy,Trustworthy","image-keyboard-response","14","58073","0.0-6.0-1.4","","","4499","","trustrating_stim/white_00785_941205_fb_edt.bmp","2","","","","","","","","","","",""
"","","","ratingFB","6320e37620d067c7d322246a","bdp_trlrn","Sat Apr 08 2023 11:16:00 GMT-0400 (Eastern Daylight Time)","724100","Untrustworthy,Trustworthy","image-keyboard-response","15","58274","0.0-6.0-2.4","","","null","","trustrating_stim/white_00785_941205_fb_edt.bmp","null","","","","","","","","","","",""
"","","","rating","6320e37620d067c7d322246a","bdp_trlrn","Sat Apr 08 2023 11:16:00 GMT-0400 (Eastern Daylight Time)","724100","Untrustworthy,Trustworthy","image-keyboard-response","16","62028","0.0-6.0-1.5","","","3653","","trustrating_stim/white_mw033.bmp","3","","","","","","","","","","",""
"","","","ratingFB","6320e37620d067c7d322246a","bdp_trlrn","Sat Apr 08 2023 11:16:00 GMT-0400 (Eastern Daylight Time)","724100","Untrustworthy,Trustworthy","image-keyboard-response","17","62230","0.0-6.0-2.5","","","null","","trustrating_stim/white_mw033.bmp","null","","","","","","","","","","",""
"","","","rating","6320e37620d067c7d322246a","bdp_trlrn","Sat Apr 08 2023 11:16:00 GMT-0400 (Eastern Daylight Time)","724100","Untrustworthy,Trustworthy","image-keyboard-response","18","66796","0.0-6.0-1.6","","","4464","","trustrating_stim/white_00898_960530_fa_edt.bmp","5","","","","","","","","","","",""
"","","","ratingFB","6320e37620d067c7d322246a","bdp_trlrn","Sat Apr 08 2023 11:16:00 GMT-0400 (Eastern Daylight Time)","724100","Untrustworthy,Trustworthy","image-keyboard-response","19","66997","0.0-6.0-2.6","","","null","","trustrating_stim/white_00898_960530_fa_edt.bmp","null","","","","","","","","","","",""
"","","","rating","6320e37620d067c7d322246a","bdp_trlrn","Sat Apr 08 2023 11:16:00 GMT-0400 (Eastern Daylight Time)","724100","Untrustworthy,Trustworthy","image-keyboard-response","20","69117","0.0-6.0-1.7","","","2019","","trustrating_stim/white_mw048.bmp","4","","","","","","","","","","",""
"","","","ratingFB","6320e37620d067c7d322246a","bdp_trlrn","Sat Apr 08 2023 11:16:00 GMT-0400 (Eastern Daylight Time)","724100","Untrustworthy,Trustworthy","image-keyboard-response","21","69319","0.0-6.0-2.7","","","null","","trustrating_stim/white_mw048.bmp","null","","","","","","","","","","",""
"","","","rating","6320e37620d067c7d322246a","bdp_trlrn","Sat Apr 08 2023 11:16:00 GMT-0400 (Eastern Daylight Time)","724100","Untrustworthy,Trustworthy","image-keyboard-response","22","72030","0.0-6.0-1.8","","","2610","","trustrating_stim/white_00129_931230_fb_edt.bmp","7","","","","","","","","","","",""
"","","","ratingFB","6320e37620d067c7d322246a","bdp_trlrn","Sat Apr 08 2023 11:16:00 GMT-0400 (Eastern Daylight Time)","724100","Untrustworthy,Trustworthy","image-keyboard-response","23","72230","0.0-6.0-2.8","","","null","","trustrating_stim/white_00129_931230_fb_edt.bmp","null","","","","","","","","","","",""
"","","","rating","6320e37620d067c7d322246a","bdp_trlrn","Sat Apr 08 2023 11:16:00 GMT-0400 (Eastern Daylight Time)","724100","Untrustworthy,Trustworthy","image-keyboard-response","24","76321","0.0-6.0-1.9","","","3990","","trustrating_stim/white_00807_941205_fb_edt.bmp","3","","","","","","","","","","",""
"","","","ratingFB","6320e37620d067c7d322246a","bdp_trlrn","Sat Apr 08 2023 11:16:00 GMT-0400 (Eastern Daylight Time)","724100","Untrustworthy,Trustworthy","image-keyboard-response","25","76522","0.0-6.0-2.9","","","null","","trustrating_stim/white_00807_941205_fb_edt.bmp","null","","","","","","","","","","",""
"","","","rating","6320e37620d067c7d322246a","bdp_trlrn","Sat Apr 08 2023 11:16:00 GMT-0400 (Eastern Daylight Time)","724100","Untrustworthy,Trustworthy","image-keyboard-response","26","80433","0.0-6.0-1.10","","","3809","","trustrating_stim/white_mw084.bmp","3","","","","","","","","","","",""
"","","","ratingFB","6320e37620d067c7d322246a","bdp_trlrn","Sat Apr 08 2023 11:16:00 GMT-0400 (Eastern Daylight Time)","724100","Untrustworthy,Trustworthy","image-keyboard-response","27","80634","0.0-6.0-2.10","","","null","","trustrating_stim/white_mw084.bmp","null","","","","","","","","","","",""
"","","","rating","6320e37620d067c7d322246a","bdp_trlrn","Sat Apr 08 2023 11:16:00 GMT-0400 (Eastern Daylight Time)","724100","Untrustworthy,Trustworthy","image-keyboard-response","28","83185","0.0-6.0-1.11","","","2450","","trustrating_stim/white_mw063.bmp","3","","","","","","","","","","",""
"","","","ratingFB","6320e37620d067c7d322246a","bdp_trlrn","Sat Apr 08 2023 11:16:00 GMT-0400 (Eastern Daylight Time)","724100","Untrustworthy,Trustworthy","image-keyboard-response","29","83386","0.0-6.0-2.11","","","null","","trustrating_stim/white_mw063.bmp","null","","","","","","","","","","",""
"","","","rating","6320e37620d067c7d322246a","bdp_trlrn","Sat Apr 08 2023 11:16:00 GMT-0400 (Eastern Daylight Time)","724100","Untrustworthy,Trustworthy","image-keyboard-response","30","86277","0.0-6.0-1.12","","","2791","","trustrating_stim/white_mw099.bmp","3","","","","","","","","","","",""
"","","","ratingFB","6320e37620d067c7d322246a","bdp_trlrn","Sat Apr 08 2023 11:16:00 GMT-0400 (Eastern Daylight Time)","724100","Untrustworthy,Trustworthy","image-keyboard-response","31","86478","0.0-6.0-2.12","","","null","","trustrating_stim/white_mw099.bmp","null","","","","","","","","","","",""
"","","","rating","6320e37620d067c7d322246a","bdp_trlrn","Sat Apr 08 2023 11:16:00 GMT-0400 (Eastern Daylight Time)","724100","Untrustworthy,Trustworthy","image-keyboard-response","32","91360","0.0-6.0-1.13","","","4781","","trustrating_stim/white_mw053.bmp","5","","","","","","","","","","",""
"","","","ratingFB","6320e37620d067c7d322246a","bdp_trlrn","Sat Apr 08 2023 11:16:00 GMT-0400 (Eastern Daylight Time)","724100","Untrustworthy,Trustworthy","image-keyboard-response","33","91562","0.0-6.0-2.13","","","null","","trustrating_stim/white_mw053.bmp","null","","","","","","","","","","",""
"","","","rating","6320e37620d067c7d322246a","bdp_trlrn","Sat Apr 08 2023 11:16:00 GMT-0400 (Eastern Daylight Time)","724100","Untrustworthy,Trustworthy","image-keyboard-response","34","95407","0.0-6.0-1.14","","","3744","","trustrating_stim/white_00757_941201_fa_edt.bmp","3","","","","","","","","","","",""
"","","","ratingFB","6320e37620d067c7d322246a","bdp_trlrn","Sat Apr 08 2023 11:16:00 GMT-0400 (Eastern Daylight Time)","724100","Untrustworthy,Trustworthy","image-keyboard-response","35","95609","0.0-6.0-2.14","","","null","","trustrating_stim/white_00757_941201_fa_edt.bmp","null","","","","","","","","","","",""
"","","","rating","6320e37620d067c7d322246a","bdp_trlrn","Sat Apr 08 2023 11:16:00 GMT-0400 (Eastern Daylight Time)","724100","Untrustworthy,Trustworthy","image-keyboard-response","36","99493","0.0-6.0-1.15","","","3783","","trustrating_stim/white_00577_940928_fa_edt.bmp","4","","","","","","","","","","",""
"","","","ratingFB","6320e37620d067c7d322246a","bdp_trlrn","Sat Apr 08 2023 11:16:00 GMT-0400 (Eastern Daylight Time)","724100","Untrustworthy,Trustworthy","image-keyboard-response","37","99694","0.0-6.0-2.15","","","null","","trustrating_stim/white_00577_940928_fa_edt.bmp","null","","","","","","","","","","",""
"","","","rating","6320e37620d067c7d322246a","bdp_trlrn","Sat Apr 08 2023 11:16:00 GMT-0400 (Eastern Daylight Time)","724100","Untrustworthy,Trustworthy","image-keyboard-response","38","102841","0.0-6.0-1.16","","","3046","","trustrating_stim/white_00659_941121_fa_edt.bmp","7","","","","","","","","","","",""
"","","","ratingFB","6320e37620d067c7d322246a","bdp_trlrn","Sat Apr 08 2023 11:16:00 GMT-0400 (Eastern Daylight Time)","724100","Untrustworthy,Trustworthy","image-keyboard-response","39","103042","0.0-6.0-2.16","","","null","","trustrating_stim/white_00659_941121_fa_edt.bmp","null","","","","","","","","","","",""
"","","","rating","6320e37620d067c7d322246a","bdp_trlrn","Sat Apr 08 2023 11:16:00 GMT-0400 (Eastern Daylight Time)","724100","Untrustworthy,Trustworthy","image-keyboard-response","40","106677","0.0-6.0-1.17","","","3533","","trustrating_stim/white_mw071.bmp","7","","","","","","","","","","",""
"","","","ratingFB","6320e37620d067c7d322246a","bdp_trlrn","Sat Apr 08 2023 11:16:00 GMT-0400 (Eastern Daylight Time)","724100","Untrustworthy,Trustworthy","image-keyboard-response","41","106878","0.0-6.0-2.17","","","null","","trustrating_stim/white_mw071.bmp","null","","","","","","","","","","",""
"","","","rating","6320e37620d067c7d322246a","bdp_trlrn","Sat Apr 08 2023 11:16:00 GMT-0400 (Eastern Daylight Time)","724100","Untrustworthy,Trustworthy","image-keyboard-response","42","110814","0.0-6.0-1.18","","","3833","","trustrating_stim/white_00120_931230_fa_edt.bmp","6","","","","","","","","","","",""
"","","","ratingFB","6320e37620d067c7d322246a","bdp_trlrn","Sat Apr 08 2023 11:16:00 GMT-0400 (Eastern Daylight Time)","724100","Untrustworthy,Trustworthy","image-keyboard-response","43","111014","0.0-6.0-2.18","","","null","","trustrating_stim/white_00120_931230_fa_edt.bmp","null","","","","","","","","","","",""
"","","","rating","6320e37620d067c7d322246a","bdp_trlrn","Sat Apr 08 2023 11:16:00 GMT-0400 (Eastern Daylight Time)","724100","Untrustworthy,Trustworthy","image-keyboard-response","44","113541","0.0-6.0-1.19","","","2427","","trustrating_stim/white_mw056.bmp","3","","","","","","","","","","",""
"","","","ratingFB","6320e37620d067c7d322246a","bdp_trlrn","Sat Apr 08 2023 11:16:00 GMT-0400 (Eastern Daylight Time)","724100","Untrustworthy,Trustworthy","image-keyboard-response","45","113741","0.0-6.0-2.19","","","null","","trustrating_stim/white_mw056.bmp","null","","","","","","","","","","",""
"","","","rating","6320e37620d067c7d322246a","bdp_trlrn","Sat Apr 08 2023 11:16:00 GMT-0400 (Eastern Daylight Time)","724100","Untrustworthy,Trustworthy","image-keyboard-response","46","118062","0.0-6.0-1.20","","","4220","","trustrating_stim/white_00299_940422_fa_edt.bmp","4","","","","","","","","","","",""
"","","","ratingFB","6320e37620d067c7d322246a","bdp_trlrn","Sat Apr 08 2023 11:16:00 GMT-0400 (Eastern Daylight Time)","724100","Untrustworthy,Trustworthy","image-keyboard-response","47","118263","0.0-6.0-2.20","","","null","","trustrating_stim/white_00299_940422_fa_edt.bmp","null","","","","","","","","","","",""
"","","","rating","6320e37620d067c7d322246a","bdp_trlrn","Sat Apr 08 2023 11:16:00 GMT-0400 (Eastern Daylight Time)","724100","Untrustworthy,Trustworthy","image-keyboard-response","48","122108","0.0-6.0-1.21","","","3744","","trustrating_stim/white_mw049.bmp","3","","","","","","","","","","",""
"","","","ratingFB","6320e37620d067c7d322246a","bdp_trlrn","Sat Apr 08 2023 11:16:00 GMT-0400 (Eastern Daylight Time)","724100","Untrustworthy,Trustworthy","image-keyboard-response","49","122308","0.0-6.0-2.21","","","null","","trustrating_stim/white_mw049.bmp","null","","","","","","","","","","",""
"","","","rating","6320e37620d067c7d322246a","bdp_trlrn","Sat Apr 08 2023 11:16:00 GMT-0400 (Eastern Daylight Time)","724100","Untrustworthy,Trustworthy","image-keyboard-response","50","125768","0.0-6.0-1.22","","","3359","","trustrating_stim/white_00761_941201_fb_edt.bmp","1","","","","","","","","","","",""
"","","","ratingFB","6320e37620d067c7d322246a","bdp_trlrn","Sat Apr 08 2023 11:16:00 GMT-0400 (Eastern Daylight Time)","724100","Untrustworthy,Trustworthy","image-keyboard-response","51","125968","0.0-6.0-2.22","","","null","","trustrating_stim/white_00761_941201_fb_edt.bmp","null","","","","","","","","","","",""
"","","","rating","6320e37620d067c7d322246a","bdp_trlrn","Sat Apr 08 2023 11:16:00 GMT-0400 (Eastern Daylight Time)","724100","Untrustworthy,Trustworthy","image-keyboard-response","52","131598","0.0-6.0-1.23","","","5529","","trustrating_stim/white_00340_940422_fa_edt.bmp","5","","","","","","","","","","",""
"","","","ratingFB","6320e37620d067c7d322246a","bdp_trlrn","Sat Apr 08 2023 11:16:00 GMT-0400 (Eastern Daylight Time)","724100","Untrustworthy,Trustworthy","image-keyboard-response","53","131800","0.0-6.0-2.23","","","null","","trustrating_stim/white_00340_940422_fa_edt.bmp","null","","","","","","","","","","",""
"","","","rating","6320e37620d067c7d322246a","bdp_trlrn","Sat Apr 08 2023 11:16:00 GMT-0400 (Eastern Daylight Time)","724100","Untrustworthy,Trustworthy","image-keyboard-response","54","135433","0.0-6.0-1.24","","","3532","","trustrating_stim/white_mw089.bmp","3","","","","","","","","","","",""
"","","","ratingFB","6320e37620d067c7d322246a","bdp_trlrn","Sat Apr 08 2023 11:16:00 GMT-0400 (Eastern Daylight Time)","724100","Untrustworthy,Trustworthy","image-keyboard-response","55","135634","0.0-6.0-2.24","","","null","","trustrating_stim/white_mw089.bmp","null","","","","","","","","","","",""
"","","","rating","6320e37620d067c7d322246a","bdp_trlrn","Sat Apr 08 2023 11:16:00 GMT-0400 (Eastern Daylight Time)","724100","Untrustworthy,Trustworthy","image-keyboard-response","56","138597","0.0-6.0-1.25","","","2861","","trustrating_stim/white_mw046.bmp","2","","","","","","","","","","",""
"","","","ratingFB","6320e37620d067c7d322246a","bdp_trlrn","Sat Apr 08 2023 11:16:00 GMT-0400 (Eastern Daylight Time)","724100","Untrustworthy,Trustworthy","image-keyboard-response","57","138798","0.0-6.0-2.25","","","null","","trustrating_stim/white_mw046.bmp","null","","","","","","","","","","",""
"","","","rating","6320e37620d067c7d322246a","bdp_trlrn","Sat Apr 08 2023 11:16:00 GMT-0400 (Eastern Daylight Time)","724100","Untrustworthy,Trustworthy","image-keyboard-response","58","143430","0.0-6.0-1.26","","","4531","","trustrating_stim/white_mw060.bmp","2","","","","","","","","","","",""
"","","","ratingFB","6320e37620d067c7d322246a","bdp_trlrn","Sat Apr 08 2023 11:16:00 GMT-0400 (Eastern Daylight Time)","724100","Untrustworthy,Trustworthy","image-keyboard-response","59","143631","0.0-6.0-2.26","","","null","","trustrating_stim/white_mw060.bmp","null","","","","","","","","","","",""
"","","","rating","6320e37620d067c7d322246a","bdp_trlrn","Sat Apr 08 2023 11:16:00 GMT-0400 (Eastern Daylight Time)","724100","Untrustworthy,Trustworthy","image-keyboard-response","60","148067","0.0-6.0-1.27","","","4335","","trustrating_stim/white_00602_940928_fb_edt.bmp","4","","","","","","","","","","",""
"","","","ratingFB","6320e37620d067c7d322246a","bdp_trlrn","Sat Apr 08 2023 11:16:00 GMT-0400 (Eastern Daylight Time)","724100","Untrustworthy,Trustworthy","image-keyboard-response","61","148267","0.0-6.0-2.27","","","null","","trustrating_stim/white_00602_940928_fb_edt.bmp","null","","","","","","","","","","",""
"","","","rating","6320e37620d067c7d322246a","bdp_trlrn","Sat Apr 08 2023 11:16:00 GMT-0400 (Eastern Daylight Time)","724100","Untrustworthy,Trustworthy","image-keyboard-response","62","151972","0.0-6.0-1.28","","","3604","","trustrating_stim/white_mw097.bmp","3","","","","","","","","","","",""
"","","","ratingFB","6320e37620d067c7d322246a","bdp_trlrn","Sat Apr 08 2023 11:16:00 GMT-0400 (Eastern Daylight Time)","724100","Untrustworthy,Trustworthy","image-keyboard-response","63","152173","0.0-6.0-2.28","","","null","","trustrating_stim/white_mw097.bmp","null","","","","","","","","","","",""
"","","","rating","6320e37620d067c7d322246a","bdp_trlrn","Sat Apr 08 2023 11:16:00 GMT-0400 (Eastern Daylight Time)","724100","Untrustworthy,Trustworthy","image-keyboard-response","64","157066","0.0-6.0-1.29","","","4792","","trustrating_stim/white_00519_940519_fb_edt.bmp","6","","","","","","","","","","",""
"","","","ratingFB","6320e37620d067c7d322246a","bdp_trlrn","Sat Apr 08 2023 11:16:00 GMT-0400 (Eastern Daylight Time)","724100","Untrustworthy,Trustworthy","image-keyboard-response","65","157266","0.0-6.0-2.29","","","null","","trustrating_stim/white_00519_940519_fb_edt.bmp","null","","","","","","","","","","",""
"","","","rating","6320e37620d067c7d322246a","bdp_trlrn","Sat Apr 08 2023 11:16:00 GMT-0400 (Eastern Daylight Time)","724100","Untrustworthy,Trustworthy","image-keyboard-response","66","159292","0.0-6.0-1.30","","","1924","","trustrating_stim/white_mw066.bmp","3","","","","","","","","","","",""
"","","","ratingFB","6320e37620d067c7d322246a","bdp_trlrn","Sat Apr 08 2023 11:16:00 GMT-0400 (Eastern Daylight Time)","724100","Untrustworthy,Trustworthy","image-keyboard-response","67","159493","0.0-6.0-2.30","","","null","","trustrating_stim/white_mw066.bmp","null","","","","","","","","","","",""
"","","","rating","6320e37620d067c7d322246a","bdp_trlrn","Sat Apr 08 2023 11:16:00 GMT-0400 (Eastern Daylight Time)","724100","Untrustworthy,Trustworthy","image-keyboard-response","68","162711","0.0-6.0-1.31","","","3118","","trustrating_stim/white_mw071.bmp","3","","","","","","","","","","",""
"","","","ratingFB","6320e37620d067c7d322246a","bdp_trlrn","Sat Apr 08 2023 11:16:00 GMT-0400 (Eastern Daylight Time)","724100","Untrustworthy,Trustworthy","image-keyboard-response","69","162912","0.0-6.0-2.31","","","null","","trustrating_stim/white_mw071.bmp","null","","","","","","","","","","",""
"","","","rating","6320e37620d067c7d322246a","bdp_trlrn","Sat Apr 08 2023 11:16:00 GMT-0400 (Eastern Daylight Time)","724100","Untrustworthy,Trustworthy","image-keyboard-response","70","167945","0.0-6.0-1.32","","","4932","","trustrating_stim/white_mw056.bmp","2","","","","","","","","","","",""
"","","","ratingFB","6320e37620d067c7d322246a","bdp_trlrn","Sat Apr 08 2023 11:16:00 GMT-0400 (Eastern Daylight Time)","724100","Untrustworthy,Trustworthy","image-keyboard-response","71","168146","0.0-6.0-2.32","","","null","","trustrating_stim/white_mw056.bmp","null","","","","","","","","","","",""
"","","","rating","6320e37620d067c7d322246a","bdp_trlrn","Sat Apr 08 2023 11:16:00 GMT-0400 (Eastern Daylight Time)","724100","Untrustworthy,Trustworthy","image-keyboard-response","72","174021","0.0-6.0-1.33","","","5774","","trustrating_stim/white_00577_940928_fa_edt.bmp","4","","","","","","","","","","",""
"","","","ratingFB","6320e37620d067c7d322246a","bdp_trlrn","Sat Apr 08 2023 11:16:00 GMT-0400 (Eastern Daylight Time)","724100","Untrustworthy,Trustworthy","image-keyboard-response","73","174222","0.0-6.0-2.33","","","null","","trustrating_stim/white_00577_940928_fa_edt.bmp","null","","","","","","","","","","",""
"","","","rating","6320e37620d067c7d322246a","bdp_trlrn","Sat Apr 08 2023 11:16:00 GMT-0400 (Eastern Daylight Time)","724100","Untrustworthy,Trustworthy","image-keyboard-response","74","176663","0.0-6.0-1.34","","","2340","","trustrating_stim/white_mw097.bmp","3","","","","","","","","","","",""
"","","","ratingFB","6320e37620d067c7d322246a","bdp_trlrn","Sat Apr 08 2023 11:16:00 GMT-0400 (Eastern Daylight Time)","724100","Untrustworthy,Trustworthy","image-keyboard-response","75","176863","0.0-6.0-2.34","","","null","","trustrating_stim/white_mw097.bmp","null","","","","","","","","","","",""
"","","","rating","6320e37620d067c7d322246a","bdp_trlrn","Sat Apr 08 2023 11:16:00 GMT-0400 (Eastern Daylight Time)","724100","Untrustworthy,Trustworthy","image-keyboard-response","76","179200","0.0-6.0-1.35","","","2236","","trustrating_stim/white_00519_940519_fb_edt.bmp","6","","","","","","","","","","",""
"","","","ratingFB","6320e37620d067c7d322246a","bdp_trlrn","Sat Apr 08 2023 11:16:00 GMT-0400 (Eastern Daylight Time)","724100","Untrustworthy,Trustworthy","image-keyboard-response","77","179401","0.0-6.0-2.35","","","null","","trustrating_stim/white_00519_940519_fb_edt.bmp","null","","","","","","","","","","",""
"","","","rating","6320e37620d067c7d322246a","bdp_trlrn","Sat Apr 08 2023 11:16:00 GMT-0400 (Eastern Daylight Time)","724100","Untrustworthy,Trustworthy","image-keyboard-response","78","184375","0.0-6.0-1.36","","","4873","","trustrating_stim/white_mw046.bmp","6","","","","","","","","","","",""
"","","","ratingFB","6320e37620d067c7d322246a","bdp_trlrn","Sat Apr 08 2023 11:16:00 GMT-0400 (Eastern Daylight Time)","724100","Untrustworthy,Trustworthy","image-keyboard-response","79","184575","0.0-6.0-2.36","","","null","","trustrating_stim/white_mw046.bmp","null","","","","","","","","","","",""
"","","","rating","6320e37620d067c7d322246a","bdp_trlrn","Sat Apr 08 2023 11:16:00 GMT-0400 (Eastern Daylight Time)","724100","Untrustworthy,Trustworthy","image-keyboard-response","80","188370","0.0-6.0-1.37","","","3694","","trustrating_stim/white_00807_941205_fb_edt.bmp","5","","","","","","","","","","",""
"","","","ratingFB","6320e37620d067c7d322246a","bdp_trlrn","Sat Apr 08 2023 11:16:00 GMT-0400 (Eastern Daylight Time)","724100","Untrustworthy,Trustworthy","image-keyboard-response","81","188570","0.0-6.0-2.37","","","null","","trustrating_stim/white_00807_941205_fb_edt.bmp","null","","","","","","","","","","",""
"","","","rating","6320e37620d067c7d322246a","bdp_trlrn","Sat Apr 08 2023 11:16:00 GMT-0400 (Eastern Daylight Time)","724100","Untrustworthy,Trustworthy","image-keyboard-response","82","191122","0.0-6.0-1.38","","","2450","","trustrating_stim/white_00761_941201_fb_edt.bmp","2","","","","","","","","","","",""
"","","","ratingFB","6320e37620d067c7d322246a","bdp_trlrn","Sat Apr 08 2023 11:16:00 GMT-0400 (Eastern Daylight Time)","724100","Untrustworthy,Trustworthy","image-keyboard-response","83","191323","0.0-6.0-2.38","","","null","","trustrating_stim/white_00761_941201_fb_edt.bmp","null","","","","","","","","","","",""
"","","","rating","6320e37620d067c7d322246a","bdp_trlrn","Sat Apr 08 2023 11:16:00 GMT-0400 (Eastern Daylight Time)","724100","Untrustworthy,Trustworthy","image-keyboard-response","84","196556","0.0-6.0-1.39","","","5133","","trustrating_stim/white_00120_931230_fa_edt.bmp","7","","","","","","","","","","",""
"","","","ratingFB","6320e37620d067c7d322246a","bdp_trlrn","Sat Apr 08 2023 11:16:00 GMT-0400 (Eastern Daylight Time)","724100","Untrustworthy,Trustworthy","image-keyboard-response","85","196758","0.0-6.0-2.39","","","null","","trustrating_stim/white_00120_931230_fa_edt.bmp","null","","","","","","","","","","",""
"","","","rating","6320e37620d067c7d322246a","bdp_trlrn","Sat Apr 08 2023 11:16:00 GMT-0400 (Eastern Daylight Time)","724100","Untrustworthy,Trustworthy","image-keyboard-response","86","199690","0.0-6.0-1.40","","","2832","","trustrating_stim/white_mw033.bmp","3","","","","","","","","","","",""
"","","","ratingFB","6320e37620d067c7d322246a","bdp_trlrn","Sat Apr 08 2023 11:16:00 GMT-0400 (Eastern Daylight Time)","724100","Untrustworthy,Trustworthy","image-keyboard-response","87","199890","0.0-6.0-2.40","","","null","","trustrating_stim/white_mw033.bmp","null","","","","","","","","","","",""
"","","","rating","6320e37620d067c7d322246a","bdp_trlrn","Sat Apr 08 2023 11:16:00 GMT-0400 (Eastern Daylight Time)","724100","Untrustworthy,Trustworthy","image-keyboard-response","88","204984","0.0-6.0-1.41","","","4991","","trustrating_stim/white_00785_941205_fb_edt.bmp","3","","","","","","","","","","",""
"","","","ratingFB","6320e37620d067c7d322246a","bdp_trlrn","Sat Apr 08 2023 11:16:00 GMT-0400 (Eastern Daylight Time)","724100","Untrustworthy,Trustworthy","image-keyboard-response","89","205184","0.0-6.0-2.41","","","null","","trustrating_stim/white_00785_941205_fb_edt.bmp","null","","","","","","","","","","",""
"","","","rating","6320e37620d067c7d322246a","bdp_trlrn","Sat Apr 08 2023 11:16:00 GMT-0400 (Eastern Daylight Time)","724100","Untrustworthy,Trustworthy","image-keyboard-response","90","208659","0.0-6.0-1.42","","","3373","","trustrating_stim/white_mw035.bmp","3","","","","","","","","","","",""
"","","","ratingFB","6320e37620d067c7d322246a","bdp_trlrn","Sat Apr 08 2023 11:16:00 GMT-0400 (Eastern Daylight Time)","724100","Untrustworthy,Trustworthy","image-keyboard-response","91","208859","0.0-6.0-2.42","","","null","","trustrating_stim/white_mw035.bmp","null","","","","","","","","","","",""
"","","","rating","6320e37620d067c7d322246a","bdp_trlrn","Sat Apr 08 2023 11:16:00 GMT-0400 (Eastern Daylight Time)","724100","Untrustworthy,Trustworthy","image-keyboard-response","92","211350","0.0-6.0-1.43","","","2389","","trustrating_stim/white_00659_941121_fa_edt.bmp","7","","","","","","","","","","",""
"","","","ratingFB","6320e37620d067c7d322246a","bdp_trlrn","Sat Apr 08 2023 11:16:00 GMT-0400 (Eastern Daylight Time)","724100","Untrustworthy,Trustworthy","image-keyboard-response","93","211552","0.0-6.0-2.43","","","null","","trustrating_stim/white_00659_941121_fa_edt.bmp","null","","","","","","","","","","",""
"","","","rating","6320e37620d067c7d322246a","bdp_trlrn","Sat Apr 08 2023 11:16:00 GMT-0400 (Eastern Daylight Time)","724100","Untrustworthy,Trustworthy","image-keyboard-response","94","213370","0.0-6.0-1.44","","","1717","","trustrating_stim/white_00757_941201_fa_edt.bmp","2","","","","","","","","","","",""
"","","","ratingFB","6320e37620d067c7d322246a","bdp_trlrn","Sat Apr 08 2023 11:16:00 GMT-0400 (Eastern Daylight Time)","724100","Untrustworthy,Trustworthy","image-keyboard-response","95","213572","0.0-6.0-2.44","","","null","","trustrating_stim/white_00757_941201_fa_edt.bmp","null","","","","","","","","","","",""
"","","","rating","6320e37620d067c7d322246a","bdp_trlrn","Sat Apr 08 2023 11:16:00 GMT-0400 (Eastern Daylight Time)","724100","Untrustworthy,Trustworthy","image-keyboard-response","96","215793","0.0-6.0-1.45","","","2120","","trustrating_stim/white_mw060.bmp","2","","","","","","","","","","",""
"","","","ratingFB","6320e37620d067c7d322246a","bdp_trlrn","Sat Apr 08 2023 11:16:00 GMT-0400 (Eastern Daylight Time)","724100","Untrustworthy,Trustworthy","image-keyboard-response","97","215993","0.0-6.0-2.45","","","null","","trustrating_stim/white_mw060.bmp","null","","","","","","","","","","",""
"","","","rating","6320e37620d067c7d322246a","bdp_trlrn","Sat Apr 08 2023 11:16:00 GMT-0400 (Eastern Daylight Time)","724100","Untrustworthy,Trustworthy","image-keyboard-response","98","218209","0.0-6.0-1.46","","","2115","","trustrating_stim/white_00109_931230_fa_edt.bmp","6","","","","","","","","","","",""
"","","","ratingFB","6320e37620d067c7d322246a","bdp_trlrn","Sat Apr 08 2023 11:16:00 GMT-0400 (Eastern Daylight Time)","724100","Untrustworthy,Trustworthy","image-keyboard-response","99","218409","0.0-6.0-2.46","","","null","","trustrating_stim/white_00109_931230_fa_edt.bmp","null","","","","","","","","","","",""
"","","","rating","6320e37620d067c7d322246a","bdp_trlrn","Sat Apr 08 2023 11:16:00 GMT-0400 (Eastern Daylight Time)","724100","Untrustworthy,Trustworthy","image-keyboard-response","100","223166","0.0-6.0-1.47","","","4655","","trustrating_stim/white_00340_940422_fa_edt.bmp","2","","","","","","","","","","",""
"","","","ratingFB","6320e37620d067c7d322246a","bdp_trlrn","Sat Apr 08 2023 11:16:00 GMT-0400 (Eastern Daylight Time)","724100","Untrustworthy,Trustworthy","image-keyboard-response","101","223368","0.0-6.0-2.47","","","null","","trustrating_stim/white_00340_940422_fa_edt.bmp","null","","","","","","","","","","",""
"","","","rating","6320e37620d067c7d322246a","bdp_trlrn","Sat Apr 08 2023 11:16:00 GMT-0400 (Eastern Daylight Time)","724100","Untrustworthy,Trustworthy","image-keyboard-response","102","226340","0.0-6.0-1.48","","","2871","","trustrating_stim/white_mw063.bmp","3","","","","","","","","","","",""
"","","","ratingFB","6320e37620d067c7d322246a","bdp_trlrn","Sat Apr 08 2023 11:16:00 GMT-0400 (Eastern Daylight Time)","724100","Untrustworthy,Trustworthy","image-keyboard-response","103","226541","0.0-6.0-2.48","","","null","","trustrating_stim/white_mw063.bmp","null","","","","","","","","","","",""
"","","","rating","6320e37620d067c7d322246a","bdp_trlrn","Sat Apr 08 2023 11:16:00 GMT-0400 (Eastern Daylight Time)","724100","Untrustworthy,Trustworthy","image-keyboard-response","104","229860","0.0-6.0-1.49","","","3218","","trustrating_stim/white_mw084.bmp","2","","","","","","","","","","",""
"","","","ratingFB","6320e37620d067c7d322246a","bdp_trlrn","Sat Apr 08 2023 11:16:00 GMT-0400 (Eastern Daylight Time)","724100","Untrustworthy,Trustworthy","image-keyboard-response","105","230060","0.0-6.0-2.49","","","null","","trustrating_stim/white_mw084.bmp","null","","","","","","","","","","",""
"","","","rating","6320e37620d067c7d322246a","bdp_trlrn","Sat Apr 08 2023 11:16:00 GMT-0400 (Eastern Daylight Time)","724100","Untrustworthy,Trustworthy","image-keyboard-response","106","232401","0.0-6.0-1.50","","","2240","","trustrating_stim/white_00223_940128_fb_edt.bmp","2","","","","","","","","","","",""
"","","","ratingFB","6320e37620d067c7d322246a","bdp_trlrn","Sat Apr 08 2023 11:16:00 GMT-0400 (Eastern Daylight Time)","724100","Untrustworthy,Trustworthy","image-keyboard-response","107","232603","0.0-6.0-2.50","","","null","","trustrating_stim/white_00223_940128_fb_edt.bmp","null","","","","","","","","","","",""
"","","","rating","6320e37620d067c7d322246a","bdp_trlrn","Sat Apr 08 2023 11:16:00 GMT-0400 (Eastern Daylight Time)","724100","Untrustworthy,Trustworthy","image-keyboard-response","108","236211","0.0-6.0-1.51","","","3508","","trustrating_stim/white_00898_960530_fa_edt.bmp","6","","","","","","","","","","",""
"","","","ratingFB","6320e37620d067c7d322246a","bdp_trlrn","Sat Apr 08 2023 11:16:00 GMT-0400 (Eastern Daylight Time)","724100","Untrustworthy,Trustworthy","image-keyboard-response","109","236412","0.0-6.0-2.51","","","null","","trustrating_stim/white_00898_960530_fa_edt.bmp","null","","","","","","","","","","",""
"","","","rating","6320e37620d067c7d322246a","bdp_trlrn","Sat Apr 08 2023 11:16:00 GMT-0400 (Eastern Daylight Time)","724100","Untrustworthy,Trustworthy","image-keyboard-response","110","241777","0.0-6.0-1.52","","","5264","","trustrating_stim/white_mw049.bmp","5","","","","","","","","","","",""
"","","","ratingFB","6320e37620d067c7d322246a","bdp_trlrn","Sat Apr 08 2023 11:16:00 GMT-0400 (Eastern Daylight Time)","724100","Untrustworthy,Trustworthy","image-keyboard-response","111","241977","0.0-6.0-2.52","","","null","","trustrating_stim/white_mw049.bmp","null","","","","","","","","","","",""
"","","","rating","6320e37620d067c7d322246a","bdp_trlrn","Sat Apr 08 2023 11:16:00 GMT-0400 (Eastern Daylight Time)","724100","Untrustworthy,Trustworthy","image-keyboard-response","112","243596","0.0-6.0-1.53","","","1516","","trustrating_stim/white_00299_940422_fa_edt.bmp","3","","","","","","","","","","",""
"","","","ratingFB","6320e37620d067c7d322246a","bdp_trlrn","Sat Apr 08 2023 11:16:00 GMT-0400 (Eastern Daylight Time)","724100","Untrustworthy,Trustworthy","image-keyboard-response","113","243796","0.0-6.0-2.53","","","null","","trustrating_stim/white_00299_940422_fa_edt.bmp","null","","","","","","","","","","",""
"","","","rating","6320e37620d067c7d322246a","bdp_trlrn","Sat Apr 08 2023 11:16:00 GMT-0400 (Eastern Daylight Time)","724100","Untrustworthy,Trustworthy","image-keyboard-response","114","245511","0.0-6.0-1.54","","","1613","","trustrating_stim/white_00602_940928_fb_edt.bmp","3","","","","","","","","","","",""
"","","","ratingFB","6320e37620d067c7d322246a","bdp_trlrn","Sat Apr 08 2023 11:16:00 GMT-0400 (Eastern Daylight Time)","724100","Untrustworthy,Trustworthy","image-keyboard-response","115","245712","0.0-6.0-2.54","","","null","","trustrating_stim/white_00602_940928_fb_edt.bmp","null","","","","","","","","","","",""
"","","","rating","6320e37620d067c7d322246a","bdp_trlrn","Sat Apr 08 2023 11:16:00 GMT-0400 (Eastern Daylight Time)","724100","Untrustworthy,Trustworthy","image-keyboard-response","116","250260","0.0-6.0-1.55","","","4446","","trustrating_stim/white_mw099.bmp","4","","","","","","","","","","",""
"","","","ratingFB","6320e37620d067c7d322246a","bdp_trlrn","Sat Apr 08 2023 11:16:00 GMT-0400 (Eastern Daylight Time)","724100","Untrustworthy,Trustworthy","image-keyboard-response","117","250460","0.0-6.0-2.55","","","null","","trustrating_stim/white_mw099.bmp","null","","","","","","","","","","",""
"","","","rating","6320e37620d067c7d322246a","bdp_trlrn","Sat Apr 08 2023 11:16:00 GMT-0400 (Eastern Daylight Time)","724100","Untrustworthy,Trustworthy","image-keyboard-response","118","251943","0.0-6.0-1.56","","","1382","","trustrating_stim/white_mw089.bmp","2","","","","","","","","","","",""
"","","","ratingFB","6320e37620d067c7d322246a","bdp_trlrn","Sat Apr 08 2023 11:16:00 GMT-0400 (Eastern Daylight Time)","724100","Untrustworthy,Trustworthy","image-keyboard-response","119","252144","0.0-6.0-2.56","","","null","","trustrating_stim/white_mw089.bmp","null","","","","","","","","","","",""
"","","","rating","6320e37620d067c7d322246a","bdp_trlrn","Sat Apr 08 2023 11:16:00 GMT-0400 (Eastern Daylight Time)","724100","Untrustworthy,Trustworthy","image-keyboard-response","120","254696","0.0-6.0-1.57","","","2451","","trustrating_stim/white_mw053.bmp","4","","","","","","","","","","",""
"","","","ratingFB","6320e37620d067c7d322246a","bdp_trlrn","Sat Apr 08 2023 11:16:00 GMT-0400 (Eastern Daylight Time)","724100","Untrustworthy,Trustworthy","image-keyboard-response","121","254896","0.0-6.0-2.57","","","null","","trustrating_stim/white_mw053.bmp","null","","","","","","","","","","",""
"","","","rating","6320e37620d067c7d322246a","bdp_trlrn","Sat Apr 08 2023 11:16:00 GMT-0400 (Eastern Daylight Time)","724100","Untrustworthy,Trustworthy","image-keyboard-response","122","258250","0.0-6.0-1.58","","","3252","","trustrating_stim/white_00129_931230_fb_edt.bmp","7","","","","","","","","","","",""
"","","","ratingFB","6320e37620d067c7d322246a","bdp_trlrn","Sat Apr 08 2023 11:16:00 GMT-0400 (Eastern Daylight Time)","724100","Untrustworthy,Trustworthy","image-keyboard-response","123","258452","0.0-6.0-2.58","","","null","","trustrating_stim/white_00129_931230_fb_edt.bmp","null","","","","","","","","","","",""
"","","","rating","6320e37620d067c7d322246a","bdp_trlrn","Sat Apr 08 2023 11:16:00 GMT-0400 (Eastern Daylight Time)","724100","Untrustworthy,Trustworthy","image-keyboard-response","124","261314","0.0-6.0-1.59","","","2762","","trustrating_stim/white_mw048.bmp","4","","","","","","","","","","",""
"","","","ratingFB","6320e37620d067c7d322246a","bdp_trlrn","Sat Apr 08 2023 11:16:00 GMT-0400 (Eastern Daylight Time)","724100","Untrustworthy,Trustworthy","image-keyboard-response","125","261514","0.0-6.0-2.59","","","null","","trustrating_stim/white_mw048.bmp","null","","","","","","","","","","",""
"","","","","6320e37620d067c7d322246a","bdp_trlrn","Sat Apr 08 2023 11:16:00 GMT-0400 (Eastern Daylight Time)","724100","Untrustworthy,Trustworthy","instructions","126","263739","0.0-7.0","","[{""page_index"":0,""viewing_time"":2124}]","2124","","","","","","","","","","","","","",""
"","","","","6320e37620d067c7d322246a","bdp_trlrn","Sat Apr 08 2023 11:16:00 GMT-0400 (Eastern Daylight Time)","724100","Untrustworthy,Trustworthy","instructions","127","373608","0.0-8.0","","[{""page_index"":0,""viewing_time"":24445},{""page_index"":1,""viewing_time"":18916},{""page_index"":2,""viewing_time"":14302},{""page_index"":3,""viewing_time"":9346},{""page_index"":4,""viewing_time"":3078},{""page_index"":5,""viewing_time"":9140},{""page_index"":6,""viewing_time"":28104},{""page_index"":7,""viewing_time"":2437}]","109768","","","","","","","","","","","","","",""
"","","","","6320e37620d067c7d322246a","bdp_trlrn","Sat Apr 08 2023 11:16:00 GMT-0400 (Eastern Daylight Time)","724100","Untrustworthy,Trustworthy","html-keyboard-response","128","377297","0.0-9.0","","","3689","","<div class='header' style='text-align:left; position: absolute; top: 5%; left: 5%;'><small>Task 3 of 5</small></div><div class='instruxDiv'><p><strong>1) What is the minimum number of points you can choose to send to your partner?</strong></p><p>a) 0</p><p>b) 1</p><p>c) 5</p>","C","","","","","","","","","","",""
"","","","","6320e37620d067c7d322246a","bdp_trlrn","Sat Apr 08 2023 11:16:00 GMT-0400 (Eastern Daylight Time)","724100","Untrustworthy,Trustworthy","html-keyboard-response","129","383168","0.0-10.0","","","5769","","<div class='header' style='text-align:left; position: absolute; top: 5%; left: 5%;'><small>Task 3 of 5</small></div><div class='instruxDiv'><p><strong>1) What is the minimum number of points you can choose to send to your partner?</strong></p><p>a) 1</p><p>b) 1</p><p style='color:#FF0000'>c) 5</p><h3 style='color:#FF0000'>Incorrect!</h3><h3 class='center-content'>The correct response is b).</h3><h3 class='center-content'>The minimum number of points you can choose to send to your partner is 1 point.</h3><p><em>Press SPACEBAR to continue</em></p></div>"," ","","","","","","","","","","",""
"","","","","6320e37620d067c7d322246a","bdp_trlrn","Sat Apr 08 2023 11:16:00 GMT-0400 (Eastern Daylight Time)","724100","Untrustworthy,Trustworthy","html-keyboard-response","130","387288","0.0-11.0","","","4020","","<div class='header' style='text-align:left; position: absolute; top: 5%; left: 5%;'><small>Task 3 of 5</small></div><div class='instruxDiv'><p><strong>2) What is the maximum number of points you can choose to send to your partner?</strong></p><p>a) 8</p><p>b) 5</p><p>c) 3</p>","B","","","","","","","","","","",""
"","","","","6320e37620d067c7d322246a","bdp_trlrn","Sat Apr 08 2023 11:16:00 GMT-0400 (Eastern Daylight Time)","724100","Untrustworthy,Trustworthy","html-keyboard-response","131","388161","0.0-12.0","","","772","","<div class='header' style='text-align:left; position: absolute; top: 5%; left: 5%;'><small>Task 3 of 5</small></div><div class='instruxDiv'><p><strong>2) What is the maximum number of points you can choose to send to your partner?</strong></p><p>a) 8</p><p style='color:#00FF00'>b) 5</p><p>c) 3</p><h3 style='color:#00FF00'>Correct!</h3><h3 class='center-content'>The correct response is b).</h3><h3 class='center-content'>The maximum number of points you can choose to send to your partner is 5 points.</h3><p><em>Press SPACEBAR to continue</em></p></div>"," ","","","","","","","","","","",""
"","","","","6320e37620d067c7d322246a","bdp_trlrn","Sat Apr 08 2023 11:16:00 GMT-0400 (Eastern Daylight Time)","724100","Untrustworthy,Trustworthy","html-keyboard-response","132","392989","0.0-13.0","","","4727","","<div class='header' style='text-align:left; position: absolute; top: 5%; left: 5%;'><small>Task 3 of 5</small></div><div class='instruxDiv'><p><strong>3) What happens to the amount of points you send to your partner?</strong></p><p>a) Nothing</p><p>b) It doubles</p><p>c) It quadruples</p>","C","","","","","","","","","","",""
"","","","","6320e37620d067c7d322246a","bdp_trlrn","Sat Apr 08 2023 11:16:00 GMT-0400 (Eastern Daylight Time)","724100","Untrustworthy,Trustworthy","html-keyboard-response","133","394248","0.0-14.0","","","1157","","<div class='header' style='text-align:left; position: absolute; top: 5%; left: 5%;'><small>Task 3 of 5</small></div><div class='instruxDiv'><p><strong>3) What happens to the amount of points you send to your partner?</strong></p><p>a) Nothing</p><p>b) It doubles</p><p style='color:#00FF00'>c) It quadruples</p><h3 style='color:#00FF00'>Correct!</h3><h3 class='center-content'>The correct response is c).</h3><h3 class='center-content'>The amount of points you send to your partner quadruples.</h3><p><em>Press SPACEBAR to continue</em></p></div>"," ","","","","","","","","","","",""
"","","","","6320e37620d067c7d322246a","bdp_trlrn","Sat Apr 08 2023 11:16:00 GMT-0400 (Eastern Daylight Time)","724100","Untrustworthy,Trustworthy","html-keyboard-response","134","400108","0.0-15.0","","","5760","","<div class='header' style='text-align:left; position: absolute; top: 5%; left: 5%;'><small>Task 3 of 5</small></div><div class='instruxDiv'><p><strong>4) If you decided to share 4 out of 5 points with your partner, and they decided to share half of the amount they received with you, how many points would you receive back from them on this round?</strong></p><p>a) 16</p><p>b) 0</p><p>c) 8</p>","C","","","","","","","","","","",""
"","","","","6320e37620d067c7d322246a","bdp_trlrn","Sat Apr 08 2023 11:16:00 GMT-0400 (Eastern Daylight Time)","724100","Untrustworthy,Trustworthy","html-keyboard-response","135","401251","0.0-16.0","","","1042","","<div class='header' style='text-align:left; position: absolute; top: 5%; left: 5%;'><small>Task 3 of 5</small></div><div class='instruxDiv'><p><strong>4) If you decided to share 4 out of 5 points with your partner, and they decided to share half of the amount they received with you, how many points would you receive back from them on this round?</strong></p><p>a) 16</p><p>b) 0</p><p style='color:#00FF00'>c) 8</p><h3 style='color:#00FF00'>Correct!</h3><h3 class='center-content'>The correct response is c).</h3><h3 class='center-content'>If you shared 4 out of 5 points with your partner and they decided to share half of the amount they received with you, you would receive 8 points back (i.e. (4 x 4)/2 = 8).</h3><p><em>Press SPACEBAR to continue</em></p></div>"," ","","","","","","","","","","",""
"","","","","6320e37620d067c7d322246a","bdp_trlrn","Sat Apr 08 2023 11:16:00 GMT-0400 (Eastern Daylight Time)","724100","Untrustworthy,Trustworthy","html-keyboard-response","136","406352","0.0-17.0","","","null","","<div class='header' style='text-align:left; position: absolute; top: 5%; left: 5%;'><small>Task 3 of 5</small></div><div class='instruxDiv'><p>Thank you for completing the quiz<p>These are the actual partners you will be interacting with in the next block:<p><div class='tc' align='center'><img class='introPic' src='trustrating_stim/white_mw084.bmp'><br><strong>Lucas</strong></div><div class='bl' align='center'><img class='introPic' src='trustrating_stim/white_mw099.bmp'><br><strong>Michael</strong></div><div class='br' align='center'><img class='introPic' src='trustrating_stim/white_00659_941121_fa_edt.bmp'><br><strong>Timothy</strong></div></div><p>Across <strong>66 rounds</strong> you will interact with each partner <strong>22 times</strong> (in random order).<p style='align:center; color:white'><font <em>Press SPACEBAR to continue</em></p>","null","","","","","","","","","","",""
"","","","","6320e37620d067c7d322246a","bdp_trlrn","Sat Apr 08 2023 11:16:00 GMT-0400 (Eastern Daylight Time)","724100","Untrustworthy,Trustworthy","instructions","137","415920","0.0-18.0","","[{""page_index"":0,""viewing_time"":6314},{""page_index"":1,""viewing_time"":3254}]","9568","","","","","","","","","","","","","",""
"","","","decision","6320e37620d067c7d322246a","bdp_trlrn","Sat Apr 08 2023 11:16:00 GMT-0400 (Eastern Daylight Time)","724100","Untrustworthy,Trustworthy","html-keyboard-response","138","418371","0.0-19.0-1.0","","","2350","","<div class='trialDiv'><img src='trustrating_stim/white_00659_941121_fa_edt.bmp'><br><font class='baseline'><strong>Timothy</strong><p>Choose number of points to send.</font><div class='respPicDiv'><img src='img/responseButtonOffersNo0L.png' class='respPic'></div></div>","3","1","Timothy","11","Shared","0.8,0.35","12","0.8","trustrating_stim/white_00659_941121_fa_edt.bmp","7","5","1"
"","","","decisionFB","6320e37620d067c7d322246a","bdp_trlrn","Sat Apr 08 2023 11:16:00 GMT-0400 (Eastern Daylight Time)","724100","Untrustworthy,Trustworthy","html-keyboard-response","139","418622","0.0-19.0-2.0","","","null","","<div class='trialDiv'><img src='trustrating_stim/white_00659_941121_fa_edt.bmp'><br><font class='baseline'><strong>Timothy</strong><p>Choose number of points to send.</font><div class='respPicDiv'><img src='img/responseButtonOffersNo0L3.png' class='respPic'></div></div>","null","1","Timothy","11","Shared","0.8,0.35","12","0.8","trustrating_stim/white_00659_941121_fa_edt.bmp","7","2","1"
"","","","feedback","6320e37620d067c7d322246a","bdp_trlrn","Sat Apr 08 2023 11:16:00 GMT-0400 (Eastern Daylight Time)","724100","Untrustworthy,Trustworthy","html-keyboard-response","140","419624","0.0-19.0-3.0","","","null","","<div class='trialDiv'><img src='trustrating_stim/white_00659_941121_fa_edt.bmp'><br><font class='baseline'><strong>Timothy</strong><p>Received: <strong>12</strong></font> &nbsp; &nbsp; &nbsp; &nbsp; &nbsp; &nbsp;<font class='posOutcome'>Shared back: <strong>6</strong></font></font><div class='respPicDiv'><img src='img/responseButtonOffersNo0_wht.png' class='respPic'></div></div>","null","1","Timothy","11","Shared","0.8,0.35","12","0.8","trustrating_stim/white_00659_941121_fa_edt.bmp","7","8","1"
"","","","decision","6320e37620d067c7d322246a","bdp_trlrn","Sat Apr 08 2023 11:16:00 GMT-0400 (Eastern Daylight Time)","724100","Untrustworthy,Trustworthy","html-keyboard-response","141","423329","0.0-19.0-1.1","","","3705","","<div class='trialDiv'><img src='trustrating_stim/white_mw084.bmp'><br><font class='baseline'><strong>Lucas</strong><p>Choose number of points to send.</font><div class='respPicDiv'><img src='img/responseButtonOffersNo0L.png' class='respPic'></div></div>","2","1","Lucas","3","Kept","0.2,0.65","11","0.2","trustrating_stim/white_mw084.bmp","2.5","13","2"
"","","","decisionFB","6320e37620d067c7d322246a","bdp_trlrn","Sat Apr 08 2023 11:16:00 GMT-0400 (Eastern Daylight Time)","724100","Untrustworthy,Trustworthy","html-keyboard-response","142","423581","0.0-19.0-2.1","","","null","","<div class='trialDiv'><img src='trustrating_stim/white_mw084.bmp'><br><font class='baseline'><strong>Lucas</strong><p>Choose number of points to send.</font><div class='respPicDiv'><img src='img/responseButtonOffersNo0L2.png' class='respPic'></div></div>","null","1","Lucas","3","Kept","0.2,0.65","11","0.2","trustrating_stim/white_mw084.bmp","2.5","11","2"
"","","","feedback","6320e37620d067c7d322246a","bdp_trlrn","Sat Apr 08 2023 11:16:00 GMT-0400 (Eastern Daylight Time)","724100","Untrustworthy,Trustworthy","html-keyboard-response","143","424582","0.0-19.0-3.1","","","null","","<div class='trialDiv'><img src='trustrating_stim/white_mw084.bmp'><br><font class='baseline'><strong>Lucas</strong><p>Received: <strong>8</strong></font> &nbsp; &nbsp; &nbsp; &nbsp; &nbsp; &nbsp;<font class='negOutcome'>Shared back: <strong>0</strong></font></font><div class='respPicDiv'><img src='img/responseButtonOffersNo0_wht.png' class='respPic'></div></div>","null","1","Lucas","3","Kept","0.2,0.65","11","0.2","trustrating_stim/white_mw084.bmp","2.5","11","2"
"","","","decision","6320e37620d067c7d322246a","bdp_trlrn","Sat Apr 08 2023 11:16:00 GMT-0400 (Eastern Daylight Time)","724100","Untrustworthy,Trustworthy","html-keyboard-response","144","429480","0.0-19.0-1.2","","","4898","","<div class='trialDiv'><img src='trustrating_stim/white_mw099.bmp'><br><font class='baseline'><strong>Michael</strong><p>Choose number of points to send.</font><div class='respPicDiv'><img src='img/responseButtonOffersNo0L.png' class='respPic'></div></div>","4","1","Michael","4","Shared","0.8,0.2","12","0.8","trustrating_stim/white_mw099.bmp","3.5","16","3"
"","","","decisionFB","6320e37620d067c7d322246a","bdp_trlrn","Sat Apr 08 2023 11:16:00 GMT-0400 (Eastern Daylight Time)","724100","Untrustworthy,Trustworthy","html-keyboard-response","145","429732","0.0-19.0-2.2","","","null","","<div class='trialDiv'><img src='trustrating_stim/white_mw099.bmp'><br><font class='baseline'><strong>Michael</strong><p>Choose number of points to send.</font><div class='respPicDiv'><img src='img/responseButtonOffersNo0L4.png' class='respPic'></div></div>","null","1","Michael","4","Shared","0.8,0.2","12","0.8","trustrating_stim/white_mw099.bmp","3.5","12","3"
"","","","feedback","6320e37620d067c7d322246a","bdp_trlrn","Sat Apr 08 2023 11:16:00 GMT-0400 (Eastern Daylight Time)","724100","Untrustworthy,Trustworthy","html-keyboard-response","146","430733","0.0-19.0-3.2","","","null","","<div class='trialDiv'><img src='trustrating_stim/white_mw099.bmp'><br><font class='baseline'><strong>Michael</strong><p>Received: <strong>16</strong></font> &nbsp; &nbsp; &nbsp; &nbsp; &nbsp; &nbsp;<font class='posOutcome'>Shared back: <strong>8</strong></font></font><div class='respPicDiv'><img src='img/responseButtonOffersNo0_wht.png' class='respPic'></div></div>","null","1","Michael","4","Shared","0.8,0.2","12","0.8","trustrating_stim/white_mw099.bmp","3.5","20","3"
"","","","decision","6320e37620d067c7d322246a","bdp_trlrn","Sat Apr 08 2023 11:16:00 GMT-0400 (Eastern Daylight Time)","724100","Untrustworthy,Trustworthy","html-keyboard-response","147","431752","0.0-19.0-1.3","","","1019","","<div class='trialDiv'><img src='trustrating_stim/white_mw084.bmp'><br><font class='baseline'><strong>Lucas</strong><p>Choose number of points to send.</font><div class='respPicDiv'><img src='img/responseButtonOffersNo0L.png' class='respPic'></div></div>","5","2","Lucas","3","Kept","0.2,0.65","11","0.2","trustrating_stim/white_mw084.bmp","2.5","25","4"
"","","","decisionFB","6320e37620d067c7d322246a","bdp_trlrn","Sat Apr 08 2023 11:16:00 GMT-0400 (Eastern Daylight Time)","724100","Untrustworthy,Trustworthy","html-keyboard-response","148","432002","0.0-19.0-2.3","","","null","","<div class='trialDiv'><img src='trustrating_stim/white_mw084.bmp'><br><font class='baseline'><strong>Lucas</strong><p>Choose number of points to send.</font><div class='respPicDiv'><img src='img/responseButtonOffersNo0L5.png' class='respPic'></div></div>","null","2","Lucas","3","Kept","0.2,0.65","11","0.2","trustrating_stim/white_mw084.bmp","2.5","20","4"
"","","","feedback","6320e37620d067c7d322246a","bdp_trlrn","Sat Apr 08 2023 11:16:00 GMT-0400 (Eastern Daylight Time)","724100","Untrustworthy,Trustworthy","html-keyboard-response","149","433004","0.0-19.0-3.3","","","null","","<div class='trialDiv'><img src='trustrating_stim/white_mw084.bmp'><br><font class='baseline'><strong>Lucas</strong><p>Received: <strong>20</strong></font> &nbsp; &nbsp; &nbsp; &nbsp; &nbsp; &nbsp;<font class='negOutcome'>Shared back: <strong>0</strong></font></font><div class='respPicDiv'><img src='img/responseButtonOffersNo0_wht.png' class='respPic'></div></div>","null","2","Lucas","3","Kept","0.2,0.65","11","0.2","trustrating_stim/white_mw084.bmp","2.5","20","4"
"","","","decision","6320e37620d067c7d322246a","bdp_trlrn","Sat Apr 08 2023 11:16:00 GMT-0400 (Eastern Daylight Time)","724100","Untrustworthy,Trustworthy","html-keyboard-response","150","437011","0.0-19.0-1.4","","","4007","","<div class='trialDiv'><img src='trustrating_stim/white_mw099.bmp'><br><font class='baseline'><strong>Michael</strong><p>Choose number of points to send.</font><div class='respPicDiv'><img src='img/responseButtonOffersNo0L.png' class='respPic'></div></div>","5","2","Michael","4","Shared","0.8,0.2","12","0.8","trustrating_stim/white_mw099.bmp","3.5","25","5"
"","","","decisionFB","6320e37620d067c7d322246a","bdp_trlrn","Sat Apr 08 2023 11:16:00 GMT-0400 (Eastern Daylight Time)","724100","Untrustworthy,Trustworthy","html-keyboard-response","151","437262","0.0-19.0-2.4","","","null","","<div class='trialDiv'><img src='trustrating_stim/white_mw099.bmp'><br><font class='baseline'><strong>Michael</strong><p>Choose number of points to send.</font><div class='respPicDiv'><img src='img/responseButtonOffersNo0L5.png' class='respPic'></div></div>","null","2","Michael","4","Shared","0.8,0.2","12","0.8","trustrating_stim/white_mw099.bmp","3.5","20","5"
"","","","feedback","6320e37620d067c7d322246a","bdp_trlrn","Sat Apr 08 2023 11:16:00 GMT-0400 (Eastern Daylight Time)","724100","Untrustworthy,Trustworthy","html-keyboard-response","152","438264","0.0-19.0-3.4","","","null","","<div class='trialDiv'><img src='trustrating_stim/white_mw099.bmp'><br><font class='baseline'><strong>Michael</strong><p>Received: <strong>20</strong></font> &nbsp; &nbsp; &nbsp; &nbsp; &nbsp; &nbsp;<font class='posOutcome'>Shared back: <strong>10</strong></font></font><div class='respPicDiv'><img src='img/responseButtonOffersNo0_wht.png' class='respPic'></div></div>","null","2","Michael","4","Shared","0.8,0.2","12","0.8","trustrating_stim/white_mw099.bmp","3.5","30","5"
"","","","decision","6320e37620d067c7d322246a","bdp_trlrn","Sat Apr 08 2023 11:16:00 GMT-0400 (Eastern Daylight Time)","724100","Untrustworthy,Trustworthy","html-keyboard-response","153","439413","0.0-19.0-1.5","","","1149","","<div class='trialDiv'><img src='trustrating_stim/white_00659_941121_fa_edt.bmp'><br><font class='baseline'><strong>Timothy</strong><p>Choose number of points to send.</font><div class='respPicDiv'><img src='img/responseButtonOffersNo0L.png' class='respPic'></div></div>","2","2","Timothy","11","Shared","0.8,0.35","12","0.8","trustrating_stim/white_00659_941121_fa_edt.bmp","7","35","6"
"","","","decisionFB","6320e37620d067c7d322246a","bdp_trlrn","Sat Apr 08 2023 11:16:00 GMT-0400 (Eastern Daylight Time)","724100","Untrustworthy,Trustworthy","html-keyboard-response","154","439664","0.0-19.0-2.5","","","null","","<div class='trialDiv'><img src='trustrating_stim/white_00659_941121_fa_edt.bmp'><br><font class='baseline'><strong>Timothy</strong><p>Choose number of points to send.</font><div class='respPicDiv'><img src='img/responseButtonOffersNo0L2.png' class='respPic'></div></div>","null","2","Timothy","11","Shared","0.8,0.35","12","0.8","trustrating_stim/white_00659_941121_fa_edt.bmp","7","33","6"
"","","","feedback","6320e37620d067c7d322246a","bdp_trlrn","Sat Apr 08 2023 11:16:00 GMT-0400 (Eastern Daylight Time)","724100","Untrustworthy,Trustworthy","html-keyboard-response","155","440665","0.0-19.0-3.5","","","null","","<div class='trialDiv'><img src='trustrating_stim/white_00659_941121_fa_edt.bmp'><br><font class='baseline'><strong>Timothy</strong><p>Received: <strong>8</strong></font> &nbsp; &nbsp; &nbsp; &nbsp; &nbsp; &nbsp;<font class='posOutcome'>Shared back: <strong>4</strong></font></font><div class='respPicDiv'><img src='img/responseButtonOffersNo0_wht.png' class='respPic'></div></div>","null","2","Timothy","11","Shared","0.8,0.35","12","0.8","trustrating_stim/white_00659_941121_fa_edt.bmp","7","37","6"
"","","","decision","6320e37620d067c7d322246a","bdp_trlrn","Sat Apr 08 2023 11:16:00 GMT-0400 (Eastern Daylight Time)","724100","Untrustworthy,Trustworthy","html-keyboard-response","156","442114","0.0-19.0-1.6","","","1449","","<div class='trialDiv'><img src='trustrating_stim/white_mw099.bmp'><br><font class='baseline'><strong>Michael</strong><p>Choose number of points to send.</font><div class='respPicDiv'><img src='img/responseButtonOffersNo0L.png' class='respPic'></div></div>","5","3","Michael","4","Shared","0.8,0.2","12","0.8","trustrating_stim/white_mw099.bmp","3.5","42","7"
"","","","decisionFB","6320e37620d067c7d322246a","bdp_trlrn","Sat Apr 08 2023 11:16:00 GMT-0400 (Eastern Daylight Time)","724100","Untrustworthy,Trustworthy","html-keyboard-response","157","442365","0.0-19.0-2.6","","","null","","<div class='trialDiv'><img src='trustrating_stim/white_mw099.bmp'><br><font class='baseline'><strong>Michael</strong><p>Choose number of points to send.</font><div class='respPicDiv'><img src='img/responseButtonOffersNo0L5.png' class='respPic'></div></div>","null","3","Michael","4","Shared","0.8,0.2","12","0.8","trustrating_stim/white_mw099.bmp","3.5","37","7"
"","","","feedback","6320e37620d067c7d322246a","bdp_trlrn","Sat Apr 08 2023 11:16:00 GMT-0400 (Eastern Daylight Time)","724100","Untrustworthy,Trustworthy","html-keyboard-response","158","443366","0.0-19.0-3.6","","","null","","<div class='trialDiv'><img src='trustrating_stim/white_mw099.bmp'><br><font class='baseline'><strong>Michael</strong><p>Received: <strong>20</strong></font> &nbsp; &nbsp; &nbsp; &nbsp; &nbsp; &nbsp;<font class='posOutcome'>Shared back: <strong>10</strong></font></font><div class='respPicDiv'><img src='img/responseButtonOffersNo0_wht.png' class='respPic'></div></div>","null","3","Michael","4","Shared","0.8,0.2","12","0.8","trustrating_stim/white_mw099.bmp","3.5","47","7"
"","","","decision","6320e37620d067c7d322246a","bdp_trlrn","Sat Apr 08 2023 11:16:00 GMT-0400 (Eastern Daylight Time)","724100","Untrustworthy,Trustworthy","html-keyboard-response","159","445479","0.0-19.0-1.7","","","2112","","<div class='trialDiv'><img src='trustrating_stim/white_00659_941121_fa_edt.bmp'><br><font class='baseline'><strong>Timothy</strong><p>Choose number of points to send.</font><div class='respPicDiv'><img src='img/responseButtonOffersNo0L.png' class='respPic'></div></div>","3","3","Timothy","11","Shared","0.8,0.35","12","0.8","trustrating_stim/white_00659_941121_fa_edt.bmp","7","52","8"
"","","","decisionFB","6320e37620d067c7d322246a","bdp_trlrn","Sat Apr 08 2023 11:16:00 GMT-0400 (Eastern Daylight Time)","724100","Untrustworthy,Trustworthy","html-keyboard-response","160","445729","0.0-19.0-2.7","","","null","","<div class='trialDiv'><img src='trustrating_stim/white_00659_941121_fa_edt.bmp'><br><font class='baseline'><strong>Timothy</strong><p>Choose number of points to send.</font><div class='respPicDiv'><img src='img/responseButtonOffersNo0L3.png' class='respPic'></div></div>","null","3","Timothy","11","Shared","0.8,0.35","12","0.8","trustrating_stim/white_00659_941121_fa_edt.bmp","7","49","8"
"","","","feedback","6320e37620d067c7d322246a","bdp_trlrn","Sat Apr 08 2023 11:16:00 GMT-0400 (Eastern Daylight Time)","724100","Untrustworthy,Trustworthy","html-keyboard-response","161","446730","0.0-19.0-3.7","","","null","","<div class='trialDiv'><img src='trustrating_stim/white_00659_941121_fa_edt.bmp'><br><font class='baseline'><strong>Timothy</strong><p>Received: <strong>12</strong></font> &nbsp; &nbsp; &nbsp; &nbsp; &nbsp; &nbsp;<font class='posOutcome'>Shared back: <strong>6</strong></font></font><div class='respPicDiv'><img src='img/responseButtonOffersNo0_wht.png' class='respPic'></div></div>","null","3","Timothy","11","Shared","0.8,0.35","12","0.8","trustrating_stim/white_00659_941121_fa_edt.bmp","7","55","8"
"","","","decision","6320e37620d067c7d322246a","bdp_trlrn","Sat Apr 08 2023 11:16:00 GMT-0400 (Eastern Daylight Time)","724100","Untrustworthy,Trustworthy","html-keyboard-response","162","447780","0.0-19.0-1.8","","","1050","","<div class='trialDiv'><img src='trustrating_stim/white_mw084.bmp'><br><font class='baseline'><strong>Lucas</strong><p>Choose number of points to send.</font><div class='respPicDiv'><img src='img/responseButtonOffersNo0L.png' class='respPic'></div></div>","1","3","Lucas","3","Kept","0.2,0.65","11","0.2","trustrating_stim/white_mw084.bmp","2.5","60","9"
"","","","decisionFB","6320e37620d067c7d322246a","bdp_trlrn","Sat Apr 08 2023 11:16:00 GMT-0400 (Eastern Daylight Time)","724100","Untrustworthy,Trustworthy","html-keyboard-response","163","448031","0.0-19.0-2.8","","","null","","<div class='trialDiv'><img src='trustrating_stim/white_mw084.bmp'><br><font class='baseline'><strong>Lucas</strong><p>Choose number of points to send.</font><div class='respPicDiv'><img src='img/responseButtonOffersNo0L1.png' class='respPic'></div></div>","null","3","Lucas","3","Kept","0.2,0.65","11","0.2","trustrating_stim/white_mw084.bmp","2.5","59","9"
"","","","feedback","6320e37620d067c7d322246a","bdp_trlrn","Sat Apr 08 2023 11:16:00 GMT-0400 (Eastern Daylight Time)","724100","Untrustworthy,Trustworthy","html-keyboard-response","164","449032","0.0-19.0-3.8","","","null","","<div class='trialDiv'><img src='trustrating_stim/white_mw084.bmp'><br><font class='baseline'><strong>Lucas</strong><p>Received: <strong>4</strong></font> &nbsp; &nbsp; &nbsp; &nbsp; &nbsp; &nbsp;<font class='negOutcome'>Shared back: <strong>0</strong></font></font><div class='respPicDiv'><img src='img/responseButtonOffersNo0_wht.png' class='respPic'></div></div>","null","3","Lucas","3","Kept","0.2,0.65","11","0.2","trustrating_stim/white_mw084.bmp","2.5","59","9"
"","","","decision","6320e37620d067c7d322246a","bdp_trlrn","Sat Apr 08 2023 11:16:00 GMT-0400 (Eastern Daylight Time)","724100","Untrustworthy,Trustworthy","html-keyboard-response","165","450311","0.0-19.0-1.9","","","1279","","<div class='trialDiv'><img src='trustrating_stim/white_00659_941121_fa_edt.bmp'><br><font class='baseline'><strong>Timothy</strong><p>Choose number of points to send.</font><div class='respPicDiv'><img src='img/responseButtonOffersNo0L.png' class='respPic'></div></div>","5","4","Timothy","11","Shared","0.8,0.35","12","0.8","trustrating_stim/white_00659_941121_fa_edt.bmp","7","64","10"
"","","","decisionFB","6320e37620d067c7d322246a","bdp_trlrn","Sat Apr 08 2023 11:16:00 GMT-0400 (Eastern Daylight Time)","724100","Untrustworthy,Trustworthy","html-keyboard-response","166","450562","0.0-19.0-2.9","","","null","","<div class='trialDiv'><img src='trustrating_stim/white_00659_941121_fa_edt.bmp'><br><font class='baseline'><strong>Timothy</strong><p>Choose number of points to send.</font><div class='respPicDiv'><img src='img/responseButtonOffersNo0L5.png' class='respPic'></div></div>","null","4","Timothy","11","Shared","0.8,0.35","12","0.8","trustrating_stim/white_00659_941121_fa_edt.bmp","7","59","10"
"","","","feedback","6320e37620d067c7d322246a","bdp_trlrn","Sat Apr 08 2023 11:16:00 GMT-0400 (Eastern Daylight Time)","724100","Untrustworthy,Trustworthy","html-keyboard-response","167","451563","0.0-19.0-3.9","","","null","","<div class='trialDiv'><img src='trustrating_stim/white_00659_941121_fa_edt.bmp'><br><font class='baseline'><strong>Timothy</strong><p>Received: <strong>20</strong></font> &nbsp; &nbsp; &nbsp; &nbsp; &nbsp; &nbsp;<font class='posOutcome'>Shared back: <strong>10</strong></font></font><div class='respPicDiv'><img src='img/responseButtonOffersNo0_wht.png' class='respPic'></div></div>","null","4","Timothy","11","Shared","0.8,0.35","12","0.8","trustrating_stim/white_00659_941121_fa_edt.bmp","7","69","10"
"","","","decision","6320e37620d067c7d322246a","bdp_trlrn","Sat Apr 08 2023 11:16:00 GMT-0400 (Eastern Daylight Time)","724100","Untrustworthy,Trustworthy","html-keyboard-response","168","452482","0.0-19.0-1.10","","","918","","<div class='trialDiv'><img src='trustrating_stim/white_mw099.bmp'><br><font class='baseline'><strong>Michael</strong><p>Choose number of points to send.</font><div class='respPicDiv'><img src='img/responseButtonOffersNo0L.png' class='respPic'></div></div>","5","4","Michael","4","Kept","0.8,0.2","12","0.8","trustrating_stim/white_mw099.bmp","3.5","74","11"
"","","","decisionFB","6320e37620d067c7d322246a","bdp_trlrn","Sat Apr 08 2023 11:16:00 GMT-0400 (Eastern Daylight Time)","724100","Untrustworthy,Trustworthy","html-keyboard-response","169","452734","0.0-19.0-2.10","","","null","","<div class='trialDiv'><img src='trustrating_stim/white_mw099.bmp'><br><font class='baseline'><strong>Michael</strong><p>Choose number of points to send.</font><div class='respPicDiv'><img src='img/responseButtonOffersNo0L5.png' class='respPic'></div></div>","null","4","Michael","4","Kept","0.8,0.2","12","0.8","trustrating_stim/white_mw099.bmp","3.5","69","11"
"","","","feedback","6320e37620d067c7d322246a","bdp_trlrn","Sat Apr 08 2023 11:16:00 GMT-0400 (Eastern Daylight Time)","724100","Untrustworthy,Trustworthy","html-keyboard-response","170","453734","0.0-19.0-3.10","","","null","","<div class='trialDiv'><img src='trustrating_stim/white_mw099.bmp'><br><font class='baseline'><strong>Michael</strong><p>Received: <strong>20</strong></font> &nbsp; &nbsp; &nbsp; &nbsp; &nbsp; &nbsp;<font class='negOutcome'>Shared back: <strong>0</strong></font></font><div class='respPicDiv'><img src='img/responseButtonOffersNo0_wht.png' class='respPic'></div></div>","null","4","Michael","4","Kept","0.8,0.2","12","0.8","trustrating_stim/white_mw099.bmp","3.5","69","11"
"","","","decision","6320e37620d067c7d322246a","bdp_trlrn","Sat Apr 08 2023 11:16:00 GMT-0400 (Eastern Daylight Time)","724100","Untrustworthy,Trustworthy","html-keyboard-response","171","454944","0.0-19.0-1.11","","","1209","","<div class='trialDiv'><img src='trustrating_stim/white_mw084.bmp'><br><font class='baseline'><strong>Lucas</strong><p>Choose number of points to send.</font><div class='respPicDiv'><img src='img/responseButtonOffersNo0L.png' class='respPic'></div></div>","1","4","Lucas","3","Kept","0.2,0.65","11","0.2","trustrating_stim/white_mw084.bmp","2.5","74","12"
"","","","decisionFB","6320e37620d067c7d322246a","bdp_trlrn","Sat Apr 08 2023 11:16:00 GMT-0400 (Eastern Daylight Time)","724100","Untrustworthy,Trustworthy","html-keyboard-response","172","455194","0.0-19.0-2.11","","","null","","<div class='trialDiv'><img src='trustrating_stim/white_mw084.bmp'><br><font class='baseline'><strong>Lucas</strong><p>Choose number of points to send.</font><div class='respPicDiv'><img src='img/responseButtonOffersNo0L1.png' class='respPic'></div></div>","null","4","Lucas","3","Kept","0.2,0.65","11","0.2","trustrating_stim/white_mw084.bmp","2.5","73","12"
"","","","feedback","6320e37620d067c7d322246a","bdp_trlrn","Sat Apr 08 2023 11:16:00 GMT-0400 (Eastern Daylight Time)","724100","Untrustworthy,Trustworthy","html-keyboard-response","173","456195","0.0-19.0-3.11","","","null","","<div class='trialDiv'><img src='trustrating_stim/white_mw084.bmp'><br><font class='baseline'><strong>Lucas</strong><p>Received: <strong>4</strong></font> &nbsp; &nbsp; &nbsp; &nbsp; &nbsp; &nbsp;<font class='negOutcome'>Shared back: <strong>0</strong></font></font><div class='respPicDiv'><img src='img/responseButtonOffersNo0_wht.png' class='respPic'></div></div>","null","4","Lucas","3","Kept","0.2,0.65","11","0.2","trustrating_stim/white_mw084.bmp","2.5","73","12"
"","","","decision","6320e37620d067c7d322246a","bdp_trlrn","Sat Apr 08 2023 11:16:00 GMT-0400 (Eastern Daylight Time)","724100","Untrustworthy,Trustworthy","html-keyboard-response","174","457582","0.0-19.0-1.12","","","1384","","<div class='trialDiv'><img src='trustrating_stim/white_mw099.bmp'><br><font class='baseline'><strong>Michael</strong><p>Choose number of points to send.</font><div class='respPicDiv'><img src='img/responseButtonOffersNo0L.png' class='respPic'></div></div>","1","5","Michael","4","Kept","0.8,0.2","12","0.8","trustrating_stim/white_mw099.bmp","3.5","78","13"
"","","","decisionFB","6320e37620d067c7d322246a","bdp_trlrn","Sat Apr 08 2023 11:16:00 GMT-0400 (Eastern Daylight Time)","724100","Untrustworthy,Trustworthy","html-keyboard-response","175","457831","0.0-19.0-2.12","","","null","","<div class='trialDiv'><img src='trustrating_stim/white_mw099.bmp'><br><font class='baseline'><strong>Michael</strong><p>Choose number of points to send.</font><div class='respPicDiv'><img src='img/responseButtonOffersNo0L1.png' class='respPic'></div></div>","null","5","Michael","4","Kept","0.8,0.2","12","0.8","trustrating_stim/white_mw099.bmp","3.5","77","13"
"","","","feedback","6320e37620d067c7d322246a","bdp_trlrn","Sat Apr 08 2023 11:16:00 GMT-0400 (Eastern Daylight Time)","724100","Untrustworthy,Trustworthy","html-keyboard-response","176","458833","0.0-19.0-3.12","","","null","","<div class='trialDiv'><img src='trustrating_stim/white_mw099.bmp'><br><font class='baseline'><strong>Michael</strong><p>Received: <strong>4</strong></font> &nbsp; &nbsp; &nbsp; &nbsp; &nbsp; &nbsp;<font class='negOutcome'>Shared back: <strong>0</strong></font></font><div class='respPicDiv'><img src='img/responseButtonOffersNo0_wht.png' class='respPic'></div></div>","null","5","Michael","4","Kept","0.8,0.2","12","0.8","trustrating_stim/white_mw099.bmp","3.5","77","13"
"","","","decision","6320e37620d067c7d322246a","bdp_trlrn","Sat Apr 08 2023 11:16:00 GMT-0400 (Eastern Daylight Time)","724100","Untrustworthy,Trustworthy","html-keyboard-response","177","459462","0.0-19.0-1.13","","","628","","<div class='trialDiv'><img src='trustrating_stim/white_00659_941121_fa_edt.bmp'><br><font class='baseline'><strong>Timothy</strong><p>Choose number of points to send.</font><div class='respPicDiv'><img src='img/responseButtonOffersNo0L.png' class='respPic'></div></div>","5","5","Timothy","11","Kept","0.8,0.35","12","0.8","trustrating_stim/white_00659_941121_fa_edt.bmp","7","82","14"
"","","","decisionFB","6320e37620d067c7d322246a","bdp_trlrn","Sat Apr 08 2023 11:16:00 GMT-0400 (Eastern Daylight Time)","724100","Untrustworthy,Trustworthy","html-keyboard-response","178","459712","0.0-19.0-2.13","","","null","","<div class='trialDiv'><img src='trustrating_stim/white_00659_941121_fa_edt.bmp'><br><font class='baseline'><strong>Timothy</strong><p>Choose number of points to send.</font><div class='respPicDiv'><img src='img/responseButtonOffersNo0L5.png' class='respPic'></div></div>","null","5","Timothy","11","Kept","0.8,0.35","12","0.8","trustrating_stim/white_00659_941121_fa_edt.bmp","7","77","14"
"","","","feedback","6320e37620d067c7d322246a","bdp_trlrn","Sat Apr 08 2023 11:16:00 GMT-0400 (Eastern Daylight Time)","724100","Untrustworthy,Trustworthy","html-keyboard-response","179","460713","0.0-19.0-3.13","","","null","","<div class='trialDiv'><img src='trustrating_stim/white_00659_941121_fa_edt.bmp'><br><font class='baseline'><strong>Timothy</strong><p>Received: <strong>20</strong></font> &nbsp; &nbsp; &nbsp; &nbsp; &nbsp; &nbsp;<font class='negOutcome'>Shared back: <strong>0</strong></font></font><div class='respPicDiv'><img src='img/responseButtonOffersNo0_wht.png' class='respPic'></div></div>","null","5","Timothy","11","Kept","0.8,0.35","12","0.8","trustrating_stim/white_00659_941121_fa_edt.bmp","7","77","14"
"","","","decision","6320e37620d067c7d322246a","bdp_trlrn","Sat Apr 08 2023 11:16:00 GMT-0400 (Eastern Daylight Time)","724100","Untrustworthy,Trustworthy","html-keyboard-response","180","461105","0.0-19.0-1.14","","","391","","<div class='trialDiv'><img src='trustrating_stim/white_mw084.bmp'><br><font class='baseline'><strong>Lucas</strong><p>Choose number of points to send.</font><div class='respPicDiv'><img src='img/responseButtonOffersNo0L.png' class='respPic'></div></div>","1","5","Lucas","3","Kept","0.2,0.65","11","0.2","trustrating_stim/white_mw084.bmp","2.5","82","15"
"","","","decisionFB","6320e37620d067c7d322246a","bdp_trlrn","Sat Apr 08 2023 11:16:00 GMT-0400 (Eastern Daylight Time)","724100","Untrustworthy,Trustworthy","html-keyboard-response","181","461356","0.0-19.0-2.14","","","null","","<div class='trialDiv'><img src='trustrating_stim/white_mw084.bmp'><br><font class='baseline'><strong>Lucas</strong><p>Choose number of points to send.</font><div class='respPicDiv'><img src='img/responseButtonOffersNo0L1.png' class='respPic'></div></div>","null","5","Lucas","3","Kept","0.2,0.65","11","0.2","trustrating_stim/white_mw084.bmp","2.5","81","15"
"","","","feedback","6320e37620d067c7d322246a","bdp_trlrn","Sat Apr 08 2023 11:16:00 GMT-0400 (Eastern Daylight Time)","724100","Untrustworthy,Trustworthy","html-keyboard-response","182","462357","0.0-19.0-3.14","","","null","","<div class='trialDiv'><img src='trustrating_stim/white_mw084.bmp'><br><font class='baseline'><strong>Lucas</strong><p>Received: <strong>4</strong></font> &nbsp; &nbsp; &nbsp; &nbsp; &nbsp; &nbsp;<font class='negOutcome'>Shared back: <strong>0</strong></font></font><div class='respPicDiv'><img src='img/responseButtonOffersNo0_wht.png' class='respPic'></div></div>","null","5","Lucas","3","Kept","0.2,0.65","11","0.2","trustrating_stim/white_mw084.bmp","2.5","81","15"
"","","","decision","6320e37620d067c7d322246a","bdp_trlrn","Sat Apr 08 2023 11:16:00 GMT-0400 (Eastern Daylight Time)","724100","Untrustworthy,Trustworthy","html-keyboard-response","183","462699","0.0-19.0-1.15","","","342","","<div class='trialDiv'><img src='trustrating_stim/white_00659_941121_fa_edt.bmp'><br><font class='baseline'><strong>Timothy</strong><p>Choose number of points to send.</font><div class='respPicDiv'><img src='img/responseButtonOffersNo0L.png' class='respPic'></div></div>","1","6","Timothy","11","Shared","0.8,0.35","12","0.8","trustrating_stim/white_00659_941121_fa_edt.bmp","7","86","16"
"","","","decisionFB","6320e37620d067c7d322246a","bdp_trlrn","Sat Apr 08 2023 11:16:00 GMT-0400 (Eastern Daylight Time)","724100","Untrustworthy,Trustworthy","html-keyboard-response","184","462950","0.0-19.0-2.15","","","null","","<div class='trialDiv'><img src='trustrating_stim/white_00659_941121_fa_edt.bmp'><br><font class='baseline'><strong>Timothy</strong><p>Choose number of points to send.</font><div class='respPicDiv'><img src='img/responseButtonOffersNo0L1.png' class='respPic'></div></div>","null","6","Timothy","11","Shared","0.8,0.35","12","0.8","trustrating_stim/white_00659_941121_fa_edt.bmp","7","85","16"
"","","","feedback","6320e37620d067c7d322246a","bdp_trlrn","Sat Apr 08 2023 11:16:00 GMT-0400 (Eastern Daylight Time)","724100","Untrustworthy,Trustworthy","html-keyboard-response","185","463952","0.0-19.0-3.15","","","null","","<div class='trialDiv'><img src='trustrating_stim/white_00659_941121_fa_edt.bmp'><br><font class='baseline'><strong>Timothy</strong><p>Received: <strong>4</strong></font> &nbsp; &nbsp; &nbsp; &nbsp; &nbsp; &nbsp;<font class='posOutcome'>Shared back: <strong>2</strong></font></font><div class='respPicDiv'><img src='img/responseButtonOffersNo0_wht.png' class='respPic'></div></div>","null","6","Timothy","11","Shared","0.8,0.35","12","0.8","trustrating_stim/white_00659_941121_fa_edt.bmp","7","87","16"
"","","","decision","6320e37620d067c7d322246a","bdp_trlrn","Sat Apr 08 2023 11:16:00 GMT-0400 (Eastern Daylight Time)","724100","Untrustworthy,Trustworthy","html-keyboard-response","186","464600","0.0-19.0-1.16","","","648","","<div class='trialDiv'><img src='trustrating_stim/white_mw084.bmp'><br><font class='baseline'><strong>Lucas</strong><p>Choose number of points to send.</font><div class='respPicDiv'><img src='img/responseButtonOffersNo0L.png' class='respPic'></div></div>","1","6","Lucas","3","Kept","0.2,0.65","11","0.2","trustrating_stim/white_mw084.bmp","2.5","92","17"
"","","","decisionFB","6320e37620d067c7d322246a","bdp_trlrn","Sat Apr 08 2023 11:16:00 GMT-0400 (Eastern Daylight Time)","724100","Untrustworthy,Trustworthy","html-keyboard-response","187","464851","0.0-19.0-2.16","","","null","","<div class='trialDiv'><img src='trustrating_stim/white_mw084.bmp'><br><font class='baseline'><strong>Lucas</strong><p>Choose number of points to send.</font><div class='respPicDiv'><img src='img/responseButtonOffersNo0L1.png' class='respPic'></div></div>","null","6","Lucas","3","Kept","0.2,0.65","11","0.2","trustrating_stim/white_mw084.bmp","2.5","91","17"
"","","","feedback","6320e37620d067c7d322246a","bdp_trlrn","Sat Apr 08 2023 11:16:00 GMT-0400 (Eastern Daylight Time)","724100","Untrustworthy,Trustworthy","html-keyboard-response","188","465852","0.0-19.0-3.16","","","null","","<div class='trialDiv'><img src='trustrating_stim/white_mw084.bmp'><br><font class='baseline'><strong>Lucas</strong><p>Received: <strong>4</strong></font> &nbsp; &nbsp; &nbsp; &nbsp; &nbsp; &nbsp;<font class='negOutcome'>Shared back: <strong>0</strong></font></font><div class='respPicDiv'><img src='img/responseButtonOffersNo0_wht.png' class='respPic'></div></div>","null","6","Lucas","3","Kept","0.2,0.65","11","0.2","trustrating_stim/white_mw084.bmp","2.5","91","17"
"","","","decision","6320e37620d067c7d322246a","bdp_trlrn","Sat Apr 08 2023 11:16:00 GMT-0400 (Eastern Daylight Time)","724100","Untrustworthy,Trustworthy","html-keyboard-response","189","466204","0.0-19.0-1.17","","","352","","<div class='trialDiv'><img src='trustrating_stim/white_mw099.bmp'><br><font class='baseline'><strong>Michael</strong><p>Choose number of points to send.</font><div class='respPicDiv'><img src='img/responseButtonOffersNo0L.png' class='respPic'></div></div>","1","6","Michael","4","Kept","0.8,0.2","12","0.8","trustrating_stim/white_mw099.bmp","3.5","96","18"
"","","","decisionFB","6320e37620d067c7d322246a","bdp_trlrn","Sat Apr 08 2023 11:16:00 GMT-0400 (Eastern Daylight Time)","724100","Untrustworthy,Trustworthy","html-keyboard-response","190","466455","0.0-19.0-2.17","","","null","","<div class='trialDiv'><img src='trustrating_stim/white_mw099.bmp'><br><font class='baseline'><strong>Michael</strong><p>Choose number of points to send.</font><div class='respPicDiv'><img src='img/responseButtonOffersNo0L1.png' class='respPic'></div></div>","null","6","Michael","4","Kept","0.8,0.2","12","0.8","trustrating_stim/white_mw099.bmp","3.5","95","18"
"","","","feedback","6320e37620d067c7d322246a","bdp_trlrn","Sat Apr 08 2023 11:16:00 GMT-0400 (Eastern Daylight Time)","724100","Untrustworthy,Trustworthy","html-keyboard-response","191","467456","0.0-19.0-3.17","","","null","","<div class='trialDiv'><img src='trustrating_stim/white_mw099.bmp'><br><font class='baseline'><strong>Michael</strong><p>Received: <strong>4</strong></font> &nbsp; &nbsp; &nbsp; &nbsp; &nbsp; &nbsp;<font class='negOutcome'>Shared back: <strong>0</strong></font></font><div class='respPicDiv'><img src='img/responseButtonOffersNo0_wht.png' class='respPic'></div></div>","null","6","Michael","4","Kept","0.8,0.2","12","0.8","trustrating_stim/white_mw099.bmp","3.5","95","18"
"","","","decision","6320e37620d067c7d322246a","bdp_trlrn","Sat Apr 08 2023 11:16:00 GMT-0400 (Eastern Daylight Time)","724100","Untrustworthy,Trustworthy","html-keyboard-response","192","467688","0.0-19.0-1.18","","","231","","<div class='trialDiv'><img src='trustrating_stim/white_00659_941121_fa_edt.bmp'><br><font class='baseline'><strong>Timothy</strong><p>Choose number of points to send.</font><div class='respPicDiv'><img src='img/responseButtonOffersNo0L.png' class='respPic'></div></div>","1","7","Timothy","11","Shared","0.8,0.35","12","0.8","trustrating_stim/white_00659_941121_fa_edt.bmp","7","100","19"
"","","","decisionFB","6320e37620d067c7d322246a","bdp_trlrn","Sat Apr 08 2023 11:16:00 GMT-0400 (Eastern Daylight Time)","724100","Untrustworthy,Trustworthy","html-keyboard-response","193","467940","0.0-19.0-2.18","","","null","","<div class='trialDiv'><img src='trustrating_stim/white_00659_941121_fa_edt.bmp'><br><font class='baseline'><strong>Timothy</strong><p>Choose number of points to send.</font><div class='respPicDiv'><img src='img/responseButtonOffersNo0L1.png' class='respPic'></div></div>","null","7","Timothy","11","Shared","0.8,0.35","12","0.8","trustrating_stim/white_00659_941121_fa_edt.bmp","7","99","19"
"","","","feedback","6320e37620d067c7d322246a","bdp_trlrn","Sat Apr 08 2023 11:16:00 GMT-0400 (Eastern Daylight Time)","724100","Untrustworthy,Trustworthy","html-keyboard-response","194","468940","0.0-19.0-3.18","","","null","","<div class='trialDiv'><img src='trustrating_stim/white_00659_941121_fa_edt.bmp'><br><font class='baseline'><strong>Timothy</strong><p>Received: <strong>4</strong></font> &nbsp; &nbsp; &nbsp; &nbsp; &nbsp; &nbsp;<font class='posOutcome'>Shared back: <strong>2</strong></font></font><div class='respPicDiv'><img src='img/responseButtonOffersNo0_wht.png' class='respPic'></div></div>","null","7","Timothy","11","Shared","0.8,0.35","12","0.8","trustrating_stim/white_00659_941121_fa_edt.bmp","7","101","19"
"","","","decision","6320e37620d067c7d322246a","bdp_trlrn","Sat Apr 08 2023 11:16:00 GMT-0400 (Eastern Daylight Time)","724100","Untrustworthy,Trustworthy","html-keyboard-response","195","469182","0.0-19.0-1.19","","","242","","<div class='trialDiv'><img src='trustrating_stim/white_mw099.bmp'><br><font class='baseline'><strong>Michael</strong><p>Choose number of points to send.</font><div class='respPicDiv'><img src='img/responseButtonOffersNo0L.png' class='respPic'></div></div>","1","7","Michael","4","Kept","0.8,0.2","12","0.8","trustrating_stim/white_mw099.bmp","3.5","106","20"
"","","","decisionFB","6320e37620d067c7d322246a","bdp_trlrn","Sat Apr 08 2023 11:16:00 GMT-0400 (Eastern Daylight Time)","724100","Untrustworthy,Trustworthy","html-keyboard-response","196","469432","0.0-19.0-2.19","","","null","","<div class='trialDiv'><img src='trustrating_stim/white_mw099.bmp'><br><font class='baseline'><strong>Michael</strong><p>Choose number of points to send.</font><div class='respPicDiv'><img src='img/responseButtonOffersNo0L1.png' class='respPic'></div></div>","null","7","Michael","4","Kept","0.8,0.2","12","0.8","trustrating_stim/white_mw099.bmp","3.5","105","20"
"","","","feedback","6320e37620d067c7d322246a","bdp_trlrn","Sat Apr 08 2023 11:16:00 GMT-0400 (Eastern Daylight Time)","724100","Untrustworthy,Trustworthy","html-keyboard-response","197","470433","0.0-19.0-3.19","","","null","","<div class='trialDiv'><img src='trustrating_stim/white_mw099.bmp'><br><font class='baseline'><strong>Michael</strong><p>Received: <strong>4</strong></font> &nbsp; &nbsp; &nbsp; &nbsp; &nbsp; &nbsp;<font class='negOutcome'>Shared back: <strong>0</strong></font></font><div class='respPicDiv'><img src='img/responseButtonOffersNo0_wht.png' class='respPic'></div></div>","null","7","Michael","4","Kept","0.8,0.2","12","0.8","trustrating_stim/white_mw099.bmp","3.5","105","20"
"","","","decision","6320e37620d067c7d322246a","bdp_trlrn","Sat Apr 08 2023 11:16:00 GMT-0400 (Eastern Daylight Time)","724100","Untrustworthy,Trustworthy","html-keyboard-response","198","470720","0.0-19.0-1.20","","","286","","<div class='trialDiv'><img src='trustrating_stim/white_mw084.bmp'><br><font class='baseline'><strong>Lucas</strong><p>Choose number of points to send.</font><div class='respPicDiv'><img src='img/responseButtonOffersNo0L.png' class='respPic'></div></div>","1","7","Lucas","3","Kept","0.2,0.65","11","0.2","trustrating_stim/white_mw084.bmp","2.5","110","21"
"","","","decisionFB","6320e37620d067c7d322246a","bdp_trlrn","Sat Apr 08 2023 11:16:00 GMT-0400 (Eastern Daylight Time)","724100","Untrustworthy,Trustworthy","html-keyboard-response","199","470971","0.0-19.0-2.20","","","null","","<div class='trialDiv'><img src='trustrating_stim/white_mw084.bmp'><br><font class='baseline'><strong>Lucas</strong><p>Choose number of points to send.</font><div class='respPicDiv'><img src='img/responseButtonOffersNo0L1.png' class='respPic'></div></div>","null","7","Lucas","3","Kept","0.2,0.65","11","0.2","trustrating_stim/white_mw084.bmp","2.5","109","21"
"","","","feedback","6320e37620d067c7d322246a","bdp_trlrn","Sat Apr 08 2023 11:16:00 GMT-0400 (Eastern Daylight Time)","724100","Untrustworthy,Trustworthy","html-keyboard-response","200","471973","0.0-19.0-3.20","","","null","","<div class='trialDiv'><img src='trustrating_stim/white_mw084.bmp'><br><font class='baseline'><strong>Lucas</strong><p>Received: <strong>4</strong></font> &nbsp; &nbsp; &nbsp; &nbsp; &nbsp; &nbsp;<font class='negOutcome'>Shared back: <strong>0</strong></font></font><div class='respPicDiv'><img src='img/responseButtonOffersNo0_wht.png' class='respPic'></div></div>","null","7","Lucas","3","Kept","0.2,0.65","11","0.2","trustrating_stim/white_mw084.bmp","2.5","109","21"
"","","","decision","6320e37620d067c7d322246a","bdp_trlrn","Sat Apr 08 2023 11:16:00 GMT-0400 (Eastern Daylight Time)","724100","Untrustworthy,Trustworthy","html-keyboard-response","201","472169","0.0-19.0-1.21","","","196","","<div class='trialDiv'><img src='trustrating_stim/white_mw099.bmp'><br><font class='baseline'><strong>Michael</strong><p>Choose number of points to send.</font><div class='respPicDiv'><img src='img/responseButtonOffersNo0L.png' class='respPic'></div></div>","1","8","Michael","4","Shared","0.8,0.2","12","0.8","trustrating_stim/white_mw099.bmp","3.5","114","22"
"","","","decisionFB","6320e37620d067c7d322246a","bdp_trlrn","Sat Apr 08 2023 11:16:00 GMT-0400 (Eastern Daylight Time)","724100","Untrustworthy,Trustworthy","html-keyboard-response","202","472420","0.0-19.0-2.21","","","null","","<div class='trialDiv'><img src='trustrating_stim/white_mw099.bmp'><br><font class='baseline'><strong>Michael</strong><p>Choose number of points to send.</font><div class='respPicDiv'><img src='img/responseButtonOffersNo0L1.png' class='respPic'></div></div>","null","8","Michael","4","Shared","0.8,0.2","12","0.8","trustrating_stim/white_mw099.bmp","3.5","113","22"
"","","","feedback","6320e37620d067c7d322246a","bdp_trlrn","Sat Apr 08 2023 11:16:00 GMT-0400 (Eastern Daylight Time)","724100","Untrustworthy,Trustworthy","html-keyboard-response","203","473421","0.0-19.0-3.21","","","null","","<div class='trialDiv'><img src='trustrating_stim/white_mw099.bmp'><br><font class='baseline'><strong>Michael</strong><p>Received: <strong>4</strong></font> &nbsp; &nbsp; &nbsp; &nbsp; &nbsp; &nbsp;<font class='posOutcome'>Shared back: <strong>2</strong></font></font><div class='respPicDiv'><img src='img/responseButtonOffersNo0_wht.png' class='respPic'></div></div>","null","8","Michael","4","Shared","0.8,0.2","12","0.8","trustrating_stim/white_mw099.bmp","3.5","115","22"
"","","","decision","6320e37620d067c7d322246a","bdp_trlrn","Sat Apr 08 2023 11:16:00 GMT-0400 (Eastern Daylight Time)","724100","Untrustworthy,Trustworthy","html-keyboard-response","204","473649","0.0-19.0-1.22","","","227","","<div class='trialDiv'><img src='trustrating_stim/white_mw084.bmp'><br><font class='baseline'><strong>Lucas</strong><p>Choose number of points to send.</font><div class='respPicDiv'><img src='img/responseButtonOffersNo0L.png' class='respPic'></div></div>","1","8","Lucas","3","Kept","0.2,0.65","11","0.2","trustrating_stim/white_mw084.bmp","2.5","120","23"
"","","","decisionFB","6320e37620d067c7d322246a","bdp_trlrn","Sat Apr 08 2023 11:16:00 GMT-0400 (Eastern Daylight Time)","724100","Untrustworthy,Trustworthy","html-keyboard-response","205","473900","0.0-19.0-2.22","","","null","","<div class='trialDiv'><img src='trustrating_stim/white_mw084.bmp'><br><font class='baseline'><strong>Lucas</strong><p>Choose number of points to send.</font><div class='respPicDiv'><img src='img/responseButtonOffersNo0L1.png' class='respPic'></div></div>","null","8","Lucas","3","Kept","0.2,0.65","11","0.2","trustrating_stim/white_mw084.bmp","2.5","119","23"
"","","","feedback","6320e37620d067c7d322246a","bdp_trlrn","Sat Apr 08 2023 11:16:00 GMT-0400 (Eastern Daylight Time)","724100","Untrustworthy,Trustworthy","html-keyboard-response","206","474901","0.0-19.0-3.22","","","null","","<div class='trialDiv'><img src='trustrating_stim/white_mw084.bmp'><br><font class='baseline'><strong>Lucas</strong><p>Received: <strong>4</strong></font> &nbsp; &nbsp; &nbsp; &nbsp; &nbsp; &nbsp;<font class='negOutcome'>Shared back: <strong>0</strong></font></font><div class='respPicDiv'><img src='img/responseButtonOffersNo0_wht.png' class='respPic'></div></div>","null","8","Lucas","3","Kept","0.2,0.65","11","0.2","trustrating_stim/white_mw084.bmp","2.5","119","23"
"","","","decision","6320e37620d067c7d322246a","bdp_trlrn","Sat Apr 08 2023 11:16:00 GMT-0400 (Eastern Daylight Time)","724100","Untrustworthy,Trustworthy","html-keyboard-response","207","475122","0.0-19.0-1.23","","","221","","<div class='trialDiv'><img src='trustrating_stim/white_00659_941121_fa_edt.bmp'><br><font class='baseline'><strong>Timothy</strong><p>Choose number of points to send.</font><div class='respPicDiv'><img src='img/responseButtonOffersNo0L.png' class='respPic'></div></div>","1","8","Timothy","11","Shared","0.8,0.35","12","0.8","trustrating_stim/white_00659_941121_fa_edt.bmp","7","124","24"
"","","","decisionFB","6320e37620d067c7d322246a","bdp_trlrn","Sat Apr 08 2023 11:16:00 GMT-0400 (Eastern Daylight Time)","724100","Untrustworthy,Trustworthy","html-keyboard-response","208","475373","0.0-19.0-2.23","","","null","","<div class='trialDiv'><img src='trustrating_stim/white_00659_941121_fa_edt.bmp'><br><font class='baseline'><strong>Timothy</strong><p>Choose number of points to send.</font><div class='respPicDiv'><img src='img/responseButtonOffersNo0L1.png' class='respPic'></div></div>","null","8","Timothy","11","Shared","0.8,0.35","12","0.8","trustrating_stim/white_00659_941121_fa_edt.bmp","7","123","24"
"","","","feedback","6320e37620d067c7d322246a","bdp_trlrn","Sat Apr 08 2023 11:16:00 GMT-0400 (Eastern Daylight Time)","724100","Untrustworthy,Trustworthy","html-keyboard-response","209","476374","0.0-19.0-3.23","","","null","","<div class='trialDiv'><img src='trustrating_stim/white_00659_941121_fa_edt.bmp'><br><font class='baseline'><strong>Timothy</strong><p>Received: <strong>4</strong></font> &nbsp; &nbsp; &nbsp; &nbsp; &nbsp; &nbsp;<font class='posOutcome'>Shared back: <strong>2</strong></font></font><div class='respPicDiv'><img src='img/responseButtonOffersNo0_wht.png' class='respPic'></div></div>","null","8","Timothy","11","Shared","0.8,0.35","12","0.8","trustrating_stim/white_00659_941121_fa_edt.bmp","7","125","24"
"","","","decision","6320e37620d067c7d322246a","bdp_trlrn","Sat Apr 08 2023 11:16:00 GMT-0400 (Eastern Daylight Time)","724100","Untrustworthy,Trustworthy","html-keyboard-response","210","476572","0.0-19.0-1.24","","","198","","<div class='trialDiv'><img src='trustrating_stim/white_mw084.bmp'><br><font class='baseline'><strong>Lucas</strong><p>Choose number of points to send.</font><div class='respPicDiv'><img src='img/responseButtonOffersNo0L.png' class='respPic'></div></div>","1","9","Lucas","3","Kept","0.2,0.65","11","0.2","trustrating_stim/white_mw084.bmp","2.5","130","25"
"","","","decisionFB","6320e37620d067c7d322246a","bdp_trlrn","Sat Apr 08 2023 11:16:00 GMT-0400 (Eastern Daylight Time)","724100","Untrustworthy,Trustworthy","html-keyboard-response","211","476822","0.0-19.0-2.24","","","null","","<div class='trialDiv'><img src='trustrating_stim/white_mw084.bmp'><br><font class='baseline'><strong>Lucas</strong><p>Choose number of points to send.</font><div class='respPicDiv'><img src='img/responseButtonOffersNo0L1.png' class='respPic'></div></div>","null","9","Lucas","3","Kept","0.2,0.65","11","0.2","trustrating_stim/white_mw084.bmp","2.5","129","25"
"","","","feedback","6320e37620d067c7d322246a","bdp_trlrn","Sat Apr 08 2023 11:16:00 GMT-0400 (Eastern Daylight Time)","724100","Untrustworthy,Trustworthy","html-keyboard-response","212","477823","0.0-19.0-3.24","","","null","","<div class='trialDiv'><img src='trustrating_stim/white_mw084.bmp'><br><font class='baseline'><strong>Lucas</strong><p>Received: <strong>4</strong></font> &nbsp; &nbsp; &nbsp; &nbsp; &nbsp; &nbsp;<font class='negOutcome'>Shared back: <strong>0</strong></font></font><div class='respPicDiv'><img src='img/responseButtonOffersNo0_wht.png' class='respPic'></div></div>","null","9","Lucas","3","Kept","0.2,0.65","11","0.2","trustrating_stim/white_mw084.bmp","2.5","129","25"
"","","","decision","6320e37620d067c7d322246a","bdp_trlrn","Sat Apr 08 2023 11:16:00 GMT-0400 (Eastern Daylight Time)","724100","Untrustworthy,Trustworthy","html-keyboard-response","213","478040","0.0-19.0-1.25","","","217","","<div class='trialDiv'><img src='trustrating_stim/white_00659_941121_fa_edt.bmp'><br><font class='baseline'><strong>Timothy</strong><p>Choose number of points to send.</font><div class='respPicDiv'><img src='img/responseButtonOffersNo0L.png' class='respPic'></div></div>","1","9","Timothy","11","Shared","0.8,0.35","12","0.8","trustrating_stim/white_00659_941121_fa_edt.bmp","7","134","26"
"","","","decisionFB","6320e37620d067c7d322246a","bdp_trlrn","Sat Apr 08 2023 11:16:00 GMT-0400 (Eastern Daylight Time)","724100","Untrustworthy,Trustworthy","html-keyboard-response","214","478291","0.0-19.0-2.25","","","null","","<div class='trialDiv'><img src='trustrating_stim/white_00659_941121_fa_edt.bmp'><br><font class='baseline'><strong>Timothy</strong><p>Choose number of points to send.</font><div class='respPicDiv'><img src='img/responseButtonOffersNo0L1.png' class='respPic'></div></div>","null","9","Timothy","11","Shared","0.8,0.35","12","0.8","trustrating_stim/white_00659_941121_fa_edt.bmp","7","133","26"
"","","","feedback","6320e37620d067c7d322246a","bdp_trlrn","Sat Apr 08 2023 11:16:00 GMT-0400 (Eastern Daylight Time)","724100","Untrustworthy,Trustworthy","html-keyboard-response","215","479292","0.0-19.0-3.25","","","null","","<div class='trialDiv'><img src='trustrating_stim/white_00659_941121_fa_edt.bmp'><br><font class='baseline'><strong>Timothy</strong><p>Received: <strong>4</strong></font> &nbsp; &nbsp; &nbsp; &nbsp; &nbsp; &nbsp;<font class='posOutcome'>Shared back: <strong>2</strong></font></font><div class='respPicDiv'><img src='img/responseButtonOffersNo0_wht.png' class='respPic'></div></div>","null","9","Timothy","11","Shared","0.8,0.35","12","0.8","trustrating_stim/white_00659_941121_fa_edt.bmp","7","135","26"
"","","","decision","6320e37620d067c7d322246a","bdp_trlrn","Sat Apr 08 2023 11:16:00 GMT-0400 (Eastern Daylight Time)","724100","Untrustworthy,Trustworthy","html-keyboard-response","216","479500","0.0-19.0-1.26","","","207","","<div class='trialDiv'><img src='trustrating_stim/white_mw099.bmp'><br><font class='baseline'><strong>Michael</strong><p>Choose number of points to send.</font><div class='respPicDiv'><img src='img/responseButtonOffersNo0L.png' class='respPic'></div></div>","1","9","Michael","4","Shared","0.8,0.2","12","0.8","trustrating_stim/white_mw099.bmp","3.5","140","27"
"","","","decisionFB","6320e37620d067c7d322246a","bdp_trlrn","Sat Apr 08 2023 11:16:00 GMT-0400 (Eastern Daylight Time)","724100","Untrustworthy,Trustworthy","html-keyboard-response","217","479751","0.0-19.0-2.26","","","null","","<div class='trialDiv'><img src='trustrating_stim/white_mw099.bmp'><br><font class='baseline'><strong>Michael</strong><p>Choose number of points to send.</font><div class='respPicDiv'><img src='img/responseButtonOffersNo0L1.png' class='respPic'></div></div>","null","9","Michael","4","Shared","0.8,0.2","12","0.8","trustrating_stim/white_mw099.bmp","3.5","139","27"
"","","","feedback","6320e37620d067c7d322246a","bdp_trlrn","Sat Apr 08 2023 11:16:00 GMT-0400 (Eastern Daylight Time)","724100","Untrustworthy,Trustworthy","html-keyboard-response","218","480752","0.0-19.0-3.26","","","null","","<div class='trialDiv'><img src='trustrating_stim/white_mw099.bmp'><br><font class='baseline'><strong>Michael</strong><p>Received: <strong>4</strong></font> &nbsp; &nbsp; &nbsp; &nbsp; &nbsp; &nbsp;<font class='posOutcome'>Shared back: <strong>2</strong></font></font><div class='respPicDiv'><img src='img/responseButtonOffersNo0_wht.png' class='respPic'></div></div>","null","9","Michael","4","Shared","0.8,0.2","12","0.8","trustrating_stim/white_mw099.bmp","3.5","141","27"
"","","","decision","6320e37620d067c7d322246a","bdp_trlrn","Sat Apr 08 2023 11:16:00 GMT-0400 (Eastern Daylight Time)","724100","Untrustworthy,Trustworthy","html-keyboard-response","219","480952","0.0-19.0-1.27","","","200","","<div class='trialDiv'><img src='trustrating_stim/white_mw084.bmp'><br><font class='baseline'><strong>Lucas</strong><p>Choose number of points to send.</font><div class='respPicDiv'><img src='img/responseButtonOffersNo0L.png' class='respPic'></div></div>","1","10","Lucas","3","Kept","0.2,0.65","11","0.2","trustrating_stim/white_mw084.bmp","2.5","146","28"
