"trial_type","trial_index","time_elapsed","internal_node_id","subject_id","task","startTime","totalTime","labels","view_history","rt","event","trial","time","trialtype","success","stimulus","key_press","aground","name","faceID","outcome","agenttype","agentswpt","agentcurrpshare","face","avgRating","point_total","round"
"pavlovia","0","15","0.0-0.0","63153455849b153d56dd81db","bdp_trlrn","Tue Mar 14 2023 16:29:52 GMT-0700 (Pacific Daylight Time)","728115","Untrustworthy,Trustworthy","","","","","","","","","","","","","","","","","","","",""
"instructions","1","17748","0.0-1.0","63153455849b153d56dd81db","bdp_trlrn","Tue Mar 14 2023 16:29:52 GMT-0700 (Pacific Daylight Time)","728115","Untrustworthy,Trustworthy","[{""page_index"":0,""viewing_time"":17730}]","17730","","","","","","","","","","","","","","","","","",""
"","","","","63153455849b153d56dd81db","bdp_trlrn","Tue Mar 14 2023 16:29:52 GMT-0700 (Pacific Daylight Time)","728115","Untrustworthy,Trustworthy","","","fullscreenenter","2","20096","fullscreenenter","","","","","","","","","","","","","",""
"fullscreen","2","21028","0.0-2.0","63153455849b153d56dd81db","bdp_trlrn","Tue Mar 14 2023 16:29:52 GMT-0700 (Pacific Daylight Time)","728115","Untrustworthy,Trustworthy","","","","","","","true","","","","","","","","","","","","",""
"instructions","3","29400","0.0-4.0","63153455849b153d56dd81db","bdp_trlrn","Tue Mar 14 2023 16:29:52 GMT-0700 (Pacific Daylight Time)","728115","Untrustworthy,Trustworthy","[{""page_index"":0,""viewing_time"":6600},{""page_index"":1,""viewing_time"":1768}]","8368","","","","","","","","","","","","","","","","","",""
"instructions","4","30879","0.0-5.0","63153455849b153d56dd81db","bdp_trlrn","Tue Mar 14 2023 16:29:52 GMT-0700 (Pacific Daylight Time)","728115","Untrustworthy,Trustworthy","[{""page_index"":0,""viewing_time"":1478}]","1478","","","","","","","","","","","","","","","","","",""
"image-keyboard-response","5","35905","0.0-6.0-1.0","63153455849b153d56dd81db","bdp_trlrn","Tue Mar 14 2023 16:29:52 GMT-0700 (Pacific Daylight Time)","728115","Untrustworthy,Trustworthy","","4913","","","","rating","","trustrating_stim/white_mw084.bmp","4","","","","","","","","","","",""
"image-keyboard-response","6","36118","0.0-6.0-2.0","63153455849b153d56dd81db","bdp_trlrn","Tue Mar 14 2023 16:29:52 GMT-0700 (Pacific Daylight Time)","728115","Untrustworthy,Trustworthy","","null","","","","ratingFB","","trustrating_stim/white_mw084.bmp","null","","","","","","","","","","",""
"image-keyboard-response","7","38415","0.0-6.0-1.1","63153455849b153d56dd81db","bdp_trlrn","Tue Mar 14 2023 16:29:52 GMT-0700 (Pacific Daylight Time)","728115","Untrustworthy,Trustworthy","","2190","","","","rating","","trustrating_stim/white_mw063.bmp","5","","","","","","","","","","",""
"image-keyboard-response","8","38632","0.0-6.0-2.1","63153455849b153d56dd81db","bdp_trlrn","Tue Mar 14 2023 16:29:52 GMT-0700 (Pacific Daylight Time)","728115","Untrustworthy,Trustworthy","","null","","","","ratingFB","","trustrating_stim/white_mw063.bmp","null","","","","","","","","","","",""
"image-keyboard-response","9","40560","0.0-6.0-1.2","63153455849b153d56dd81db","bdp_trlrn","Tue Mar 14 2023 16:29:52 GMT-0700 (Pacific Daylight Time)","728115","Untrustworthy,Trustworthy","","1820","","","","rating","","trustrating_stim/white_00299_940422_fa_edt.bmp","4","","","","","","","","","","",""
"image-keyboard-response","10","40770","0.0-6.0-2.2","63153455849b153d56dd81db","bdp_trlrn","Tue Mar 14 2023 16:29:52 GMT-0700 (Pacific Daylight Time)","728115","Untrustworthy,Trustworthy","","null","","","","ratingFB","","trustrating_stim/white_00299_940422_fa_edt.bmp","null","","","","","","","","","","",""
"image-keyboard-response","11","42487","0.0-6.0-1.3","63153455849b153d56dd81db","bdp_trlrn","Tue Mar 14 2023 16:29:52 GMT-0700 (Pacific Daylight Time)","728115","Untrustworthy,Trustworthy","","1597","","","","rating","","trustrating_stim/white_mw097.bmp","2","","","","","","","","","","",""
"image-keyboard-response","12","42697","0.0-6.0-2.3","63153455849b153d56dd81db","bdp_trlrn","Tue Mar 14 2023 16:29:52 GMT-0700 (Pacific Daylight Time)","728115","Untrustworthy,Trustworthy","","null","","","","ratingFB","","trustrating_stim/white_mw097.bmp","null","","","","","","","","","","",""
"image-keyboard-response","13","44447","0.0-6.0-1.4","63153455849b153d56dd81db","bdp_trlrn","Tue Mar 14 2023 16:29:52 GMT-0700 (Pacific Daylight Time)","728115","Untrustworthy,Trustworthy","","1641","","","","rating","","trustrating_stim/white_mw048.bmp","7","","","","","","","","","","",""
"image-keyboard-response","14","44666","0.0-6.0-2.4","63153455849b153d56dd81db","bdp_trlrn","Tue Mar 14 2023 16:29:52 GMT-0700 (Pacific Daylight Time)","728115","Untrustworthy,Trustworthy","","null","","","","ratingFB","","trustrating_stim/white_mw048.bmp","null","","","","","","","","","","",""
"image-keyboard-response","15","47511","0.0-6.0-1.5","63153455849b153d56dd81db","bdp_trlrn","Tue Mar 14 2023 16:29:52 GMT-0700 (Pacific Daylight Time)","728115","Untrustworthy,Trustworthy","","2740","","","","rating","","trustrating_stim/white_mw035.bmp","5","","","","","","","","","","",""
"image-keyboard-response","16","47720","0.0-6.0-2.5","63153455849b153d56dd81db","bdp_trlrn","Tue Mar 14 2023 16:29:52 GMT-0700 (Pacific Daylight Time)","728115","Untrustworthy,Trustworthy","","null","","","","ratingFB","","trustrating_stim/white_mw035.bmp","null","","","","","","","","","","",""
"image-keyboard-response","17","49095","0.0-6.0-1.6","63153455849b153d56dd81db","bdp_trlrn","Tue Mar 14 2023 16:29:52 GMT-0700 (Pacific Daylight Time)","728115","Untrustworthy,Trustworthy","","1269","","","","rating","","trustrating_stim/white_mw071.bmp","6","","","","","","","","","","",""
"image-keyboard-response","18","49314","0.0-6.0-2.6","63153455849b153d56dd81db","bdp_trlrn","Tue Mar 14 2023 16:29:52 GMT-0700 (Pacific Daylight Time)","728115","Untrustworthy,Trustworthy","","null","","","","ratingFB","","trustrating_stim/white_mw071.bmp","null","","","","","","","","","","",""
"image-keyboard-response","19","51383","0.0-6.0-1.7","63153455849b153d56dd81db","bdp_trlrn","Tue Mar 14 2023 16:29:52 GMT-0700 (Pacific Daylight Time)","728115","Untrustworthy,Trustworthy","","1951","","","","rating","","trustrating_stim/white_00519_940519_fb_edt.bmp","7","","","","","","","","","","",""
"image-keyboard-response","20","51595","0.0-6.0-2.7","63153455849b153d56dd81db","bdp_trlrn","Tue Mar 14 2023 16:29:52 GMT-0700 (Pacific Daylight Time)","728115","Untrustworthy,Trustworthy","","null","","","","ratingFB","","trustrating_stim/white_00519_940519_fb_edt.bmp","null","","","","","","","","","","",""
"image-keyboard-response","21","53071","0.0-6.0-1.8","63153455849b153d56dd81db","bdp_trlrn","Tue Mar 14 2023 16:29:52 GMT-0700 (Pacific Daylight Time)","728115","Untrustworthy,Trustworthy","","1361","","","","rating","","trustrating_stim/white_00340_940422_fa_edt.bmp","3","","","","","","","","","","",""
"image-keyboard-response","22","53290","0.0-6.0-2.8","63153455849b153d56dd81db","bdp_trlrn","Tue Mar 14 2023 16:29:52 GMT-0700 (Pacific Daylight Time)","728115","Untrustworthy,Trustworthy","","null","","","","ratingFB","","trustrating_stim/white_00340_940422_fa_edt.bmp","null","","","","","","","","","","",""
"image-keyboard-response","23","55127","0.0-6.0-1.9","63153455849b153d56dd81db","bdp_trlrn","Tue Mar 14 2023 16:29:52 GMT-0700 (Pacific Daylight Time)","728115","Untrustworthy,Trustworthy","","1722","","","","rating","","trustrating_stim/white_00223_940128_fb_edt.bmp","9","","","","","","","","","","",""
"image-keyboard-response","24","55340","0.0-6.0-2.9","63153455849b153d56dd81db","bdp_trlrn","Tue Mar 14 2023 16:29:52 GMT-0700 (Pacific Daylight Time)","728115","Untrustworthy,Trustworthy","","null","","","","ratingFB","","trustrating_stim/white_00223_940128_fb_edt.bmp","null","","","","","","","","","","",""
"image-keyboard-response","25","56831","0.0-6.0-1.10","63153455849b153d56dd81db","bdp_trlrn","Tue Mar 14 2023 16:29:52 GMT-0700 (Pacific Daylight Time)","728115","Untrustworthy,Trustworthy","","1378","","","","rating","","trustrating_stim/white_00761_941201_fb_edt.bmp","6","","","","","","","","","","",""
"image-keyboard-response","26","57040","0.0-6.0-2.10","63153455849b153d56dd81db","bdp_trlrn","Tue Mar 14 2023 16:29:52 GMT-0700 (Pacific Daylight Time)","728115","Untrustworthy,Trustworthy","","null","","","","ratingFB","","trustrating_stim/white_00761_941201_fb_edt.bmp","null","","","","","","","","","","",""
"image-keyboard-response","27","58495","0.0-6.0-1.11","63153455849b153d56dd81db","bdp_trlrn","Tue Mar 14 2023 16:29:52 GMT-0700 (Pacific Daylight Time)","728115","Untrustworthy,Trustworthy","","1343","","","","rating","","trustrating_stim/white_00129_931230_fb_edt.bmp","5","","","","","","","","","","",""
"image-keyboard-response","28","58712","0.0-6.0-2.11","63153455849b153d56dd81db","bdp_trlrn","Tue Mar 14 2023 16:29:52 GMT-0700 (Pacific Daylight Time)","728115","Untrustworthy,Trustworthy","","null","","","","ratingFB","","trustrating_stim/white_00129_931230_fb_edt.bmp","null","","","","","","","","","","",""
"image-keyboard-response","29","59791","0.0-6.0-1.12","63153455849b153d56dd81db","bdp_trlrn","Tue Mar 14 2023 16:29:52 GMT-0700 (Pacific Daylight Time)","728115","Untrustworthy,Trustworthy","","974","","","","rating","","trustrating_stim/white_mw089.bmp","7","","","","","","","","","","",""
"image-keyboard-response","30","60001","0.0-6.0-2.12","63153455849b153d56dd81db","bdp_trlrn","Tue Mar 14 2023 16:29:52 GMT-0700 (Pacific Daylight Time)","728115","Untrustworthy,Trustworthy","","null","","","","ratingFB","","trustrating_stim/white_mw089.bmp","null","","","","","","","","","","",""
"image-keyboard-response","31","61375","0.0-6.0-1.13","63153455849b153d56dd81db","bdp_trlrn","Tue Mar 14 2023 16:29:52 GMT-0700 (Pacific Daylight Time)","728115","Untrustworthy,Trustworthy","","1261","","","","rating","","trustrating_stim/white_00807_941205_fb_edt.bmp","3","","","","","","","","","","",""
"image-keyboard-response","32","61592","0.0-6.0-2.13","63153455849b153d56dd81db","bdp_trlrn","Tue Mar 14 2023 16:29:52 GMT-0700 (Pacific Daylight Time)","728115","Untrustworthy,Trustworthy","","null","","","","ratingFB","","trustrating_stim/white_00807_941205_fb_edt.bmp","null","","","","","","","","","","",""
"image-keyboard-response","33","63087","0.0-6.0-1.14","63153455849b153d56dd81db","bdp_trlrn","Tue Mar 14 2023 16:29:52 GMT-0700 (Pacific Daylight Time)","728115","Untrustworthy,Trustworthy","","1389","","","","rating","","trustrating_stim/white_00577_940928_fa_edt.bmp","7","","","","","","","","","","",""
"image-keyboard-response","34","63299","0.0-6.0-2.14","63153455849b153d56dd81db","bdp_trlrn","Tue Mar 14 2023 16:29:52 GMT-0700 (Pacific Daylight Time)","728115","Untrustworthy,Trustworthy","","null","","","","ratingFB","","trustrating_stim/white_00577_940928_fa_edt.bmp","null","","","","","","","","","","",""
"image-keyboard-response","35","66407","0.0-6.0-1.15","63153455849b153d56dd81db","bdp_trlrn","Tue Mar 14 2023 16:29:52 GMT-0700 (Pacific Daylight Time)","728115","Untrustworthy,Trustworthy","","2990","","","","rating","","trustrating_stim/white_mw049.bmp","7","","","","","","","","","","",""
"image-keyboard-response","36","66617","0.0-6.0-2.15","63153455849b153d56dd81db","bdp_trlrn","Tue Mar 14 2023 16:29:52 GMT-0700 (Pacific Daylight Time)","728115","Untrustworthy,Trustworthy","","null","","","","ratingFB","","trustrating_stim/white_mw049.bmp","null","","","","","","","","","","",""
"image-keyboard-response","37","69071","0.0-6.0-1.16","63153455849b153d56dd81db","bdp_trlrn","Tue Mar 14 2023 16:29:52 GMT-0700 (Pacific Daylight Time)","728115","Untrustworthy,Trustworthy","","2343","","","","rating","","trustrating_stim/white_mw099.bmp","8","","","","","","","","","","",""
"image-keyboard-response","38","69282","0.0-6.0-2.16","63153455849b153d56dd81db","bdp_trlrn","Tue Mar 14 2023 16:29:52 GMT-0700 (Pacific Daylight Time)","728115","Untrustworthy,Trustworthy","","null","","","","ratingFB","","trustrating_stim/white_mw099.bmp","null","","","","","","","","","","",""
"image-keyboard-response","39","70743","0.0-6.0-1.17","63153455849b153d56dd81db","bdp_trlrn","Tue Mar 14 2023 16:29:52 GMT-0700 (Pacific Daylight Time)","728115","Untrustworthy,Trustworthy","","1348","","","","rating","","trustrating_stim/white_00757_941201_fa_edt.bmp","6","","","","","","","","","","",""
"image-keyboard-response","40","70960","0.0-6.0-2.17","63153455849b153d56dd81db","bdp_trlrn","Tue Mar 14 2023 16:29:52 GMT-0700 (Pacific Daylight Time)","728115","Untrustworthy,Trustworthy","","null","","","","ratingFB","","trustrating_stim/white_00757_941201_fa_edt.bmp","null","","","","","","","","","","",""
"image-keyboard-response","41","108101","0.0-6.0-1.18","63153455849b153d56dd81db","bdp_trlrn","Tue Mar 14 2023 16:29:52 GMT-0700 (Pacific Daylight Time)","728115","Untrustworthy,Trustworthy","","37028","","","","rating","","trustrating_stim/white_mw046.bmp","7","","","","","","","","","","",""
"image-keyboard-response","42","108313","0.0-6.0-2.18","63153455849b153d56dd81db","bdp_trlrn","Tue Mar 14 2023 16:29:52 GMT-0700 (Pacific Daylight Time)","728115","Untrustworthy,Trustworthy","","null","","","","ratingFB","","trustrating_stim/white_mw046.bmp","null","","","","","","","","","","",""
"image-keyboard-response","43","109164","0.0-6.0-1.19","63153455849b153d56dd81db","bdp_trlrn","Tue Mar 14 2023 16:29:52 GMT-0700 (Pacific Daylight Time)","728115","Untrustworthy,Trustworthy","","745","","","","rating","","trustrating_stim/white_mw056.bmp","6","","","","","","","","","","",""
"image-keyboard-response","44","109376","0.0-6.0-2.19","63153455849b153d56dd81db","bdp_trlrn","Tue Mar 14 2023 16:29:52 GMT-0700 (Pacific Daylight Time)","728115","Untrustworthy,Trustworthy","","null","","","","ratingFB","","trustrating_stim/white_mw056.bmp","null","","","","","","","","","","",""
"image-keyboard-response","45","111644","0.0-6.0-1.20","63153455849b153d56dd81db","bdp_trlrn","Tue Mar 14 2023 16:29:52 GMT-0700 (Pacific Daylight Time)","728115","Untrustworthy,Trustworthy","","2158","","","","rating","","trustrating_stim/white_00602_940928_fb_edt.bmp","8","","","","","","","","","","",""
"image-keyboard-response","46","111856","0.0-6.0-2.20","63153455849b153d56dd81db","bdp_trlrn","Tue Mar 14 2023 16:29:52 GMT-0700 (Pacific Daylight Time)","728115","Untrustworthy,Trustworthy","","null","","","","ratingFB","","trustrating_stim/white_00602_940928_fb_edt.bmp","null","","","","","","","","","","",""
"image-keyboard-response","47","114132","0.0-6.0-1.21","63153455849b153d56dd81db","bdp_trlrn","Tue Mar 14 2023 16:29:52 GMT-0700 (Pacific Daylight Time)","728115","Untrustworthy,Trustworthy","","2166","","","","rating","","trustrating_stim/white_mw060.bmp","6","","","","","","","","","","",""
"image-keyboard-response","48","114344","0.0-6.0-2.21","63153455849b153d56dd81db","bdp_trlrn","Tue Mar 14 2023 16:29:52 GMT-0700 (Pacific Daylight Time)","728115","Untrustworthy,Trustworthy","","null","","","","ratingFB","","trustrating_stim/white_mw060.bmp","null","","","","","","","","","","",""
"image-keyboard-response","49","116140","0.0-6.0-1.22","63153455849b153d56dd81db","bdp_trlrn","Tue Mar 14 2023 16:29:52 GMT-0700 (Pacific Daylight Time)","728115","Untrustworthy,Trustworthy","","1689","","","","rating","","trustrating_stim/white_00109_931230_fa_edt.bmp","9","","","","","","","","","","",""
"image-keyboard-response","50","116353","0.0-6.0-2.22","63153455849b153d56dd81db","bdp_trlrn","Tue Mar 14 2023 16:29:52 GMT-0700 (Pacific Daylight Time)","728115","Untrustworthy,Trustworthy","","null","","","","ratingFB","","trustrating_stim/white_00109_931230_fa_edt.bmp","null","","","","","","","","","","",""
"image-keyboard-response","51","117500","0.0-6.0-1.23","63153455849b153d56dd81db","bdp_trlrn","Tue Mar 14 2023 16:29:52 GMT-0700 (Pacific Daylight Time)","728115","Untrustworthy,Trustworthy","","1026","","","","rating","","trustrating_stim/white_mw053.bmp","9","","","","","","","","","","",""
"image-keyboard-response","52","117707","0.0-6.0-2.23","63153455849b153d56dd81db","bdp_trlrn","Tue Mar 14 2023 16:29:52 GMT-0700 (Pacific Daylight Time)","728115","Untrustworthy,Trustworthy","","null","","","","ratingFB","","trustrating_stim/white_mw053.bmp","null","","","","","","","","","","",""
"image-keyboard-response","53","119292","0.0-6.0-1.24","63153455849b153d56dd81db","bdp_trlrn","Tue Mar 14 2023 16:29:52 GMT-0700 (Pacific Daylight Time)","728115","Untrustworthy,Trustworthy","","1476","","","","rating","","trustrating_stim/white_00120_931230_fa_edt.bmp","7","","","","","","","","","","",""
"image-keyboard-response","54","119498","0.0-6.0-2.24","63153455849b153d56dd81db","bdp_trlrn","Tue Mar 14 2023 16:29:52 GMT-0700 (Pacific Daylight Time)","728115","Untrustworthy,Trustworthy","","null","","","","ratingFB","","trustrating_stim/white_00120_931230_fa_edt.bmp","null","","","","","","","","","","",""
"image-keyboard-response","55","120924","0.0-6.0-1.25","63153455849b153d56dd81db","bdp_trlrn","Tue Mar 14 2023 16:29:52 GMT-0700 (Pacific Daylight Time)","728115","Untrustworthy,Trustworthy","","1310","","","","rating","","trustrating_stim/white_00659_941121_fa_edt.bmp","6","","","","","","","","","","",""
"image-keyboard-response","56","121129","0.0-6.0-2.25","63153455849b153d56dd81db","bdp_trlrn","Tue Mar 14 2023 16:29:52 GMT-0700 (Pacific Daylight Time)","728115","Untrustworthy,Trustworthy","","null","","","","ratingFB","","trustrating_stim/white_00659_941121_fa_edt.bmp","null","","","","","","","","","","",""
"image-keyboard-response","57","126756","0.0-6.0-1.26","63153455849b153d56dd81db","bdp_trlrn","Tue Mar 14 2023 16:29:52 GMT-0700 (Pacific Daylight Time)","728115","Untrustworthy,Trustworthy","","5513","","","","rating","","trustrating_stim/white_00898_960530_fa_edt.bmp","4","","","","","","","","","","",""
"image-keyboard-response","58","126967","0.0-6.0-2.26","63153455849b153d56dd81db","bdp_trlrn","Tue Mar 14 2023 16:29:52 GMT-0700 (Pacific Daylight Time)","728115","Untrustworthy,Trustworthy","","null","","","","ratingFB","","trustrating_stim/white_00898_960530_fa_edt.bmp","null","","","","","","","","","","",""
"image-keyboard-response","59","128444","0.0-6.0-1.27","63153455849b153d56dd81db","bdp_trlrn","Tue Mar 14 2023 16:29:52 GMT-0700 (Pacific Daylight Time)","728115","Untrustworthy,Trustworthy","","1371","","","","rating","","trustrating_stim/white_00785_941205_fb_edt.bmp","6","","","","","","","","","","",""
"image-keyboard-response","60","128652","0.0-6.0-2.27","63153455849b153d56dd81db","bdp_trlrn","Tue Mar 14 2023 16:29:52 GMT-0700 (Pacific Daylight Time)","728115","Untrustworthy,Trustworthy","","null","","","","ratingFB","","trustrating_stim/white_00785_941205_fb_edt.bmp","null","","","","","","","","","","",""
"image-keyboard-response","61","135317","0.0-6.0-1.28","63153455849b153d56dd81db","bdp_trlrn","Tue Mar 14 2023 16:29:52 GMT-0700 (Pacific Daylight Time)","728115","Untrustworthy,Trustworthy","","6550","","","","rating","","trustrating_stim/white_mw066.bmp","8","","","","","","","","","","",""
"image-keyboard-response","62","135528","0.0-6.0-2.28","63153455849b153d56dd81db","bdp_trlrn","Tue Mar 14 2023 16:29:52 GMT-0700 (Pacific Daylight Time)","728115","Untrustworthy,Trustworthy","","null","","","","ratingFB","","trustrating_stim/white_mw066.bmp","null","","","","","","","","","","",""
"image-keyboard-response","63","154994","0.0-6.0-1.29","63153455849b153d56dd81db","bdp_trlrn","Tue Mar 14 2023 16:29:52 GMT-0700 (Pacific Daylight Time)","728115","Untrustworthy,Trustworthy","","19354","","","","rating","","trustrating_stim/white_mw033.bmp","6","","","","","","","","","","",""
"image-keyboard-response","64","155212","0.0-6.0-2.29","63153455849b153d56dd81db","bdp_trlrn","Tue Mar 14 2023 16:29:52 GMT-0700 (Pacific Daylight Time)","728115","Untrustworthy,Trustworthy","","null","","","","ratingFB","","trustrating_stim/white_mw033.bmp","null","","","","","","","","","","",""
"image-keyboard-response","65","158194","0.0-6.0-1.30","63153455849b153d56dd81db","bdp_trlrn","Tue Mar 14 2023 16:29:52 GMT-0700 (Pacific Daylight Time)","728115","Untrustworthy,Trustworthy","","2869","","","","rating","","trustrating_stim/white_mw084.bmp","8","","","","","","","","","","",""
"image-keyboard-response","66","158403","0.0-6.0-2.30","63153455849b153d56dd81db","bdp_trlrn","Tue Mar 14 2023 16:29:52 GMT-0700 (Pacific Daylight Time)","728115","Untrustworthy,Trustworthy","","null","","","","ratingFB","","trustrating_stim/white_mw084.bmp","null","","","","","","","","","","",""
"image-keyboard-response","67","159618","0.0-6.0-1.31","63153455849b153d56dd81db","bdp_trlrn","Tue Mar 14 2023 16:29:52 GMT-0700 (Pacific Daylight Time)","728115","Untrustworthy,Trustworthy","","1100","","","","rating","","trustrating_stim/white_mw046.bmp","4","","","","","","","","","","",""
"image-keyboard-response","68","159824","0.0-6.0-2.31","63153455849b153d56dd81db","bdp_trlrn","Tue Mar 14 2023 16:29:52 GMT-0700 (Pacific Daylight Time)","728115","Untrustworthy,Trustworthy","","null","","","","ratingFB","","trustrating_stim/white_mw046.bmp","null","","","","","","","","","","",""
"image-keyboard-response","69","161010","0.0-6.0-1.32","63153455849b153d56dd81db","bdp_trlrn","Tue Mar 14 2023 16:29:52 GMT-0700 (Pacific Daylight Time)","728115","Untrustworthy,Trustworthy","","1080","","","","rating","","trustrating_stim/white_mw089.bmp","7","","","","","","","","","","",""
"image-keyboard-response","70","161216","0.0-6.0-2.32","63153455849b153d56dd81db","bdp_trlrn","Tue Mar 14 2023 16:29:52 GMT-0700 (Pacific Daylight Time)","728115","Untrustworthy,Trustworthy","","null","","","","ratingFB","","trustrating_stim/white_mw089.bmp","null","","","","","","","","","","",""
"image-keyboard-response","71","162474","0.0-6.0-1.33","63153455849b153d56dd81db","bdp_trlrn","Tue Mar 14 2023 16:29:52 GMT-0700 (Pacific Daylight Time)","728115","Untrustworthy,Trustworthy","","1152","","","","rating","","trustrating_stim/white_mw097.bmp","5","","","","","","","","","","",""
"image-keyboard-response","72","162688","0.0-6.0-2.33","63153455849b153d56dd81db","bdp_trlrn","Tue Mar 14 2023 16:29:52 GMT-0700 (Pacific Daylight Time)","728115","Untrustworthy,Trustworthy","","null","","","","ratingFB","","trustrating_stim/white_mw097.bmp","null","","","","","","","","","","",""
"image-keyboard-response","73","164690","0.0-6.0-1.34","63153455849b153d56dd81db","bdp_trlrn","Tue Mar 14 2023 16:29:52 GMT-0700 (Pacific Daylight Time)","728115","Untrustworthy,Trustworthy","","1888","","","","rating","","trustrating_stim/white_00299_940422_fa_edt.bmp","3","","","","","","","","","","",""
"image-keyboard-response","74","164903","0.0-6.0-2.34","63153455849b153d56dd81db","bdp_trlrn","Tue Mar 14 2023 16:29:52 GMT-0700 (Pacific Daylight Time)","728115","Untrustworthy,Trustworthy","","null","","","","ratingFB","","trustrating_stim/white_00299_940422_fa_edt.bmp","null","","","","","","","","","","",""
"image-keyboard-response","75","166466","0.0-6.0-1.35","63153455849b153d56dd81db","bdp_trlrn","Tue Mar 14 2023 16:29:52 GMT-0700 (Pacific Daylight Time)","728115","Untrustworthy,Trustworthy","","1452","","","","rating","","trustrating_stim/white_00785_941205_fb_edt.bmp","5","","","","","","","","","","",""
"image-keyboard-response","76","166681","0.0-6.0-2.35","63153455849b153d56dd81db","bdp_trlrn","Tue Mar 14 2023 16:29:52 GMT-0700 (Pacific Daylight Time)","728115","Untrustworthy,Trustworthy","","null","","","","ratingFB","","trustrating_stim/white_00785_941205_fb_edt.bmp","null","","","","","","","","","","",""
"image-keyboard-response","77","167601","0.0-6.0-1.36","63153455849b153d56dd81db","bdp_trlrn","Tue Mar 14 2023 16:29:52 GMT-0700 (Pacific Daylight Time)","728115","Untrustworthy,Trustworthy","","800","","","","rating","","trustrating_stim/white_mw071.bmp","8","","","","","","","","","","",""
"image-keyboard-response","78","167811","0.0-6.0-2.36","63153455849b153d56dd81db","bdp_trlrn","Tue Mar 14 2023 16:29:52 GMT-0700 (Pacific Daylight Time)","728115","Untrustworthy,Trustworthy","","null","","","","ratingFB","","trustrating_stim/white_mw071.bmp","null","","","","","","","","","","",""
"image-keyboard-response","79","168465","0.0-6.0-1.37","63153455849b153d56dd81db","bdp_trlrn","Tue Mar 14 2023 16:29:52 GMT-0700 (Pacific Daylight Time)","728115","Untrustworthy,Trustworthy","","541","","","","rating","","trustrating_stim/white_mw053.bmp","4","","","","","","","","","","",""
"image-keyboard-response","80","168680","0.0-6.0-2.37","63153455849b153d56dd81db","bdp_trlrn","Tue Mar 14 2023 16:29:52 GMT-0700 (Pacific Daylight Time)","728115","Untrustworthy,Trustworthy","","null","","","","ratingFB","","trustrating_stim/white_mw053.bmp","null","","","","","","","","","","",""
"image-keyboard-response","81","168833","0.0-6.0-1.38","63153455849b153d56dd81db","bdp_trlrn","Tue Mar 14 2023 16:29:52 GMT-0700 (Pacific Daylight Time)","728115","Untrustworthy,Trustworthy","","39","","","","rating","","trustrating_stim/white_00340_940422_fa_edt.bmp","4","","","","","","","","","","",""
"image-keyboard-response","82","169049","0.0-6.0-2.38","63153455849b153d56dd81db","bdp_trlrn","Tue Mar 14 2023 16:29:52 GMT-0700 (Pacific Daylight Time)","728115","Untrustworthy,Trustworthy","","null","","","","ratingFB","","trustrating_stim/white_00340_940422_fa_edt.bmp","null","","","","","","","","","","",""
"image-keyboard-response","83","169617","0.0-6.0-1.39","63153455849b153d56dd81db","bdp_trlrn","Tue Mar 14 2023 16:29:52 GMT-0700 (Pacific Daylight Time)","728115","Untrustworthy,Trustworthy","","447","","","","rating","","trustrating_stim/white_mw063.bmp","7","","","","","","","","","","",""
"image-keyboard-response","84","169824","0.0-6.0-2.39","63153455849b153d56dd81db","bdp_trlrn","Tue Mar 14 2023 16:29:52 GMT-0700 (Pacific Daylight Time)","728115","Untrustworthy,Trustworthy","","null","","","","ratingFB","","trustrating_stim/white_mw063.bmp","null","","","","","","","","","","",""
"image-keyboard-response","85","170553","0.0-6.0-1.40","63153455849b153d56dd81db","bdp_trlrn","Tue Mar 14 2023 16:29:52 GMT-0700 (Pacific Daylight Time)","728115","Untrustworthy,Trustworthy","","609","","","","rating","","trustrating_stim/white_mw056.bmp","9","","","","","","","","","","",""
"image-keyboard-response","86","170761","0.0-6.0-2.40","63153455849b153d56dd81db","bdp_trlrn","Tue Mar 14 2023 16:29:52 GMT-0700 (Pacific Daylight Time)","728115","Untrustworthy,Trustworthy","","null","","","","ratingFB","","trustrating_stim/white_mw056.bmp","null","","","","","","","","","","",""
"image-keyboard-response","87","171265","0.0-6.0-1.41","63153455849b153d56dd81db","bdp_trlrn","Tue Mar 14 2023 16:29:52 GMT-0700 (Pacific Daylight Time)","728115","Untrustworthy,Trustworthy","","383","","","","rating","","trustrating_stim/white_00109_931230_fa_edt.bmp","6","","","","","","","","","","",""
"image-keyboard-response","88","171478","0.0-6.0-2.41","63153455849b153d56dd81db","bdp_trlrn","Tue Mar 14 2023 16:29:52 GMT-0700 (Pacific Daylight Time)","728115","Untrustworthy,Trustworthy","","null","","","","ratingFB","","trustrating_stim/white_00109_931230_fa_edt.bmp","null","","","","","","","","","","",""
"image-keyboard-response","89","173369","0.0-6.0-1.42","63153455849b153d56dd81db","bdp_trlrn","Tue Mar 14 2023 16:29:52 GMT-0700 (Pacific Daylight Time)","728115","Untrustworthy,Trustworthy","","1776","","","","rating","","trustrating_stim/white_00120_931230_fa_edt.bmp","4","","","","","","","","","","",""
"image-keyboard-response","90","173581","0.0-6.0-2.42","63153455849b153d56dd81db","bdp_trlrn","Tue Mar 14 2023 16:29:52 GMT-0700 (Pacific Daylight Time)","728115","Untrustworthy,Trustworthy","","null","","","","ratingFB","","trustrating_stim/white_00120_931230_fa_edt.bmp","null","","","","","","","","","","",""
"image-keyboard-response","91","174777","0.0-6.0-1.43","63153455849b153d56dd81db","bdp_trlrn","Tue Mar 14 2023 16:29:52 GMT-0700 (Pacific Daylight Time)","728115","Untrustworthy,Trustworthy","","1085","","","","rating","","trustrating_stim/white_mw049.bmp","8","","","","","","","","","","",""
"image-keyboard-response","92","174984","0.0-6.0-2.43","63153455849b153d56dd81db","bdp_trlrn","Tue Mar 14 2023 16:29:52 GMT-0700 (Pacific Daylight Time)","728115","Untrustworthy,Trustworthy","","null","","","","ratingFB","","trustrating_stim/white_mw049.bmp","null","","","","","","","","","","",""
"image-keyboard-response","93","178289","0.0-6.0-1.44","63153455849b153d56dd81db","bdp_trlrn","Tue Mar 14 2023 16:29:52 GMT-0700 (Pacific Daylight Time)","728115","Untrustworthy,Trustworthy","","3192","","","","rating","","trustrating_stim/white_00757_941201_fa_edt.bmp","8","","","","","","","","","","",""
"image-keyboard-response","94","178501","0.0-6.0-2.44","63153455849b153d56dd81db","bdp_trlrn","Tue Mar 14 2023 16:29:52 GMT-0700 (Pacific Daylight Time)","728115","Untrustworthy,Trustworthy","","null","","","","ratingFB","","trustrating_stim/white_00757_941201_fa_edt.bmp","null","","","","","","","","","","",""
"image-keyboard-response","95","179321","0.0-6.0-1.45","63153455849b153d56dd81db","bdp_trlrn","Tue Mar 14 2023 16:29:52 GMT-0700 (Pacific Daylight Time)","728115","Untrustworthy,Trustworthy","","704","","","","rating","","trustrating_stim/white_00898_960530_fa_edt.bmp","6","","","","","","","","","","",""
"image-keyboard-response","96","179533","0.0-6.0-2.45","63153455849b153d56dd81db","bdp_trlrn","Tue Mar 14 2023 16:29:52 GMT-0700 (Pacific Daylight Time)","728115","Untrustworthy,Trustworthy","","null","","","","ratingFB","","trustrating_stim/white_00898_960530_fa_edt.bmp","null","","","","","","","","","","",""
"image-keyboard-response","97","180537","0.0-6.0-1.46","63153455849b153d56dd81db","bdp_trlrn","Tue Mar 14 2023 16:29:52 GMT-0700 (Pacific Daylight Time)","728115","Untrustworthy,Trustworthy","","895","","","","rating","","trustrating_stim/white_00602_940928_fb_edt.bmp","5","","","","","","","","","","",""
"image-keyboard-response","98","180746","0.0-6.0-2.46","63153455849b153d56dd81db","bdp_trlrn","Tue Mar 14 2023 16:29:52 GMT-0700 (Pacific Daylight Time)","728115","Untrustworthy,Trustworthy","","null","","","","ratingFB","","trustrating_stim/white_00602_940928_fb_edt.bmp","null","","","","","","","","","","",""
"image-keyboard-response","99","181241","0.0-6.0-1.47","63153455849b153d56dd81db","bdp_trlrn","Tue Mar 14 2023 16:29:52 GMT-0700 (Pacific Daylight Time)","728115","Untrustworthy,Trustworthy","","385","","","","rating","","trustrating_stim/white_00519_940519_fb_edt.bmp","4","","","","","","","","","","",""
"image-keyboard-response","100","181450","0.0-6.0-2.47","63153455849b153d56dd81db","bdp_trlrn","Tue Mar 14 2023 16:29:52 GMT-0700 (Pacific Daylight Time)","728115","Untrustworthy,Trustworthy","","null","","","","ratingFB","","trustrating_stim/white_00519_940519_fb_edt.bmp","null","","","","","","","","","","",""
"image-keyboard-response","101","182450","0.0-6.0-1.48","63153455849b153d56dd81db","bdp_trlrn","Tue Mar 14 2023 16:29:52 GMT-0700 (Pacific Daylight Time)","728115","Untrustworthy,Trustworthy","","883","","","","rating","","trustrating_stim/white_mw048.bmp","3","","","","","","","","","","",""
"image-keyboard-response","102","182657","0.0-6.0-2.48","63153455849b153d56dd81db","bdp_trlrn","Tue Mar 14 2023 16:29:52 GMT-0700 (Pacific Daylight Time)","728115","Untrustworthy,Trustworthy","","null","","","","ratingFB","","trustrating_stim/white_mw048.bmp","null","","","","","","","","","","",""
"image-keyboard-response","103","183641","0.0-6.0-1.49","63153455849b153d56dd81db","bdp_trlrn","Tue Mar 14 2023 16:29:52 GMT-0700 (Pacific Daylight Time)","728115","Untrustworthy,Trustworthy","","865","","","","rating","","trustrating_stim/white_00129_931230_fb_edt.bmp","7","","","","","","","","","","",""
"image-keyboard-response","104","183852","0.0-6.0-2.49","63153455849b153d56dd81db","bdp_trlrn","Tue Mar 14 2023 16:29:52 GMT-0700 (Pacific Daylight Time)","728115","Untrustworthy,Trustworthy","","null","","","","ratingFB","","trustrating_stim/white_00129_931230_fb_edt.bmp","null","","","","","","","","","","",""
"image-keyboard-response","105","184505","0.0-6.0-1.50","63153455849b153d56dd81db","bdp_trlrn","Tue Mar 14 2023 16:29:52 GMT-0700 (Pacific Daylight Time)","728115","Untrustworthy,Trustworthy","","530","","","","rating","","trustrating_stim/white_00223_940128_fb_edt.bmp","9","","","","","","","","","","",""
"image-keyboard-response","106","184715","0.0-6.0-2.50","63153455849b153d56dd81db","bdp_trlrn","Tue Mar 14 2023 16:29:52 GMT-0700 (Pacific Daylight Time)","728115","Untrustworthy,Trustworthy","","null","","","","ratingFB","","trustrating_stim/white_00223_940128_fb_edt.bmp","null","","","","","","","","","","",""
"image-keyboard-response","107","186418","0.0-6.0-1.51","63153455849b153d56dd81db","bdp_trlrn","Tue Mar 14 2023 16:29:52 GMT-0700 (Pacific Daylight Time)","728115","Untrustworthy,Trustworthy","","1580","","","","rating","","trustrating_stim/white_00659_941121_fa_edt.bmp","4","","","","","","","","","","",""
"image-keyboard-response","108","186624","0.0-6.0-2.51","63153455849b153d56dd81db","bdp_trlrn","Tue Mar 14 2023 16:29:52 GMT-0700 (Pacific Daylight Time)","728115","Untrustworthy,Trustworthy","","null","","","","ratingFB","","trustrating_stim/white_00659_941121_fa_edt.bmp","null","","","","","","","","","","",""
"image-keyboard-response","109","187625","0.0-6.0-1.52","63153455849b153d56dd81db","bdp_trlrn","Tue Mar 14 2023 16:29:52 GMT-0700 (Pacific Daylight Time)","728115","Untrustworthy,Trustworthy","","885","","","","rating","","trustrating_stim/white_00577_940928_fa_edt.bmp","4","","","","","","","","","","",""
"image-keyboard-response","110","187836","0.0-6.0-2.52","63153455849b153d56dd81db","bdp_trlrn","Tue Mar 14 2023 16:29:52 GMT-0700 (Pacific Daylight Time)","728115","Untrustworthy,Trustworthy","","null","","","","ratingFB","","trustrating_stim/white_00577_940928_fa_edt.bmp","null","","","","","","","","","","",""
"image-keyboard-response","111","193282","0.0-6.0-1.53","63153455849b153d56dd81db","bdp_trlrn","Tue Mar 14 2023 16:29:52 GMT-0700 (Pacific Daylight Time)","728115","Untrustworthy,Trustworthy","","5328","","","","rating","","trustrating_stim/white_mw066.bmp","4","","","","","","","","","","",""
"image-keyboard-response","112","193490","0.0-6.0-2.53","63153455849b153d56dd81db","bdp_trlrn","Tue Mar 14 2023 16:29:52 GMT-0700 (Pacific Daylight Time)","728115","Untrustworthy,Trustworthy","","null","","","","ratingFB","","trustrating_stim/white_mw066.bmp","null","","","","","","","","","","",""
"image-keyboard-response","113","196218","0.0-6.0-1.54","63153455849b153d56dd81db","bdp_trlrn","Tue Mar 14 2023 16:29:52 GMT-0700 (Pacific Daylight Time)","728115","Untrustworthy,Trustworthy","","2608","","","","rating","","trustrating_stim/white_00761_941201_fb_edt.bmp","7","","","","","","","","","","",""
"image-keyboard-response","114","196434","0.0-6.0-2.54","63153455849b153d56dd81db","bdp_trlrn","Tue Mar 14 2023 16:29:52 GMT-0700 (Pacific Daylight Time)","728115","Untrustworthy,Trustworthy","","null","","","","ratingFB","","trustrating_stim/white_00761_941201_fb_edt.bmp","null","","","","","","","","","","",""
"image-keyboard-response","115","198065","0.0-6.0-1.55","63153455849b153d56dd81db","bdp_trlrn","Tue Mar 14 2023 16:29:52 GMT-0700 (Pacific Daylight Time)","728115","Untrustworthy,Trustworthy","","1511","","","","rating","","trustrating_stim/white_mw033.bmp","8","","","","","","","","","","",""
"image-keyboard-response","116","198283","0.0-6.0-2.55","63153455849b153d56dd81db","bdp_trlrn","Tue Mar 14 2023 16:29:52 GMT-0700 (Pacific Daylight Time)","728115","Untrustworthy,Trustworthy","","null","","","","ratingFB","","trustrating_stim/white_mw033.bmp","null","","","","","","","","","","",""
"image-keyboard-response","117","200017","0.0-6.0-1.56","63153455849b153d56dd81db","bdp_trlrn","Tue Mar 14 2023 16:29:52 GMT-0700 (Pacific Daylight Time)","728115","Untrustworthy,Trustworthy","","1621","","","","rating","","trustrating_stim/white_mw035.bmp","4","","","","","","","","","","",""
"image-keyboard-response","118","200234","0.0-6.0-2.56","63153455849b153d56dd81db","bdp_trlrn","Tue Mar 14 2023 16:29:52 GMT-0700 (Pacific Daylight Time)","728115","Untrustworthy,Trustworthy","","null","","","","ratingFB","","trustrating_stim/white_mw035.bmp","null","","","","","","","","","","",""
"image-keyboard-response","119","201794","0.0-6.0-1.57","63153455849b153d56dd81db","bdp_trlrn","Tue Mar 14 2023 16:29:52 GMT-0700 (Pacific Daylight Time)","728115","Untrustworthy,Trustworthy","","1447","","","","rating","","trustrating_stim/white_mw060.bmp","2","","","","","","","","","","",""
"image-keyboard-response","120","202007","0.0-6.0-2.57","63153455849b153d56dd81db","bdp_trlrn","Tue Mar 14 2023 16:29:52 GMT-0700 (Pacific Daylight Time)","728115","Untrustworthy,Trustworthy","","null","","","","ratingFB","","trustrating_stim/white_mw060.bmp","null","","","","","","","","","","",""
"image-keyboard-response","121","203281","0.0-6.0-1.58","63153455849b153d56dd81db","bdp_trlrn","Tue Mar 14 2023 16:29:52 GMT-0700 (Pacific Daylight Time)","728115","Untrustworthy,Trustworthy","","1151","","","","rating","","trustrating_stim/white_00807_941205_fb_edt.bmp","3","","","","","","","","","","",""
"image-keyboard-response","122","203488","0.0-6.0-2.58","63153455849b153d56dd81db","bdp_trlrn","Tue Mar 14 2023 16:29:52 GMT-0700 (Pacific Daylight Time)","728115","Untrustworthy,Trustworthy","","null","","","","ratingFB","","trustrating_stim/white_00807_941205_fb_edt.bmp","null","","","","","","","","","","",""
"image-keyboard-response","123","206154","0.0-6.0-1.59","63153455849b153d56dd81db","bdp_trlrn","Tue Mar 14 2023 16:29:52 GMT-0700 (Pacific Daylight Time)","728115","Untrustworthy,Trustworthy","","2546","","","","rating","","trustrating_stim/white_mw099.bmp","5","","","","","","","","","","",""
"image-keyboard-response","124","206369","0.0-6.0-2.59","63153455849b153d56dd81db","bdp_trlrn","Tue Mar 14 2023 16:29:52 GMT-0700 (Pacific Daylight Time)","728115","Untrustworthy,Trustworthy","","null","","","","ratingFB","","trustrating_stim/white_mw099.bmp","null","","","","","","","","","","",""
"instructions","125","208073","0.0-7.0","63153455849b153d56dd81db","bdp_trlrn","Tue Mar 14 2023 16:29:52 GMT-0700 (Pacific Daylight Time)","728115","Untrustworthy,Trustworthy","[{""page_index"":0,""viewing_time"":1587}]","1587","","","","","","","","","","","","","","","","","",""
"instructions","126","389229","0.0-8.0","63153455849b153d56dd81db","bdp_trlrn","Tue Mar 14 2023 16:29:52 GMT-0700 (Pacific Daylight Time)","728115","Untrustworthy,Trustworthy","[{""page_index"":0,""viewing_time"":154651},{""page_index"":1,""viewing_time"":5543},{""page_index"":2,""viewing_time"":3953},{""page_index"":3,""viewing_time"":2568},{""page_index"":4,""viewing_time"":1311},{""page_index"":5,""viewing_time"":1416},{""page_index"":6,""viewing_time"":3896},{""page_index"":7,""viewing_time"":7705}]","181044","","","","","","","","","","","","","","","","","",""
"html-keyboard-response","127","399193","0.0-9.0","63153455849b153d56dd81db","bdp_trlrn","Tue Mar 14 2023 16:29:52 GMT-0700 (Pacific Daylight Time)","728115","Untrustworthy,Trustworthy","","9961","","","","","","<div class='header' style='text-align:left; position: absolute; top: 5%; left: 5%;'><small>Task 3 of 5</small></div><div class='instruxDiv'><p><strong>1) What is the minimum number of points you can choose to send to your partner?</strong></p><p>a) 0</p><p>b) 1</p><p>c) 5</p>","B","","","","","","","","","","",""
"html-keyboard-response","128","400937","0.0-10.0","63153455849b153d56dd81db","bdp_trlrn","Tue Mar 14 2023 16:29:52 GMT-0700 (Pacific Daylight Time)","728115","Untrustworthy,Trustworthy","","1638","","","","","","<div class='header' style='text-align:left; position: absolute; top: 5%; left: 5%;'><small>Task 3 of 5</small></div><div class='instruxDiv'><p><strong>1) What is the minimum number of points you can choose to send to your partner?</strong></p><p>a) 0</p><p style='color:#00FF00'>b) 1</p><p>c) 5</p><h3 style='color:#00FF00'>Correct!</h3><h3 class='center-content'>The correct response is b).</h3><h3 class='center-content'>The minimum number of points you can choose to send to your partner is 1 point.</h3><p><em>Press SPACEBAR to continue</em></p></div>"," ","","","","","","","","","","",""
"html-keyboard-response","129","405080","0.0-11.0","63153455849b153d56dd81db","bdp_trlrn","Tue Mar 14 2023 16:29:52 GMT-0700 (Pacific Daylight Time)","728115","Untrustworthy,Trustworthy","","4036","","","","","","<div class='header' style='text-align:left; position: absolute; top: 5%; left: 5%;'><small>Task 3 of 5</small></div><div class='instruxDiv'><p><strong>2) What is the maximum number of points you can choose to send to your partner?</strong></p><p>a) 8</p><p>b) 5</p><p>c) 3</p>","A","","","","","","","","","","",""
"html-keyboard-response","130","408761","0.0-12.0","63153455849b153d56dd81db","bdp_trlrn","Tue Mar 14 2023 16:29:52 GMT-0700 (Pacific Daylight Time)","728115","Untrustworthy,Trustworthy","","3565","","","","","","<div class='header' style='text-align:left; position: absolute; top: 5%; left: 5%;'><small>Task 3 of 5</small></div><div class='instruxDiv'><p><strong>2) What is the maximum number of points you can choose to send to your partner?</strong></p><p style='color:#FF0000'>a) 8</p><p>b) 5</p><p>c) 3</p><h3 style='color:#FF0000'>Incorrect!</h3><h3 class='center-content'>The correct response is b).</h3><h3 class='center-content'>The maximum number of points you can choose to send to your partner is 5 points.</h3><p><em>Press SPACEBAR to continue</em></p></div>"," ","","","","","","","","","","",""
"html-keyboard-response","131","418313","0.0-13.0","63153455849b153d56dd81db","bdp_trlrn","Tue Mar 14 2023 16:29:52 GMT-0700 (Pacific Daylight Time)","728115","Untrustworthy,Trustworthy","","9444","","","","","","<div class='header' style='text-align:left; position: absolute; top: 5%; left: 5%;'><small>Task 3 of 5</small></div><div class='instruxDiv'><p><strong>3) What happens to the amount of points you send to your partner?</strong></p><p>a) Nothing</p><p>b) It doubles</p><p>c) It quadruples</p>","A","","","","","","","","","","",""
"html-keyboard-response","132","423113","0.0-14.0","63153455849b153d56dd81db","bdp_trlrn","Tue Mar 14 2023 16:29:52 GMT-0700 (Pacific Daylight Time)","728115","Untrustworthy,Trustworthy","","4690","","","","","","<div class='header' style='text-align:left; position: absolute; top: 5%; left: 5%;'><small>Task 3 of 5</small></div><div class='instruxDiv'><p><strong>3) What happens to the amount of points you send to your partner?</strong></p><p style='color:#FF0000'>a) Nothing</p><p>b) It doubles</p><p>c) It quadruples</p><h3 style='color:#FF0000'>Incorrect!</h3><h3 class='center-content'>The correct response is c).</h3><h3 class='center-content'>The amount of points you send to your partner quadruples.</h3><p><em>Press SPACEBAR to continue</em></p></div>"," ","","","","","","","","","","",""
"html-keyboard-response","133","426328","0.0-15.0","63153455849b153d56dd81db","bdp_trlrn","Tue Mar 14 2023 16:29:52 GMT-0700 (Pacific Daylight Time)","728115","Untrustworthy,Trustworthy","","3106","","","","","","<div class='header' style='text-align:left; position: absolute; top: 5%; left: 5%;'><small>Task 3 of 5</small></div><div class='instruxDiv'><p><strong>4) If you decided to share 4 out of 5 points with your partner, and they decided to share half of the amount they received with you, how many points would you receive back from them on this round?</strong></p><p>a) 16</p><p>b) 0</p><p>c) 8</p>","C","","","","","","","","","","",""
"html-keyboard-response","134","427673","0.0-16.0","63153455849b153d56dd81db","bdp_trlrn","Tue Mar 14 2023 16:29:52 GMT-0700 (Pacific Daylight Time)","728115","Untrustworthy,Trustworthy","","1238","","","","","","<div class='header' style='text-align:left; position: absolute; top: 5%; left: 5%;'><small>Task 3 of 5</small></div><div class='instruxDiv'><p><strong>4) If you decided to share 4 out of 5 points with your partner, and they decided to share half of the amount they received with you, how many points would you receive back from them on this round?</strong></p><p>a) 16</p><p>b) 0</p><p style='color:#00FF00'>c) 8</p><h3 style='color:#00FF00'>Correct!</h3><h3 class='center-content'>The correct response is c).</h3><h3 class='center-content'>If you shared 4 out of 5 points with your partner and they decided to share half of the amount they received with you, you would receive 8 points back (i.e. (4 x 4)/2 = 8).</h3><p><em>Press SPACEBAR to continue</em></p></div>"," ","","","","","","","","","","",""
"html-keyboard-response","135","432800","0.0-17.0","63153455849b153d56dd81db","bdp_trlrn","Tue Mar 14 2023 16:29:52 GMT-0700 (Pacific Daylight Time)","728115","Untrustworthy,Trustworthy","","null","","","","","","<div class='header' style='text-align:left; position: absolute; top: 5%; left: 5%;'><small>Task 3 of 5</small></div><div class='instruxDiv'><p>Thank you for completing the quiz<p>These are the actual partners you will be interacting with in the next block:<p><div class='tc' align='center'><img class='introPic' src='trustrating_stim/white_mw097.bmp'><br><strong>Devin</strong></div><div class='bl' align='center'><img class='introPic' src='trustrating_stim/white_mw063.bmp'><br><strong>Matthew</strong></div><div class='br' align='center'><img class='introPic' src='trustrating_stim/white_00109_931230_fa_edt.bmp'><br><strong>Tyler</strong></div></div><p>Across <strong>66 rounds</strong> you will interact with each partner <strong>22 times</strong> (in random order).<p style='align:center; color:white'><font <em>Press SPACEBAR to continue</em></p>","null","","","","","","","","","","",""
"instructions","136","437633","0.0-18.0","63153455849b153d56dd81db","bdp_trlrn","Tue Mar 14 2023 16:29:52 GMT-0700 (Pacific Daylight Time)","728115","Untrustworthy,Trustworthy","[{""page_index"":0,""viewing_time"":559},{""page_index"":1,""viewing_time"":4272}]","4831","","","","","","","","","","","","","","","","","",""
"html-keyboard-response","137","445737","0.0-19.0-1.0","63153455849b153d56dd81db","bdp_trlrn","Tue Mar 14 2023 16:29:52 GMT-0700 (Pacific Daylight Time)","728115","Untrustworthy,Trustworthy","","7994","","","","decision","","<div class='trialDiv'><img src='trustrating_stim/white_mw063.bmp'><br><font class='baseline'><strong>Matthew</strong><p>Choose number of points to send.</font><div class='respPicDiv'><img src='img/responseButtonOffersNo0L.png' class='respPic'></div></div>","4","1","Matthew","5","Shared","0.8,0.35","10","0.8","trustrating_stim/white_mw063.bmp","6","5","1"
"html-keyboard-response","138","446003","0.0-19.0-2.0","63153455849b153d56dd81db","bdp_trlrn","Tue Mar 14 2023 16:29:52 GMT-0700 (Pacific Daylight Time)","728115","Untrustworthy,Trustworthy","","null","","","","decisionFB","","<div class='trialDiv'><img src='trustrating_stim/white_mw063.bmp'><br><font class='baseline'><strong>Matthew</strong><p>Choose number of points to send.</font><div class='respPicDiv'><img src='img/responseButtonOffersNo0L4.png' class='respPic'></div></div>","null","1","Matthew","5","Shared","0.8,0.35","10","0.8","trustrating_stim/white_mw063.bmp","6","1","1"
"html-keyboard-response","139","447012","0.0-19.0-3.0","63153455849b153d56dd81db","bdp_trlrn","Tue Mar 14 2023 16:29:52 GMT-0700 (Pacific Daylight Time)","728115","Untrustworthy,Trustworthy","","null","","","","feedback","","<div class='trialDiv'><img src='trustrating_stim/white_mw063.bmp'><br><font class='baseline'><strong>Matthew</strong><p>Received: <strong>16</strong></font> &nbsp; &nbsp; &nbsp; &nbsp; &nbsp; &nbsp;<font class='posOutcome'>Shared back: <strong>8</strong></font></font><div class='respPicDiv'><img src='img/responseButtonOffersNo0_wht.png' class='respPic'></div></div>","null","1","Matthew","5","Shared","0.8,0.35","10","0.8","trustrating_stim/white_mw063.bmp","6","9","1"
"html-keyboard-response","140","447424","0.0-19.0-1.1","63153455849b153d56dd81db","bdp_trlrn","Tue Mar 14 2023 16:29:52 GMT-0700 (Pacific Daylight Time)","728115","Untrustworthy,Trustworthy","","410","","","","decision","","<div class='trialDiv'><img src='trustrating_stim/white_00109_931230_fa_edt.bmp'><br><font class='baseline'><strong>Tyler</strong><p>Choose number of points to send.</font><div class='respPicDiv'><img src='img/responseButtonOffersNo0L.png' class='respPic'></div></div>","3","1","Tyler","8","Kept","0.35,0.65","12","0.35","trustrating_stim/white_00109_931230_fa_edt.bmp","7.5","14","2"
"html-keyboard-response","141","447687","0.0-19.0-2.1","63153455849b153d56dd81db","bdp_trlrn","Tue Mar 14 2023 16:29:52 GMT-0700 (Pacific Daylight Time)","728115","Untrustworthy,Trustworthy","","null","","","","decisionFB","","<div class='trialDiv'><img src='trustrating_stim/white_00109_931230_fa_edt.bmp'><br><font class='baseline'><strong>Tyler</strong><p>Choose number of points to send.</font><div class='respPicDiv'><img src='img/responseButtonOffersNo0L3.png' class='respPic'></div></div>","null","1","Tyler","8","Kept","0.35,0.65","12","0.35","trustrating_stim/white_00109_931230_fa_edt.bmp","7.5","11","2"
"html-keyboard-response","142","448704","0.0-19.0-3.1","63153455849b153d56dd81db","bdp_trlrn","Tue Mar 14 2023 16:29:52 GMT-0700 (Pacific Daylight Time)","728115","Untrustworthy,Trustworthy","","null","","","","feedback","","<div class='trialDiv'><img src='trustrating_stim/white_00109_931230_fa_edt.bmp'><br><font class='baseline'><strong>Tyler</strong><p>Received: <strong>12</strong></font> &nbsp; &nbsp; &nbsp; &nbsp; &nbsp; &nbsp;<font class='negOutcome'>Shared back: <strong>0</strong></font></font><div class='respPicDiv'><img src='img/responseButtonOffersNo0_wht.png' class='respPic'></div></div>","null","1","Tyler","8","Kept","0.35,0.65","12","0.35","trustrating_stim/white_00109_931230_fa_edt.bmp","7.5","11","2"
"html-keyboard-response","143","448928","0.0-19.0-1.2","63153455849b153d56dd81db","bdp_trlrn","Tue Mar 14 2023 16:29:52 GMT-0700 (Pacific Daylight Time)","728115","Untrustworthy,Trustworthy","","220","","","","decision","","<div class='trialDiv'><img src='trustrating_stim/white_mw097.bmp'><br><font class='baseline'><strong>Devin</strong><p>Choose number of points to send.</font><div class='respPicDiv'><img src='img/responseButtonOffersNo0L.png' class='respPic'></div></div>","1","1","Devin","1","Shared","0.2,0.65","11","0.2","trustrating_stim/white_mw097.bmp","3.5","16","3"
"html-keyboard-response","144","449185","0.0-19.0-2.2","63153455849b153d56dd81db","bdp_trlrn","Tue Mar 14 2023 16:29:52 GMT-0700 (Pacific Daylight Time)","728115","Untrustworthy,Trustworthy","","null","","","","decisionFB","","<div class='trialDiv'><img src='trustrating_stim/white_mw097.bmp'><br><font class='baseline'><strong>Devin</strong><p>Choose number of points to send.</font><div class='respPicDiv'><img src='img/responseButtonOffersNo0L1.png' class='respPic'></div></div>","null","1","Devin","1","Shared","0.2,0.65","11","0.2","trustrating_stim/white_mw097.bmp","3.5","15","3"
"html-keyboard-response","145","450197","0.0-19.0-3.2","63153455849b153d56dd81db","bdp_trlrn","Tue Mar 14 2023 16:29:52 GMT-0700 (Pacific Daylight Time)","728115","Untrustworthy,Trustworthy","","null","","","","feedback","","<div class='trialDiv'><img src='trustrating_stim/white_mw097.bmp'><br><font class='baseline'><strong>Devin</strong><p>Received: <strong>4</strong></font> &nbsp; &nbsp; &nbsp; &nbsp; &nbsp; &nbsp;<font class='posOutcome'>Shared back: <strong>2</strong></font></font><div class='respPicDiv'><img src='img/responseButtonOffersNo0_wht.png' class='respPic'></div></div>","null","1","Devin","1","Shared","0.2,0.65","11","0.2","trustrating_stim/white_mw097.bmp","3.5","17","3"
"html-keyboard-response","146","450392","0.0-19.0-1.3","63153455849b153d56dd81db","bdp_trlrn","Tue Mar 14 2023 16:29:52 GMT-0700 (Pacific Daylight Time)","728115","Untrustworthy,Trustworthy","","192","","","","decision","","<div class='trialDiv'><img src='trustrating_stim/white_mw063.bmp'><br><font class='baseline'><strong>Matthew</strong><p>Choose number of points to send.</font><div class='respPicDiv'><img src='img/responseButtonOffersNo0L.png' class='respPic'></div></div>","3","2","Matthew","5","Shared","0.8,0.35","10","0.8","trustrating_stim/white_mw063.bmp","6","22","4"
"html-keyboard-response","147","450650","0.0-19.0-2.3","63153455849b153d56dd81db","bdp_trlrn","Tue Mar 14 2023 16:29:52 GMT-0700 (Pacific Daylight Time)","728115","Untrustworthy,Trustworthy","","null","","","","decisionFB","","<div class='trialDiv'><img src='trustrating_stim/white_mw063.bmp'><br><font class='baseline'><strong>Matthew</strong><p>Choose number of points to send.</font><div class='respPicDiv'><img src='img/responseButtonOffersNo0L3.png' class='respPic'></div></div>","null","2","Matthew","5","Shared","0.8,0.35","10","0.8","trustrating_stim/white_mw063.bmp","6","19","4"
"html-keyboard-response","148","451667","0.0-19.0-3.3","63153455849b153d56dd81db","bdp_trlrn","Tue Mar 14 2023 16:29:52 GMT-0700 (Pacific Daylight Time)","728115","Untrustworthy,Trustworthy","","null","","","","feedback","","<div class='trialDiv'><img src='trustrating_stim/white_mw063.bmp'><br><font class='baseline'><strong>Matthew</strong><p>Received: <strong>12</strong></font> &nbsp; &nbsp; &nbsp; &nbsp; &nbsp; &nbsp;<font class='posOutcome'>Shared back: <strong>6</strong></font></font><div class='respPicDiv'><img src='img/responseButtonOffersNo0_wht.png' class='respPic'></div></div>","null","2","Matthew","5","Shared","0.8,0.35","10","0.8","trustrating_stim/white_mw063.bmp","6","25","4"
"html-keyboard-response","149","451984","0.0-19.0-1.4","63153455849b153d56dd81db","bdp_trlrn","Tue Mar 14 2023 16:29:52 GMT-0700 (Pacific Daylight Time)","728115","Untrustworthy,Trustworthy","","315","","","","decision","","<div class='trialDiv'><img src='trustrating_stim/white_00109_931230_fa_edt.bmp'><br><font class='baseline'><strong>Tyler</strong><p>Choose number of points to send.</font><div class='respPicDiv'><img src='img/responseButtonOffersNo0L.png' class='respPic'></div></div>","5","2","Tyler","8","Kept","0.35,0.65","12","0.35","trustrating_stim/white_00109_931230_fa_edt.bmp","7.5","30","5"
"html-keyboard-response","150","452243","0.0-19.0-2.4","63153455849b153d56dd81db","bdp_trlrn","Tue Mar 14 2023 16:29:52 GMT-0700 (Pacific Daylight Time)","728115","Untrustworthy,Trustworthy","","null","","","","decisionFB","","<div class='trialDiv'><img src='trustrating_stim/white_00109_931230_fa_edt.bmp'><br><font class='baseline'><strong>Tyler</strong><p>Choose number of points to send.</font><div class='respPicDiv'><img src='img/responseButtonOffersNo0L5.png' class='respPic'></div></div>","null","2","Tyler","8","Kept","0.35,0.65","12","0.35","trustrating_stim/white_00109_931230_fa_edt.bmp","7.5","25","5"
"html-keyboard-response","151","453263","0.0-19.0-3.4","63153455849b153d56dd81db","bdp_trlrn","Tue Mar 14 2023 16:29:52 GMT-0700 (Pacific Daylight Time)","728115","Untrustworthy,Trustworthy","","null","","","","feedback","","<div class='trialDiv'><img src='trustrating_stim/white_00109_931230_fa_edt.bmp'><br><font class='baseline'><strong>Tyler</strong><p>Received: <strong>20</strong></font> &nbsp; &nbsp; &nbsp; &nbsp; &nbsp; &nbsp;<font class='negOutcome'>Shared back: <strong>0</strong></font></font><div class='respPicDiv'><img src='img/responseButtonOffersNo0_wht.png' class='respPic'></div></div>","null","2","Tyler","8","Kept","0.35,0.65","12","0.35","trustrating_stim/white_00109_931230_fa_edt.bmp","7.5","25","5"
"html-keyboard-response","152","453265","0.0-19.0-1.5","63153455849b153d56dd81db","bdp_trlrn","Tue Mar 14 2023 16:29:52 GMT-0700 (Pacific Daylight Time)","728115","Untrustworthy,Trustworthy","","0","","","","decision","","<div class='trialDiv'><img src='trustrating_stim/white_mw097.bmp'><br><font class='baseline'><strong>Devin</strong><p>Choose number of points to send.</font><div class='respPicDiv'><img src='img/responseButtonOffersNo0L.png' class='respPic'></div></div>","3","2","Devin","1","Kept","0.2,0.65","11","0.2","trustrating_stim/white_mw097.bmp","3.5","30","6"
"html-keyboard-response","153","453531","0.0-19.0-2.5","63153455849b153d56dd81db","bdp_trlrn","Tue Mar 14 2023 16:29:52 GMT-0700 (Pacific Daylight Time)","728115","Untrustworthy,Trustworthy","","null","","","","decisionFB","","<div class='trialDiv'><img src='trustrating_stim/white_mw097.bmp'><br><font class='baseline'><strong>Devin</strong><p>Choose number of points to send.</font><div class='respPicDiv'><img src='img/responseButtonOffersNo0L3.png' class='respPic'></div></div>","null","2","Devin","1","Kept","0.2,0.65","11","0.2","trustrating_stim/white_mw097.bmp","3.5","27","6"
"html-keyboard-response","154","454543","0.0-19.0-3.5","63153455849b153d56dd81db","bdp_trlrn","Tue Mar 14 2023 16:29:52 GMT-0700 (Pacific Daylight Time)","728115","Untrustworthy,Trustworthy","","null","","","","feedback","","<div class='trialDiv'><img src='trustrating_stim/white_mw097.bmp'><br><font class='baseline'><strong>Devin</strong><p>Received: <strong>12</strong></font> &nbsp; &nbsp; &nbsp; &nbsp; &nbsp; &nbsp;<font class='negOutcome'>Shared back: <strong>0</strong></font></font><div class='respPicDiv'><img src='img/responseButtonOffersNo0_wht.png' class='respPic'></div></div>","null","2","Devin","1","Kept","0.2,0.65","11","0.2","trustrating_stim/white_mw097.bmp","3.5","27","6"
"html-keyboard-response","155","454568","0.0-19.0-1.6","63153455849b153d56dd81db","bdp_trlrn","Tue Mar 14 2023 16:29:52 GMT-0700 (Pacific Daylight Time)","728115","Untrustworthy,Trustworthy","","22","","","","decision","","<div class='trialDiv'><img src='trustrating_stim/white_00109_931230_fa_edt.bmp'><br><font class='baseline'><strong>Tyler</strong><p>Choose number of points to send.</font><div class='respPicDiv'><img src='img/responseButtonOffersNo0L.png' class='respPic'></div></div>","1","3","Tyler","8","Kept","0.35,0.65","12","0.35","trustrating_stim/white_00109_931230_fa_edt.bmp","7.5","32","7"
"html-keyboard-response","156","454826","0.0-19.0-2.6","63153455849b153d56dd81db","bdp_trlrn","Tue Mar 14 2023 16:29:52 GMT-0700 (Pacific Daylight Time)","728115","Untrustworthy,Trustworthy","","null","","","","decisionFB","","<div class='trialDiv'><img src='trustrating_stim/white_00109_931230_fa_edt.bmp'><br><font class='baseline'><strong>Tyler</strong><p>Choose number of points to send.</font><div class='respPicDiv'><img src='img/responseButtonOffersNo0L1.png' class='respPic'></div></div>","null","3","Tyler","8","Kept","0.35,0.65","12","0.35","trustrating_stim/white_00109_931230_fa_edt.bmp","7.5","31","7"
"html-keyboard-response","157","455833","0.0-19.0-3.6","63153455849b153d56dd81db","bdp_trlrn","Tue Mar 14 2023 16:29:52 GMT-0700 (Pacific Daylight Time)","728115","Untrustworthy,Trustworthy","","null","","","","feedback","","<div class='trialDiv'><img src='trustrating_stim/white_00109_931230_fa_edt.bmp'><br><font class='baseline'><strong>Tyler</strong><p>Received: <strong>4</strong></font> &nbsp; &nbsp; &nbsp; &nbsp; &nbsp; &nbsp;<font class='negOutcome'>Shared back: <strong>0</strong></font></font><div class='respPicDiv'><img src='img/responseButtonOffersNo0_wht.png' class='respPic'></div></div>","null","3","Tyler","8","Kept","0.35,0.65","12","0.35","trustrating_stim/white_00109_931230_fa_edt.bmp","7.5","31","7"
"html-keyboard-response","158","456144","0.0-19.0-1.7","63153455849b153d56dd81db","bdp_trlrn","Tue Mar 14 2023 16:29:52 GMT-0700 (Pacific Daylight Time)","728115","Untrustworthy,Trustworthy","","309","","","","decision","","<div class='trialDiv'><img src='trustrating_stim/white_mw063.bmp'><br><font class='baseline'><strong>Matthew</strong><p>Choose number of points to send.</font><div class='respPicDiv'><img src='img/responseButtonOffersNo0L.png' class='respPic'></div></div>","3","3","Matthew","5","Shared","0.8,0.35","10","0.8","trustrating_stim/white_mw063.bmp","6","36","8"
"html-keyboard-response","159","456403","0.0-19.0-2.7","63153455849b153d56dd81db","bdp_trlrn","Tue Mar 14 2023 16:29:52 GMT-0700 (Pacific Daylight Time)","728115","Untrustworthy,Trustworthy","","null","","","","decisionFB","","<div class='trialDiv'><img src='trustrating_stim/white_mw063.bmp'><br><font class='baseline'><strong>Matthew</strong><p>Choose number of points to send.</font><div class='respPicDiv'><img src='img/responseButtonOffersNo0L3.png' class='respPic'></div></div>","null","3","Matthew","5","Shared","0.8,0.35","10","0.8","trustrating_stim/white_mw063.bmp","6","33","8"
"html-keyboard-response","160","457416","0.0-19.0-3.7","63153455849b153d56dd81db","bdp_trlrn","Tue Mar 14 2023 16:29:52 GMT-0700 (Pacific Daylight Time)","728115","Untrustworthy,Trustworthy","","null","","","","feedback","","<div class='trialDiv'><img src='trustrating_stim/white_mw063.bmp'><br><font class='baseline'><strong>Matthew</strong><p>Received: <strong>12</strong></font> &nbsp; &nbsp; &nbsp; &nbsp; &nbsp; &nbsp;<font class='posOutcome'>Shared back: <strong>6</strong></font></font><div class='respPicDiv'><img src='img/responseButtonOffersNo0_wht.png' class='respPic'></div></div>","null","3","Matthew","5","Shared","0.8,0.35","10","0.8","trustrating_stim/white_mw063.bmp","6","39","8"
"html-keyboard-response","161","457856","0.0-19.0-1.8","63153455849b153d56dd81db","bdp_trlrn","Tue Mar 14 2023 16:29:52 GMT-0700 (Pacific Daylight Time)","728115","Untrustworthy,Trustworthy","","436","","","","decision","","<div class='trialDiv'><img src='trustrating_stim/white_mw097.bmp'><br><font class='baseline'><strong>Devin</strong><p>Choose number of points to send.</font><div class='respPicDiv'><img src='img/responseButtonOffersNo0L.png' class='respPic'></div></div>","3","3","Devin","1","Kept","0.2,0.65","11","0.2","trustrating_stim/white_mw097.bmp","3.5","44","9"
"html-keyboard-response","162","458117","0.0-19.0-2.8","63153455849b153d56dd81db","bdp_trlrn","Tue Mar 14 2023 16:29:52 GMT-0700 (Pacific Daylight Time)","728115","Untrustworthy,Trustworthy","","null","","","","decisionFB","","<div class='trialDiv'><img src='trustrating_stim/white_mw097.bmp'><br><font class='baseline'><strong>Devin</strong><p>Choose number of points to send.</font><div class='respPicDiv'><img src='img/responseButtonOffersNo0L3.png' class='respPic'></div></div>","null","3","Devin","1","Kept","0.2,0.65","11","0.2","trustrating_stim/white_mw097.bmp","3.5","41","9"
"html-keyboard-response","163","459129","0.0-19.0-3.8","63153455849b153d56dd81db","bdp_trlrn","Tue Mar 14 2023 16:29:52 GMT-0700 (Pacific Daylight Time)","728115","Untrustworthy,Trustworthy","","null","","","","feedback","","<div class='trialDiv'><img src='trustrating_stim/white_mw097.bmp'><br><font class='baseline'><strong>Devin</strong><p>Received: <strong>12</strong></font> &nbsp; &nbsp; &nbsp; &nbsp; &nbsp; &nbsp;<font class='negOutcome'>Shared back: <strong>0</strong></font></font><div class='respPicDiv'><img src='img/responseButtonOffersNo0_wht.png' class='respPic'></div></div>","null","3","Devin","1","Kept","0.2,0.65","11","0.2","trustrating_stim/white_mw097.bmp","3.5","41","9"
"html-keyboard-response","164","459328","0.0-19.0-1.9","63153455849b153d56dd81db","bdp_trlrn","Tue Mar 14 2023 16:29:52 GMT-0700 (Pacific Daylight Time)","728115","Untrustworthy,Trustworthy","","196","","","","decision","","<div class='trialDiv'><img src='trustrating_stim/white_mw063.bmp'><br><font class='baseline'><strong>Matthew</strong><p>Choose number of points to send.</font><div class='respPicDiv'><img src='img/responseButtonOffersNo0L.png' class='respPic'></div></div>","4","4","Matthew","5","Kept","0.8,0.35","10","0.8","trustrating_stim/white_mw063.bmp","6","46","10"
"html-keyboard-response","165","459586","0.0-19.0-2.9","63153455849b153d56dd81db","bdp_trlrn","Tue Mar 14 2023 16:29:52 GMT-0700 (Pacific Daylight Time)","728115","Untrustworthy,Trustworthy","","null","","","","decisionFB","","<div class='trialDiv'><img src='trustrating_stim/white_mw063.bmp'><br><font class='baseline'><strong>Matthew</strong><p>Choose number of points to send.</font><div class='respPicDiv'><img src='img/responseButtonOffersNo0L4.png' class='respPic'></div></div>","null","4","Matthew","5","Kept","0.8,0.35","10","0.8","trustrating_stim/white_mw063.bmp","6","42","10"
"html-keyboard-response","166","460597","0.0-19.0-3.9","63153455849b153d56dd81db","bdp_trlrn","Tue Mar 14 2023 16:29:52 GMT-0700 (Pacific Daylight Time)","728115","Untrustworthy,Trustworthy","","null","","","","feedback","","<div class='trialDiv'><img src='trustrating_stim/white_mw063.bmp'><br><font class='baseline'><strong>Matthew</strong><p>Received: <strong>16</strong></font> &nbsp; &nbsp; &nbsp; &nbsp; &nbsp; &nbsp;<font class='negOutcome'>Shared back: <strong>0</strong></font></font><div class='respPicDiv'><img src='img/responseButtonOffersNo0_wht.png' class='respPic'></div></div>","null","4","Matthew","5","Kept","0.8,0.35","10","0.8","trustrating_stim/white_mw063.bmp","6","42","10"
"html-keyboard-response","167","460904","0.0-19.0-1.10","63153455849b153d56dd81db","bdp_trlrn","Tue Mar 14 2023 16:29:52 GMT-0700 (Pacific Daylight Time)","728115","Untrustworthy,Trustworthy","","304","","","","decision","","<div class='trialDiv'><img src='trustrating_stim/white_00109_931230_fa_edt.bmp'><br><font class='baseline'><strong>Tyler</strong><p>Choose number of points to send.</font><div class='respPicDiv'><img src='img/responseButtonOffersNo0L.png' class='respPic'></div></div>","1","4","Tyler","8","Shared","0.35,0.65","12","0.35","trustrating_stim/white_00109_931230_fa_edt.bmp","7.5","47","11"
"html-keyboard-response","168","461161","0.0-19.0-2.10","63153455849b153d56dd81db","bdp_trlrn","Tue Mar 14 2023 16:29:52 GMT-0700 (Pacific Daylight Time)","728115","Untrustworthy,Trustworthy","","null","","","","decisionFB","","<div class='trialDiv'><img src='trustrating_stim/white_00109_931230_fa_edt.bmp'><br><font class='baseline'><strong>Tyler</strong><p>Choose number of points to send.</font><div class='respPicDiv'><img src='img/responseButtonOffersNo0L1.png' class='respPic'></div></div>","null","4","Tyler","8","Shared","0.35,0.65","12","0.35","trustrating_stim/white_00109_931230_fa_edt.bmp","7.5","46","11"
"html-keyboard-response","169","462168","0.0-19.0-3.10","63153455849b153d56dd81db","bdp_trlrn","Tue Mar 14 2023 16:29:52 GMT-0700 (Pacific Daylight Time)","728115","Untrustworthy,Trustworthy","","null","","","","feedback","","<div class='trialDiv'><img src='trustrating_stim/white_00109_931230_fa_edt.bmp'><br><font class='baseline'><strong>Tyler</strong><p>Received: <strong>4</strong></font> &nbsp; &nbsp; &nbsp; &nbsp; &nbsp; &nbsp;<font class='posOutcome'>Shared back: <strong>2</strong></font></font><div class='respPicDiv'><img src='img/responseButtonOffersNo0_wht.png' class='respPic'></div></div>","null","4","Tyler","8","Shared","0.35,0.65","12","0.35","trustrating_stim/white_00109_931230_fa_edt.bmp","7.5","48","11"
"html-keyboard-response","170","462336","0.0-19.0-1.11","63153455849b153d56dd81db","bdp_trlrn","Tue Mar 14 2023 16:29:52 GMT-0700 (Pacific Daylight Time)","728115","Untrustworthy,Trustworthy","","165","","","","decision","","<div class='trialDiv'><img src='trustrating_stim/white_mw097.bmp'><br><font class='baseline'><strong>Devin</strong><p>Choose number of points to send.</font><div class='respPicDiv'><img src='img/responseButtonOffersNo0L.png' class='respPic'></div></div>","5","4","Devin","1","Kept","0.2,0.65","11","0.2","trustrating_stim/white_mw097.bmp","3.5","53","12"
"html-keyboard-response","171","462595","0.0-19.0-2.11","63153455849b153d56dd81db","bdp_trlrn","Tue Mar 14 2023 16:29:52 GMT-0700 (Pacific Daylight Time)","728115","Untrustworthy,Trustworthy","","null","","","","decisionFB","","<div class='trialDiv'><img src='trustrating_stim/white_mw097.bmp'><br><font class='baseline'><strong>Devin</strong><p>Choose number of points to send.</font><div class='respPicDiv'><img src='img/responseButtonOffersNo0L5.png' class='respPic'></div></div>","null","4","Devin","1","Kept","0.2,0.65","11","0.2","trustrating_stim/white_mw097.bmp","3.5","48","12"
"html-keyboard-response","172","463605","0.0-19.0-3.11","63153455849b153d56dd81db","bdp_trlrn","Tue Mar 14 2023 16:29:52 GMT-0700 (Pacific Daylight Time)","728115","Untrustworthy,Trustworthy","","null","","","","feedback","","<div class='trialDiv'><img src='trustrating_stim/white_mw097.bmp'><br><font class='baseline'><strong>Devin</strong><p>Received: <strong>20</strong></font> &nbsp; &nbsp; &nbsp; &nbsp; &nbsp; &nbsp;<font class='negOutcome'>Shared back: <strong>0</strong></font></font><div class='respPicDiv'><img src='img/responseButtonOffersNo0_wht.png' class='respPic'></div></div>","null","4","Devin","1","Kept","0.2,0.65","11","0.2","trustrating_stim/white_mw097.bmp","3.5","48","12"
"html-keyboard-response","173","463704","0.0-19.0-1.12","63153455849b153d56dd81db","bdp_trlrn","Tue Mar 14 2023 16:29:52 GMT-0700 (Pacific Daylight Time)","728115","Untrustworthy,Trustworthy","","96","","","","decision","","<div class='trialDiv'><img src='trustrating_stim/white_mw063.bmp'><br><font class='baseline'><strong>Matthew</strong><p>Choose number of points to send.</font><div class='respPicDiv'><img src='img/responseButtonOffersNo0L.png' class='respPic'></div></div>","4","5","Matthew","5","Kept","0.8,0.35","10","0.8","trustrating_stim/white_mw063.bmp","6","53","13"
"html-keyboard-response","174","463962","0.0-19.0-2.12","63153455849b153d56dd81db","bdp_trlrn","Tue Mar 14 2023 16:29:52 GMT-0700 (Pacific Daylight Time)","728115","Untrustworthy,Trustworthy","","null","","","","decisionFB","","<div class='trialDiv'><img src='trustrating_stim/white_mw063.bmp'><br><font class='baseline'><strong>Matthew</strong><p>Choose number of points to send.</font><div class='respPicDiv'><img src='img/responseButtonOffersNo0L4.png' class='respPic'></div></div>","null","5","Matthew","5","Kept","0.8,0.35","10","0.8","trustrating_stim/white_mw063.bmp","6","49","13"
"html-keyboard-response","175","464973","0.0-19.0-3.12","63153455849b153d56dd81db","bdp_trlrn","Tue Mar 14 2023 16:29:52 GMT-0700 (Pacific Daylight Time)","728115","Untrustworthy,Trustworthy","","null","","","","feedback","","<div class='trialDiv'><img src='trustrating_stim/white_mw063.bmp'><br><font class='baseline'><strong>Matthew</strong><p>Received: <strong>16</strong></font> &nbsp; &nbsp; &nbsp; &nbsp; &nbsp; &nbsp;<font class='negOutcome'>Shared back: <strong>0</strong></font></font><div class='respPicDiv'><img src='img/responseButtonOffersNo0_wht.png' class='respPic'></div></div>","null","5","Matthew","5","Kept","0.8,0.35","10","0.8","trustrating_stim/white_mw063.bmp","6","49","13"
"html-keyboard-response","176","465232","0.0-19.0-1.13","63153455849b153d56dd81db","bdp_trlrn","Tue Mar 14 2023 16:29:52 GMT-0700 (Pacific Daylight Time)","728115","Untrustworthy,Trustworthy","","256","","","","decision","","<div class='trialDiv'><img src='trustrating_stim/white_00109_931230_fa_edt.bmp'><br><font class='baseline'><strong>Tyler</strong><p>Choose number of points to send.</font><div class='respPicDiv'><img src='img/responseButtonOffersNo0L.png' class='respPic'></div></div>","2","5","Tyler","8","Shared","0.35,0.65","12","0.35","trustrating_stim/white_00109_931230_fa_edt.bmp","7.5","54","14"
"html-keyboard-response","177","465496","0.0-19.0-2.13","63153455849b153d56dd81db","bdp_trlrn","Tue Mar 14 2023 16:29:52 GMT-0700 (Pacific Daylight Time)","728115","Untrustworthy,Trustworthy","","null","","","","decisionFB","","<div class='trialDiv'><img src='trustrating_stim/white_00109_931230_fa_edt.bmp'><br><font class='baseline'><strong>Tyler</strong><p>Choose number of points to send.</font><div class='respPicDiv'><img src='img/responseButtonOffersNo0L2.png' class='respPic'></div></div>","null","5","Tyler","8","Shared","0.35,0.65","12","0.35","trustrating_stim/white_00109_931230_fa_edt.bmp","7.5","52","14"
"html-keyboard-response","178","466513","0.0-19.0-3.13","63153455849b153d56dd81db","bdp_trlrn","Tue Mar 14 2023 16:29:52 GMT-0700 (Pacific Daylight Time)","728115","Untrustworthy,Trustworthy","","null","","","","feedback","","<div class='trialDiv'><img src='trustrating_stim/white_00109_931230_fa_edt.bmp'><br><font class='baseline'><strong>Tyler</strong><p>Received: <strong>8</strong></font> &nbsp; &nbsp; &nbsp; &nbsp; &nbsp; &nbsp;<font class='posOutcome'>Shared back: <strong>4</strong></font></font><div class='respPicDiv'><img src='img/responseButtonOffersNo0_wht.png' class='respPic'></div></div>","null","5","Tyler","8","Shared","0.35,0.65","12","0.35","trustrating_stim/white_00109_931230_fa_edt.bmp","7.5","56","14"
"html-keyboard-response","179","466609","0.0-19.0-1.14","63153455849b153d56dd81db","bdp_trlrn","Tue Mar 14 2023 16:29:52 GMT-0700 (Pacific Daylight Time)","728115","Untrustworthy,Trustworthy","","92","","","","decision","","<div class='trialDiv'><img src='trustrating_stim/white_mw097.bmp'><br><font class='baseline'><strong>Devin</strong><p>Choose number of points to send.</font><div class='respPicDiv'><img src='img/responseButtonOffersNo0L.png' class='respPic'></div></div>","1","5","Devin","1","Shared","0.2,0.65","11","0.2","trustrating_stim/white_mw097.bmp","3.5","61","15"
"html-keyboard-response","180","466872","0.0-19.0-2.14","63153455849b153d56dd81db","bdp_trlrn","Tue Mar 14 2023 16:29:52 GMT-0700 (Pacific Daylight Time)","728115","Untrustworthy,Trustworthy","","null","","","","decisionFB","","<div class='trialDiv'><img src='trustrating_stim/white_mw097.bmp'><br><font class='baseline'><strong>Devin</strong><p>Choose number of points to send.</font><div class='respPicDiv'><img src='img/responseButtonOffersNo0L1.png' class='respPic'></div></div>","null","5","Devin","1","Shared","0.2,0.65","11","0.2","trustrating_stim/white_mw097.bmp","3.5","60","15"
"html-keyboard-response","181","467882","0.0-19.0-3.14","63153455849b153d56dd81db","bdp_trlrn","Tue Mar 14 2023 16:29:52 GMT-0700 (Pacific Daylight Time)","728115","Untrustworthy,Trustworthy","","null","","","","feedback","","<div class='trialDiv'><img src='trustrating_stim/white_mw097.bmp'><br><font class='baseline'><strong>Devin</strong><p>Received: <strong>4</strong></font> &nbsp; &nbsp; &nbsp; &nbsp; &nbsp; &nbsp;<font class='posOutcome'>Shared back: <strong>2</strong></font></font><div class='respPicDiv'><img src='img/responseButtonOffersNo0_wht.png' class='respPic'></div></div>","null","5","Devin","1","Shared","0.2,0.65","11","0.2","trustrating_stim/white_mw097.bmp","3.5","62","15"
"html-keyboard-response","182","468152","0.0-19.0-1.15","63153455849b153d56dd81db","bdp_trlrn","Tue Mar 14 2023 16:29:52 GMT-0700 (Pacific Daylight Time)","728115","Untrustworthy,Trustworthy","","267","","","","decision","","<div class='trialDiv'><img src='trustrating_stim/white_00109_931230_fa_edt.bmp'><br><font class='baseline'><strong>Tyler</strong><p>Choose number of points to send.</font><div class='respPicDiv'><img src='img/responseButtonOffersNo0L.png' class='respPic'></div></div>","4","6","Tyler","8","Kept","0.35,0.65","12","0.35","trustrating_stim/white_00109_931230_fa_edt.bmp","7.5","67","16"
"html-keyboard-response","183","468415","0.0-19.0-2.15","63153455849b153d56dd81db","bdp_trlrn","Tue Mar 14 2023 16:29:52 GMT-0700 (Pacific Daylight Time)","728115","Untrustworthy,Trustworthy","","null","","","","decisionFB","","<div class='trialDiv'><img src='trustrating_stim/white_00109_931230_fa_edt.bmp'><br><font class='baseline'><strong>Tyler</strong><p>Choose number of points to send.</font><div class='respPicDiv'><img src='img/responseButtonOffersNo0L4.png' class='respPic'></div></div>","null","6","Tyler","8","Kept","0.35,0.65","12","0.35","trustrating_stim/white_00109_931230_fa_edt.bmp","7.5","63","16"
"html-keyboard-response","184","469427","0.0-19.0-3.15","63153455849b153d56dd81db","bdp_trlrn","Tue Mar 14 2023 16:29:52 GMT-0700 (Pacific Daylight Time)","728115","Untrustworthy,Trustworthy","","null","","","","feedback","","<div class='trialDiv'><img src='trustrating_stim/white_00109_931230_fa_edt.bmp'><br><font class='baseline'><strong>Tyler</strong><p>Received: <strong>16</strong></font> &nbsp; &nbsp; &nbsp; &nbsp; &nbsp; &nbsp;<font class='negOutcome'>Shared back: <strong>0</strong></font></font><div class='respPicDiv'><img src='img/responseButtonOffersNo0_wht.png' class='respPic'></div></div>","null","6","Tyler","8","Kept","0.35,0.65","12","0.35","trustrating_stim/white_00109_931230_fa_edt.bmp","7.5","63","16"
"html-keyboard-response","185","469496","0.0-19.0-1.16","63153455849b153d56dd81db","bdp_trlrn","Tue Mar 14 2023 16:29:52 GMT-0700 (Pacific Daylight Time)","728115","Untrustworthy,Trustworthy","","66","","","","decision","","<div class='trialDiv'><img src='trustrating_stim/white_mw063.bmp'><br><font class='baseline'><strong>Matthew</strong><p>Choose number of points to send.</font><div class='respPicDiv'><img src='img/responseButtonOffersNo0L.png' class='respPic'></div></div>","3","6","Matthew","5","Shared","0.8,0.35","10","0.8","trustrating_stim/white_mw063.bmp","6","68","17"
"html-keyboard-response","186","469755","0.0-19.0-2.16","63153455849b153d56dd81db","bdp_trlrn","Tue Mar 14 2023 16:29:52 GMT-0700 (Pacific Daylight Time)","728115","Untrustworthy,Trustworthy","","null","","","","decisionFB","","<div class='trialDiv'><img src='trustrating_stim/white_mw063.bmp'><br><font class='baseline'><strong>Matthew</strong><p>Choose number of points to send.</font><div class='respPicDiv'><img src='img/responseButtonOffersNo0L3.png' class='respPic'></div></div>","null","6","Matthew","5","Shared","0.8,0.35","10","0.8","trustrating_stim/white_mw063.bmp","6","65","17"
"html-keyboard-response","187","470764","0.0-19.0-3.16","63153455849b153d56dd81db","bdp_trlrn","Tue Mar 14 2023 16:29:52 GMT-0700 (Pacific Daylight Time)","728115","Untrustworthy,Trustworthy","","null","","","","feedback","","<div class='trialDiv'><img src='trustrating_stim/white_mw063.bmp'><br><font class='baseline'><strong>Matthew</strong><p>Received: <strong>12</strong></font> &nbsp; &nbsp; &nbsp; &nbsp; &nbsp; &nbsp;<font class='posOutcome'>Shared back: <strong>6</strong></font></font><div class='respPicDiv'><img src='img/responseButtonOffersNo0_wht.png' class='respPic'></div></div>","null","6","Matthew","5","Shared","0.8,0.35","10","0.8","trustrating_stim/white_mw063.bmp","6","71","17"
"html-keyboard-response","188","471112","0.0-19.0-1.17","63153455849b153d56dd81db","bdp_trlrn","Tue Mar 14 2023 16:29:52 GMT-0700 (Pacific Daylight Time)","728115","Untrustworthy,Trustworthy","","344","","","","decision","","<div class='trialDiv'><img src='trustrating_stim/white_mw097.bmp'><br><font class='baseline'><strong>Devin</strong><p>Choose number of points to send.</font><div class='respPicDiv'><img src='img/responseButtonOffersNo0L.png' class='respPic'></div></div>","5","6","Devin","1","Kept","0.2,0.65","11","0.2","trustrating_stim/white_mw097.bmp","3.5","76","18"
"html-keyboard-response","189","471373","0.0-19.0-2.17","63153455849b153d56dd81db","bdp_trlrn","Tue Mar 14 2023 16:29:52 GMT-0700 (Pacific Daylight Time)","728115","Untrustworthy,Trustworthy","","null","","","","decisionFB","","<div class='trialDiv'><img src='trustrating_stim/white_mw097.bmp'><br><font class='baseline'><strong>Devin</strong><p>Choose number of points to send.</font><div class='respPicDiv'><img src='img/responseButtonOffersNo0L5.png' class='respPic'></div></div>","null","6","Devin","1","Kept","0.2,0.65","11","0.2","trustrating_stim/white_mw097.bmp","3.5","71","18"
"html-keyboard-response","190","472390","0.0-19.0-3.17","63153455849b153d56dd81db","bdp_trlrn","Tue Mar 14 2023 16:29:52 GMT-0700 (Pacific Daylight Time)","728115","Untrustworthy,Trustworthy","","null","","","","feedback","","<div class='trialDiv'><img src='trustrating_stim/white_mw097.bmp'><br><font class='baseline'><strong>Devin</strong><p>Received: <strong>20</strong></font> &nbsp; &nbsp; &nbsp; &nbsp; &nbsp; &nbsp;<font class='negOutcome'>Shared back: <strong>0</strong></font></font><div class='respPicDiv'><img src='img/responseButtonOffersNo0_wht.png' class='respPic'></div></div>","null","6","Devin","1","Kept","0.2,0.65","11","0.2","trustrating_stim/white_mw097.bmp","3.5","71","18"
"html-keyboard-response","191","472456","0.0-19.0-1.18","63153455849b153d56dd81db","bdp_trlrn","Tue Mar 14 2023 16:29:52 GMT-0700 (Pacific Daylight Time)","728115","Untrustworthy,Trustworthy","","63","","","","decision","","<div class='trialDiv'><img src='trustrating_stim/white_00109_931230_fa_edt.bmp'><br><font class='baseline'><strong>Tyler</strong><p>Choose number of points to send.</font><div class='respPicDiv'><img src='img/responseButtonOffersNo0L.png' class='respPic'></div></div>","1","7","Tyler","8","Shared","0.35,0.65","12","0.35","trustrating_stim/white_00109_931230_fa_edt.bmp","7.5","76","19"
"html-keyboard-response","192","472717","0.0-19.0-2.18","63153455849b153d56dd81db","bdp_trlrn","Tue Mar 14 2023 16:29:52 GMT-0700 (Pacific Daylight Time)","728115","Untrustworthy,Trustworthy","","null","","","","decisionFB","","<div class='trialDiv'><img src='trustrating_stim/white_00109_931230_fa_edt.bmp'><br><font class='baseline'><strong>Tyler</strong><p>Choose number of points to send.</font><div class='respPicDiv'><img src='img/responseButtonOffersNo0L1.png' class='respPic'></div></div>","null","7","Tyler","8","Shared","0.35,0.65","12","0.35","trustrating_stim/white_00109_931230_fa_edt.bmp","7.5","75","19"
"html-keyboard-response","193","473737","0.0-19.0-3.18","63153455849b153d56dd81db","bdp_trlrn","Tue Mar 14 2023 16:29:52 GMT-0700 (Pacific Daylight Time)","728115","Untrustworthy,Trustworthy","","null","","","","feedback","","<div class='trialDiv'><img src='trustrating_stim/white_00109_931230_fa_edt.bmp'><br><font class='baseline'><strong>Tyler</strong><p>Received: <strong>4</strong></font> &nbsp; &nbsp; &nbsp; &nbsp; &nbsp; &nbsp;<font class='posOutcome'>Shared back: <strong>2</strong></font></font><div class='respPicDiv'><img src='img/responseButtonOffersNo0_wht.png' class='respPic'></div></div>","null","7","Tyler","8","Shared","0.35,0.65","12","0.35","trustrating_stim/white_00109_931230_fa_edt.bmp","7.5","77","19"
"html-keyboard-response","194","474136","0.0-19.0-1.19","63153455849b153d56dd81db","bdp_trlrn","Tue Mar 14 2023 16:29:52 GMT-0700 (Pacific Daylight Time)","728115","Untrustworthy,Trustworthy","","397","","","","decision","","<div class='trialDiv'><img src='trustrating_stim/white_mw097.bmp'><br><font class='baseline'><strong>Devin</strong><p>Choose number of points to send.</font><div class='respPicDiv'><img src='img/responseButtonOffersNo0L.png' class='respPic'></div></div>","4","7","Devin","1","Kept","0.2,0.65","11","0.2","trustrating_stim/white_mw097.bmp","3.5","82","20"
"html-keyboard-response","195","474396","0.0-19.0-2.19","63153455849b153d56dd81db","bdp_trlrn","Tue Mar 14 2023 16:29:52 GMT-0700 (Pacific Daylight Time)","728115","Untrustworthy,Trustworthy","","null","","","","decisionFB","","<div class='trialDiv'><img src='trustrating_stim/white_mw097.bmp'><br><font class='baseline'><strong>Devin</strong><p>Choose number of points to send.</font><div class='respPicDiv'><img src='img/responseButtonOffersNo0L4.png' class='respPic'></div></div>","null","7","Devin","1","Kept","0.2,0.65","11","0.2","trustrating_stim/white_mw097.bmp","3.5","78","20"
"html-keyboard-response","196","475416","0.0-19.0-3.19","63153455849b153d56dd81db","bdp_trlrn","Tue Mar 14 2023 16:29:52 GMT-0700 (Pacific Daylight Time)","728115","Untrustworthy,Trustworthy","","null","","","","feedback","","<div class='trialDiv'><img src='trustrating_stim/white_mw097.bmp'><br><font class='baseline'><strong>Devin</strong><p>Received: <strong>16</strong></font> &nbsp; &nbsp; &nbsp; &nbsp; &nbsp; &nbsp;<font class='negOutcome'>Shared back: <strong>0</strong></font></font><div class='respPicDiv'><img src='img/responseButtonOffersNo0_wht.png' class='respPic'></div></div>","null","7","Devin","1","Kept","0.2,0.65","11","0.2","trustrating_stim/white_mw097.bmp","3.5","78","20"
"html-keyboard-response","197","475448","0.0-19.0-1.20","63153455849b153d56dd81db","bdp_trlrn","Tue Mar 14 2023 16:29:52 GMT-0700 (Pacific Daylight Time)","728115","Untrustworthy,Trustworthy","","28","","","","decision","","<div class='trialDiv'><img src='trustrating_stim/white_mw063.bmp'><br><font class='baseline'><strong>Matthew</strong><p>Choose number of points to send.</font><div class='respPicDiv'><img src='img/responseButtonOffersNo0L.png' class='respPic'></div></div>","2","7","Matthew","5","Shared","0.8,0.35","10","0.8","trustrating_stim/white_mw063.bmp","6","83","21"
"html-keyboard-response","198","475705","0.0-19.0-2.20","63153455849b153d56dd81db","bdp_trlrn","Tue Mar 14 2023 16:29:52 GMT-0700 (Pacific Daylight Time)","728115","Untrustworthy,Trustworthy","","null","","","","decisionFB","","<div class='trialDiv'><img src='trustrating_stim/white_mw063.bmp'><br><font class='baseline'><strong>Matthew</strong><p>Choose number of points to send.</font><div class='respPicDiv'><img src='img/responseButtonOffersNo0L2.png' class='respPic'></div></div>","null","7","Matthew","5","Shared","0.8,0.35","10","0.8","trustrating_stim/white_mw063.bmp","6","81","21"
"html-keyboard-response","199","476721","0.0-19.0-3.20","63153455849b153d56dd81db","bdp_trlrn","Tue Mar 14 2023 16:29:52 GMT-0700 (Pacific Daylight Time)","728115","Untrustworthy,Trustworthy","","null","","","","feedback","","<div class='trialDiv'><img src='trustrating_stim/white_mw063.bmp'><br><font class='baseline'><strong>Matthew</strong><p>Received: <strong>8</strong></font> &nbsp; &nbsp; &nbsp; &nbsp; &nbsp; &nbsp;<font class='posOutcome'>Shared back: <strong>4</strong></font></font><div class='respPicDiv'><img src='img/responseButtonOffersNo0_wht.png' class='respPic'></div></div>","null","7","Matthew","5","Shared","0.8,0.35","10","0.8","trustrating_stim/white_mw063.bmp","6","85","21"
"html-keyboard-response","200","476993","0.0-19.0-1.21","63153455849b153d56dd81db","bdp_trlrn","Tue Mar 14 2023 16:29:52 GMT-0700 (Pacific Daylight Time)","728115","Untrustworthy,Trustworthy","","270","","","","decision","","<div class='trialDiv'><img src='trustrating_stim/white_00109_931230_fa_edt.bmp'><br><font class='baseline'><strong>Tyler</strong><p>Choose number of points to send.</font><div class='respPicDiv'><img src='img/responseButtonOffersNo0L.png' class='respPic'></div></div>","4","8","Tyler","8","Shared","0.35,0.65","12","0.35","trustrating_stim/white_00109_931230_fa_edt.bmp","7.5","90","22"
"html-keyboard-response","201","477248","0.0-19.0-2.21","63153455849b153d56dd81db","bdp_trlrn","Tue Mar 14 2023 16:29:52 GMT-0700 (Pacific Daylight Time)","728115","Untrustworthy,Trustworthy","","null","","","","decisionFB","","<div class='trialDiv'><img src='trustrating_stim/white_00109_931230_fa_edt.bmp'><br><font class='baseline'><strong>Tyler</strong><p>Choose number of points to send.</font><div class='respPicDiv'><img src='img/responseButtonOffersNo0L4.png' class='respPic'></div></div>","null","8","Tyler","8","Shared","0.35,0.65","12","0.35","trustrating_stim/white_00109_931230_fa_edt.bmp","7.5","86","22"
"html-keyboard-response","202","478257","0.0-19.0-3.21","63153455849b153d56dd81db","bdp_trlrn","Tue Mar 14 2023 16:29:52 GMT-0700 (Pacific Daylight Time)","728115","Untrustworthy,Trustworthy","","null","","","","feedback","","<div class='trialDiv'><img src='trustrating_stim/white_00109_931230_fa_edt.bmp'><br><font class='baseline'><strong>Tyler</strong><p>Received: <strong>16</strong></font> &nbsp; &nbsp; &nbsp; &nbsp; &nbsp; &nbsp;<font class='posOutcome'>Shared back: <strong>8</strong></font></font><div class='respPicDiv'><img src='img/responseButtonOffersNo0_wht.png' class='respPic'></div></div>","null","8","Tyler","8","Shared","0.35,0.65","12","0.35","trustrating_stim/white_00109_931230_fa_edt.bmp","7.5","94","22"
"html-keyboard-response","203","478704","0.0-19.0-1.22","63153455849b153d56dd81db","bdp_trlrn","Tue Mar 14 2023 16:29:52 GMT-0700 (Pacific Daylight Time)","728115","Untrustworthy,Trustworthy","","445","","","","decision","","<div class='trialDiv'><img src='trustrating_stim/white_mw097.bmp'><br><font class='baseline'><strong>Devin</strong><p>Choose number of points to send.</font><div class='respPicDiv'><img src='img/responseButtonOffersNo0L.png' class='respPic'></div></div>","5","8","Devin","1","Kept","0.2,0.65","11","0.2","trustrating_stim/white_mw097.bmp","3.5","99","23"
"html-keyboard-response","204","478969","0.0-19.0-2.22","63153455849b153d56dd81db","bdp_trlrn","Tue Mar 14 2023 16:29:52 GMT-0700 (Pacific Daylight Time)","728115","Untrustworthy,Trustworthy","","null","","","","decisionFB","","<div class='trialDiv'><img src='trustrating_stim/white_mw097.bmp'><br><font class='baseline'><strong>Devin</strong><p>Choose number of points to send.</font><div class='respPicDiv'><img src='img/responseButtonOffersNo0L5.png' class='respPic'></div></div>","null","8","Devin","1","Kept","0.2,0.65","11","0.2","trustrating_stim/white_mw097.bmp","3.5","94","23"
"html-keyboard-response","205","479978","0.0-19.0-3.22","63153455849b153d56dd81db","bdp_trlrn","Tue Mar 14 2023 16:29:52 GMT-0700 (Pacific Daylight Time)","728115","Untrustworthy,Trustworthy","","null","","","","feedback","","<div class='trialDiv'><img src='trustrating_stim/white_mw097.bmp'><br><font class='baseline'><strong>Devin</strong><p>Received: <strong>20</strong></font> &nbsp; &nbsp; &nbsp; &nbsp; &nbsp; &nbsp;<font class='negOutcome'>Shared back: <strong>0</strong></font></font><div class='respPicDiv'><img src='img/responseButtonOffersNo0_wht.png' class='respPic'></div></div>","null","8","Devin","1","Kept","0.2,0.65","11","0.2","trustrating_stim/white_mw097.bmp","3.5","94","23"
"html-keyboard-response","206","480120","0.0-19.0-1.23","63153455849b153d56dd81db","bdp_trlrn","Tue Mar 14 2023 16:29:52 GMT-0700 (Pacific Daylight Time)","728115","Untrustworthy,Trustworthy","","139","","","","decision","","<div class='trialDiv'><img src='trustrating_stim/white_mw063.bmp'><br><font class='baseline'><strong>Matthew</strong><p>Choose number of points to send.</font><div class='respPicDiv'><img src='img/responseButtonOffersNo0L.png' class='respPic'></div></div>","2","8","Matthew","5","Shared","0.8,0.35","10","0.8","trustrating_stim/white_mw063.bmp","6","99","24"
"html-keyboard-response","207","480385","0.0-19.0-2.23","63153455849b153d56dd81db","bdp_trlrn","Tue Mar 14 2023 16:29:52 GMT-0700 (Pacific Daylight Time)","728115","Untrustworthy,Trustworthy","","null","","","","decisionFB","","<div class='trialDiv'><img src='trustrating_stim/white_mw063.bmp'><br><font class='baseline'><strong>Matthew</strong><p>Choose number of points to send.</font><div class='respPicDiv'><img src='img/responseButtonOffersNo0L2.png' class='respPic'></div></div>","null","8","Matthew","5","Shared","0.8,0.35","10","0.8","trustrating_stim/white_mw063.bmp","6","97","24"
"html-keyboard-response","208","481393","0.0-19.0-3.23","63153455849b153d56dd81db","bdp_trlrn","Tue Mar 14 2023 16:29:52 GMT-0700 (Pacific Daylight Time)","728115","Untrustworthy,Trustworthy","","null","","","","feedback","","<div class='trialDiv'><img src='trustrating_stim/white_mw063.bmp'><br><font class='baseline'><strong>Matthew</strong><p>Received: <strong>8</strong></font> &nbsp; &nbsp; &nbsp; &nbsp; &nbsp; &nbsp;<font class='posOutcome'>Shared back: <strong>4</strong></font></font><div class='respPicDiv'><img src='img/responseButtonOffersNo0_wht.png' class='respPic'></div></div>","null","8","Matthew","5","Shared","0.8,0.35","10","0.8","trustrating_stim/white_mw063.bmp","6","101","24"
"html-keyboard-response","209","481872","0.0-19.0-1.24","63153455849b153d56dd81db","bdp_trlrn","Tue Mar 14 2023 16:29:52 GMT-0700 (Pacific Daylight Time)","728115","Untrustworthy,Trustworthy","","477","","","","decision","","<div class='trialDiv'><img src='trustrating_stim/white_00109_931230_fa_edt.bmp'><br><font class='baseline'><strong>Tyler</strong><p>Choose number of points to send.</font><div class='respPicDiv'><img src='img/responseButtonOffersNo0L.png' class='respPic'></div></div>","4","9","Tyler","8","Shared","0.35,0.65","12","0.35","trustrating_stim/white_00109_931230_fa_edt.bmp","7.5","106","25"
"html-keyboard-response","210","482135","0.0-19.0-2.24","63153455849b153d56dd81db","bdp_trlrn","Tue Mar 14 2023 16:29:52 GMT-0700 (Pacific Daylight Time)","728115","Untrustworthy,Trustworthy","","null","","","","decisionFB","","<div class='trialDiv'><img src='trustrating_stim/white_00109_931230_fa_edt.bmp'><br><font class='baseline'><strong>Tyler</strong><p>Choose number of points to send.</font><div class='respPicDiv'><img src='img/responseButtonOffersNo0L4.png' class='respPic'></div></div>","null","9","Tyler","8","Shared","0.35,0.65","12","0.35","trustrating_stim/white_00109_931230_fa_edt.bmp","7.5","102","25"
"html-keyboard-response","211","483143","0.0-19.0-3.24","63153455849b153d56dd81db","bdp_trlrn","Tue Mar 14 2023 16:29:52 GMT-0700 (Pacific Daylight Time)","728115","Untrustworthy,Trustworthy","","null","","","","feedback","","<div class='trialDiv'><img src='trustrating_stim/white_00109_931230_fa_edt.bmp'><br><font class='baseline'><strong>Tyler</strong><p>Received: <strong>16</strong></font> &nbsp; &nbsp; &nbsp; &nbsp; &nbsp; &nbsp;<font class='posOutcome'>Shared back: <strong>8</strong></font></font><div class='respPicDiv'><img src='img/responseButtonOffersNo0_wht.png' class='respPic'></div></div>","null","9","Tyler","8","Shared","0.35,0.65","12","0.35","trustrating_stim/white_00109_931230_fa_edt.bmp","7.5","110","25"
"html-keyboard-response","212","483608","0.0-19.0-1.25","63153455849b153d56dd81db","bdp_trlrn","Tue Mar 14 2023 16:29:52 GMT-0700 (Pacific Daylight Time)","728115","Untrustworthy,Trustworthy","","462","","","","decision","","<div class='trialDiv'><img src='trustrating_stim/white_mw063.bmp'><br><font class='baseline'><strong>Matthew</strong><p>Choose number of points to send.</font><div class='respPicDiv'><img src='img/responseButtonOffersNo0L.png' class='respPic'></div></div>","1","9","Matthew","5","Shared","0.8,0.35","10","0.8","trustrating_stim/white_mw063.bmp","6","115","26"
"html-keyboard-response","213","483865","0.0-19.0-2.25","63153455849b153d56dd81db","bdp_trlrn","Tue Mar 14 2023 16:29:52 GMT-0700 (Pacific Daylight Time)","728115","Untrustworthy,Trustworthy","","null","","","","decisionFB","","<div class='trialDiv'><img src='trustrating_stim/white_mw063.bmp'><br><font class='baseline'><strong>Matthew</strong><p>Choose number of points to send.</font><div class='respPicDiv'><img src='img/responseButtonOffersNo0L1.png' class='respPic'></div></div>","null","9","Matthew","5","Shared","0.8,0.35","10","0.8","trustrating_stim/white_mw063.bmp","6","114","26"
"html-keyboard-response","214","484872","0.0-19.0-3.25","63153455849b153d56dd81db","bdp_trlrn","Tue Mar 14 2023 16:29:52 GMT-0700 (Pacific Daylight Time)","728115","Untrustworthy,Trustworthy","","null","","","","feedback","","<div class='trialDiv'><img src='trustrating_stim/white_mw063.bmp'><br><font class='baseline'><strong>Matthew</strong><p>Received: <strong>4</strong></font> &nbsp; &nbsp; &nbsp; &nbsp; &nbsp; &nbsp;<font class='posOutcome'>Shared back: <strong>2</strong></font></font><div class='respPicDiv'><img src='img/responseButtonOffersNo0_wht.png' class='respPic'></div></div>","null","9","Matthew","5","Shared","0.8,0.35","10","0.8","trustrating_stim/white_mw063.bmp","6","116","26"
"html-keyboard-response","215","485416","0.0-19.0-1.26","63153455849b153d56dd81db","bdp_trlrn","Tue Mar 14 2023 16:29:52 GMT-0700 (Pacific Daylight Time)","728115","Untrustworthy,Trustworthy","","541","","","","decision","","<div class='trialDiv'><img src='trustrating_stim/white_mw097.bmp'><br><font class='baseline'><strong>Devin</strong><p>Choose number of points to send.</font><div class='respPicDiv'><img src='img/responseButtonOffersNo0L.png' class='respPic'></div></div>","4","9","Devin","1","Kept","0.2,0.65","11","0.2","trustrating_stim/white_mw097.bmp","3.5","121","27"
"html-keyboard-response","216","485675","0.0-19.0-2.26","63153455849b153d56dd81db","bdp_trlrn","Tue Mar 14 2023 16:29:52 GMT-0700 (Pacific Daylight Time)","728115","Untrustworthy,Trustworthy","","null","","","","decisionFB","","<div class='trialDiv'><img src='trustrating_stim/white_mw097.bmp'><br><font class='baseline'><strong>Devin</strong><p>Choose number of points to send.</font><div class='respPicDiv'><img src='img/responseButtonOffersNo0L4.png' class='respPic'></div></div>","null","9","Devin","1","Kept","0.2,0.65","11","0.2","trustrating_stim/white_mw097.bmp","3.5","117","27"
"html-keyboard-response","217","486684","0.0-19.0-3.26","63153455849b153d56dd81db","bdp_trlrn","Tue Mar 14 2023 16:29:52 GMT-0700 (Pacific Daylight Time)","728115","Untrustworthy,Trustworthy","","null","","","","feedback","","<div class='trialDiv'><img src='trustrating_stim/white_mw097.bmp'><br><font class='baseline'><strong>Devin</strong><p>Received: <strong>16</strong></font> &nbsp; &nbsp; &nbsp; &nbsp; &nbsp; &nbsp;<font class='negOutcome'>Shared back: <strong>0</strong></font></font><div class='respPicDiv'><img src='img/responseButtonOffersNo0_wht.png' class='respPic'></div></div>","null","9","Devin","1","Kept","0.2,0.65","11","0.2","trustrating_stim/white_mw097.bmp","3.5","117","27"
"html-keyboard-response","218","486840","0.0-19.0-1.27","63153455849b153d56dd81db","bdp_trlrn","Tue Mar 14 2023 16:29:52 GMT-0700 (Pacific Daylight Time)","728115","Untrustworthy,Trustworthy","","154","","","","decision","","<div class='trialDiv'><img src='trustrating_stim/white_00109_931230_fa_edt.bmp'><br><font class='baseline'><strong>Tyler</strong><p>Choose number of points to send.</font><div class='respPicDiv'><img src='img/responseButtonOffersNo0L.png' class='respPic'></div></div>","3","10","Tyler","8","Kept","0.35,0.65","12","0.35","trustrating_stim/white_00109_931230_fa_edt.bmp","7.5","122","28"
"html-keyboard-response","219","487099","0.0-19.0-2.27","63153455849b153d56dd81db","bdp_trlrn","Tue Mar 14 2023 16:29:52 GMT-0700 (Pacific Daylight Time)","728115","Untrustworthy,Trustworthy","","null","","","","decisionFB","","<div class='trialDiv'><img src='trustrating_stim/white_00109_931230_fa_edt.bmp'><br><font class='baseline'><strong>Tyler</strong><p>Choose number of points to send.</font><div class='respPicDiv'><img src='img/responseButtonOffersNo0L3.png' class='respPic'></div></div>","null","10","Tyler","8","Kept","0.35,0.65","12","0.35","trustrating_stim/white_00109_931230_fa_edt.bmp","7.5","119","28"
"html-keyboard-response","220","488107","0.0-19.0-3.27","63153455849b153d56dd81db","bdp_trlrn","Tue Mar 14 2023 16:29:52 GMT-0700 (Pacific Daylight Time)","728115","Untrustworthy,Trustworthy","","null","","","","feedback","","<div class='trialDiv'><img src='trustrating_stim/white_00109_931230_fa_edt.bmp'><br><font class='baseline'><strong>Tyler</strong><p>Received: <strong>12</strong></font> &nbsp; &nbsp; &nbsp; &nbsp; &nbsp; &nbsp;<font class='negOutcome'>Shared back: <strong>0</strong></font></font><div class='respPicDiv'><img src='img/responseButtonOffersNo0_wht.png' class='respPic'></div></div>","null","10","Tyler","8","Kept","0.35,0.65","12","0.35","trustrating_stim/white_00109_931230_fa_edt.bmp","7.5","119","28"
"html-keyboard-response","221","488248","0.0-19.0-1.28","63153455849b153d56dd81db","bdp_trlrn","Tue Mar 14 2023 16:29:52 GMT-0700 (Pacific Daylight Time)","728115","Untrustworthy,Trustworthy","","138","","","","decision","","<div class='trialDiv'><img src='trustrating_stim/white_mw097.bmp'><br><font class='baseline'><strong>Devin</strong><p>Choose number of points to send.</font><div class='respPicDiv'><img src='img/responseButtonOffersNo0L.png' class='respPic'></div></div>","2","10","Devin","1","Kept","0.2,0.65","11","0.2","trustrating_stim/white_mw097.bmp","3.5","124","29"
