"trial_type","trial_index","time_elapsed","internal_node_id","subject_id","task","startTime","totalTime","labels","view_history","rt","event","trial","time","trialtype","success","stimulus","key_press","aground","name","faceID","outcome","agenttype","agentswpt","agentcurrpshare","face","avgRating","point_total","round"
"pavlovia","0","4","0.0-0.0","63daf5a89c63648ec34664fb","bdp_trlrn","Tue Mar 14 2023 20:58:07 GMT-0400 (Eastern Daylight Time)","749083","Trustworthy,Untrustworthy","","","","","","","","","","","","","","","","","","","",""
"instructions","1","6160","0.0-1.0","63daf5a89c63648ec34664fb","bdp_trlrn","Tue Mar 14 2023 20:58:07 GMT-0400 (Eastern Daylight Time)","749083","Trustworthy,Untrustworthy","[{""page_index"":0,""viewing_time"":6155}]","6155","","","","","","","","","","","","","","","","","",""
"","","","","63daf5a89c63648ec34664fb","bdp_trlrn","Tue Mar 14 2023 20:58:07 GMT-0400 (Eastern Daylight Time)","749083","Trustworthy,Untrustworthy","","","fullscreenenter","2","10409","fullscreenenter","","","","","","","","","","","","","",""
"fullscreen","2","11395","0.0-2.0","63daf5a89c63648ec34664fb","bdp_trlrn","Tue Mar 14 2023 20:58:07 GMT-0400 (Eastern Daylight Time)","749083","Trustworthy,Untrustworthy","","","","","","","true","","","","","","","","","","","","",""
"instructions","3","48357","0.0-4.0","63daf5a89c63648ec34664fb","bdp_trlrn","Tue Mar 14 2023 20:58:07 GMT-0400 (Eastern Daylight Time)","749083","Trustworthy,Untrustworthy","[{""page_index"":0,""viewing_time"":10636},{""page_index"":1,""viewing_time"":26325}]","36961","","","","","","","","","","","","","","","","","",""
"instructions","4","50544","0.0-5.0","63daf5a89c63648ec34664fb","bdp_trlrn","Tue Mar 14 2023 20:58:07 GMT-0400 (Eastern Daylight Time)","749083","Trustworthy,Untrustworthy","[{""page_index"":0,""viewing_time"":2186}]","2186","","","","","","","","","","","","","","","","","",""
"image-keyboard-response","5","54669","0.0-6.0-1.0","63daf5a89c63648ec34664fb","bdp_trlrn","Tue Mar 14 2023 20:58:07 GMT-0400 (Eastern Daylight Time)","749083","Trustworthy,Untrustworthy","","4015","","","","rating","","trustrating_stim/white_mw099.bmp","6","","","","","","","","","","",""
"image-keyboard-response","6","54878","0.0-6.0-2.0","63daf5a89c63648ec34664fb","bdp_trlrn","Tue Mar 14 2023 20:58:07 GMT-0400 (Eastern Daylight Time)","749083","Trustworthy,Untrustworthy","","null","","","","ratingFB","","trustrating_stim/white_mw099.bmp","null","","","","","","","","","","",""
"image-keyboard-response","7","58505","0.0-6.0-1.1","63daf5a89c63648ec34664fb","bdp_trlrn","Tue Mar 14 2023 20:58:07 GMT-0400 (Eastern Daylight Time)","749083","Trustworthy,Untrustworthy","","3516","","","","rating","","trustrating_stim/white_mw033.bmp","4","","","","","","","","","","",""
"image-keyboard-response","8","58715","0.0-6.0-2.1","63daf5a89c63648ec34664fb","bdp_trlrn","Tue Mar 14 2023 20:58:07 GMT-0400 (Eastern Daylight Time)","749083","Trustworthy,Untrustworthy","","null","","","","ratingFB","","trustrating_stim/white_mw033.bmp","null","","","","","","","","","","",""
"image-keyboard-response","9","61839","0.0-6.0-1.2","63daf5a89c63648ec34664fb","bdp_trlrn","Tue Mar 14 2023 20:58:07 GMT-0400 (Eastern Daylight Time)","749083","Trustworthy,Untrustworthy","","3022","","","","rating","","trustrating_stim/white_00129_931230_fb_edt.bmp","7","","","","","","","","","","",""
"image-keyboard-response","10","62049","0.0-6.0-2.2","63daf5a89c63648ec34664fb","bdp_trlrn","Tue Mar 14 2023 20:58:07 GMT-0400 (Eastern Daylight Time)","749083","Trustworthy,Untrustworthy","","null","","","","ratingFB","","trustrating_stim/white_00129_931230_fb_edt.bmp","null","","","","","","","","","","",""
"image-keyboard-response","11","65489","0.0-6.0-1.3","63daf5a89c63648ec34664fb","bdp_trlrn","Tue Mar 14 2023 20:58:07 GMT-0400 (Eastern Daylight Time)","749083","Trustworthy,Untrustworthy","","3331","","","","rating","","trustrating_stim/white_mw035.bmp","7","","","","","","","","","","",""
"image-keyboard-response","12","65698","0.0-6.0-2.3","63daf5a89c63648ec34664fb","bdp_trlrn","Tue Mar 14 2023 20:58:07 GMT-0400 (Eastern Daylight Time)","749083","Trustworthy,Untrustworthy","","null","","","","ratingFB","","trustrating_stim/white_mw035.bmp","null","","","","","","","","","","",""
"image-keyboard-response","13","67949","0.0-6.0-1.4","63daf5a89c63648ec34664fb","bdp_trlrn","Tue Mar 14 2023 20:58:07 GMT-0400 (Eastern Daylight Time)","749083","Trustworthy,Untrustworthy","","2147","","","","rating","","trustrating_stim/white_00761_941201_fb_edt.bmp","3","","","","","","","","","","",""
"image-keyboard-response","14","68154","0.0-6.0-2.4","63daf5a89c63648ec34664fb","bdp_trlrn","Tue Mar 14 2023 20:58:07 GMT-0400 (Eastern Daylight Time)","749083","Trustworthy,Untrustworthy","","null","","","","ratingFB","","trustrating_stim/white_00761_941201_fb_edt.bmp","null","","","","","","","","","","",""
"image-keyboard-response","15","70026","0.0-6.0-1.5","63daf5a89c63648ec34664fb","bdp_trlrn","Tue Mar 14 2023 20:58:07 GMT-0400 (Eastern Daylight Time)","749083","Trustworthy,Untrustworthy","","1769","","","","rating","","trustrating_stim/white_00577_940928_fa_edt.bmp","3","","","","","","","","","","",""
"image-keyboard-response","16","70235","0.0-6.0-2.5","63daf5a89c63648ec34664fb","bdp_trlrn","Tue Mar 14 2023 20:58:07 GMT-0400 (Eastern Daylight Time)","749083","Trustworthy,Untrustworthy","","null","","","","ratingFB","","trustrating_stim/white_00577_940928_fa_edt.bmp","null","","","","","","","","","","",""
"image-keyboard-response","17","73087","0.0-6.0-1.6","63daf5a89c63648ec34664fb","bdp_trlrn","Tue Mar 14 2023 20:58:07 GMT-0400 (Eastern Daylight Time)","749083","Trustworthy,Untrustworthy","","2749","","","","rating","","trustrating_stim/white_00898_960530_fa_edt.bmp","8","","","","","","","","","","",""
"image-keyboard-response","18","73291","0.0-6.0-2.6","63daf5a89c63648ec34664fb","bdp_trlrn","Tue Mar 14 2023 20:58:07 GMT-0400 (Eastern Daylight Time)","749083","Trustworthy,Untrustworthy","","null","","","","ratingFB","","trustrating_stim/white_00898_960530_fa_edt.bmp","null","","","","","","","","","","",""
"image-keyboard-response","19","75886","0.0-6.0-1.7","63daf5a89c63648ec34664fb","bdp_trlrn","Tue Mar 14 2023 20:58:07 GMT-0400 (Eastern Daylight Time)","749083","Trustworthy,Untrustworthy","","2490","","","","rating","","trustrating_stim/white_00757_941201_fa_edt.bmp","3","","","","","","","","","","",""
"image-keyboard-response","20","76089","0.0-6.0-2.7","63daf5a89c63648ec34664fb","bdp_trlrn","Tue Mar 14 2023 20:58:07 GMT-0400 (Eastern Daylight Time)","749083","Trustworthy,Untrustworthy","","null","","","","ratingFB","","trustrating_stim/white_00757_941201_fa_edt.bmp","null","","","","","","","","","","",""
"image-keyboard-response","21","77334","0.0-6.0-1.8","63daf5a89c63648ec34664fb","bdp_trlrn","Tue Mar 14 2023 20:58:07 GMT-0400 (Eastern Daylight Time)","749083","Trustworthy,Untrustworthy","","1140","","","","rating","","trustrating_stim/white_00109_931230_fa_edt.bmp","8","","","","","","","","","","",""
"image-keyboard-response","22","77538","0.0-6.0-2.8","63daf5a89c63648ec34664fb","bdp_trlrn","Tue Mar 14 2023 20:58:07 GMT-0400 (Eastern Daylight Time)","749083","Trustworthy,Untrustworthy","","null","","","","ratingFB","","trustrating_stim/white_00109_931230_fa_edt.bmp","null","","","","","","","","","","",""
"image-keyboard-response","23","79295","0.0-6.0-1.9","63daf5a89c63648ec34664fb","bdp_trlrn","Tue Mar 14 2023 20:58:07 GMT-0400 (Eastern Daylight Time)","749083","Trustworthy,Untrustworthy","","1651","","","","rating","","trustrating_stim/white_00120_931230_fa_edt.bmp","9","","","","","","","","","","",""
"image-keyboard-response","24","79496","0.0-6.0-2.9","63daf5a89c63648ec34664fb","bdp_trlrn","Tue Mar 14 2023 20:58:07 GMT-0400 (Eastern Daylight Time)","749083","Trustworthy,Untrustworthy","","null","","","","ratingFB","","trustrating_stim/white_00120_931230_fa_edt.bmp","null","","","","","","","","","","",""
"image-keyboard-response","25","81375","0.0-6.0-1.10","63daf5a89c63648ec34664fb","bdp_trlrn","Tue Mar 14 2023 20:58:07 GMT-0400 (Eastern Daylight Time)","749083","Trustworthy,Untrustworthy","","1774","","","","rating","","trustrating_stim/white_mw097.bmp","4","","","","","","","","","","",""
"image-keyboard-response","26","81576","0.0-6.0-2.10","63daf5a89c63648ec34664fb","bdp_trlrn","Tue Mar 14 2023 20:58:07 GMT-0400 (Eastern Daylight Time)","749083","Trustworthy,Untrustworthy","","null","","","","ratingFB","","trustrating_stim/white_mw097.bmp","null","","","","","","","","","","",""
"image-keyboard-response","27","83582","0.0-6.0-1.11","63daf5a89c63648ec34664fb","bdp_trlrn","Tue Mar 14 2023 20:58:07 GMT-0400 (Eastern Daylight Time)","749083","Trustworthy,Untrustworthy","","1900","","","","rating","","trustrating_stim/white_00602_940928_fb_edt.bmp","9","","","","","","","","","","",""
"image-keyboard-response","28","83785","0.0-6.0-2.11","63daf5a89c63648ec34664fb","bdp_trlrn","Tue Mar 14 2023 20:58:07 GMT-0400 (Eastern Daylight Time)","749083","Trustworthy,Untrustworthy","","null","","","","ratingFB","","trustrating_stim/white_00602_940928_fb_edt.bmp","null","","","","","","","","","","",""
"image-keyboard-response","29","85998","0.0-6.0-1.12","63daf5a89c63648ec34664fb","bdp_trlrn","Tue Mar 14 2023 20:58:07 GMT-0400 (Eastern Daylight Time)","749083","Trustworthy,Untrustworthy","","2107","","","","rating","","trustrating_stim/white_mw066.bmp","8","","","","","","","","","","",""
"image-keyboard-response","30","86201","0.0-6.0-2.12","63daf5a89c63648ec34664fb","bdp_trlrn","Tue Mar 14 2023 20:58:07 GMT-0400 (Eastern Daylight Time)","749083","Trustworthy,Untrustworthy","","null","","","","ratingFB","","trustrating_stim/white_mw066.bmp","null","","","","","","","","","","",""
"image-keyboard-response","31","89123","0.0-6.0-1.13","63daf5a89c63648ec34664fb","bdp_trlrn","Tue Mar 14 2023 20:58:07 GMT-0400 (Eastern Daylight Time)","749083","Trustworthy,Untrustworthy","","2815","","","","rating","","trustrating_stim/white_00299_940422_fa_edt.bmp","6","","","","","","","","","","",""
"image-keyboard-response","32","89328","0.0-6.0-2.13","63daf5a89c63648ec34664fb","bdp_trlrn","Tue Mar 14 2023 20:58:07 GMT-0400 (Eastern Daylight Time)","749083","Trustworthy,Untrustworthy","","null","","","","ratingFB","","trustrating_stim/white_00299_940422_fa_edt.bmp","null","","","","","","","","","","",""
"image-keyboard-response","33","91503","0.0-6.0-1.14","63daf5a89c63648ec34664fb","bdp_trlrn","Tue Mar 14 2023 20:58:07 GMT-0400 (Eastern Daylight Time)","749083","Trustworthy,Untrustworthy","","2068","","","","rating","","trustrating_stim/white_00519_940519_fb_edt.bmp","3","","","","","","","","","","",""
"image-keyboard-response","34","91715","0.0-6.0-2.14","63daf5a89c63648ec34664fb","bdp_trlrn","Tue Mar 14 2023 20:58:07 GMT-0400 (Eastern Daylight Time)","749083","Trustworthy,Untrustworthy","","null","","","","ratingFB","","trustrating_stim/white_00519_940519_fb_edt.bmp","null","","","","","","","","","","",""
"image-keyboard-response","35","93685","0.0-6.0-1.15","63daf5a89c63648ec34664fb","bdp_trlrn","Tue Mar 14 2023 20:58:07 GMT-0400 (Eastern Daylight Time)","749083","Trustworthy,Untrustworthy","","1866","","","","rating","","trustrating_stim/white_00807_941205_fb_edt.bmp","4","","","","","","","","","","",""
"image-keyboard-response","36","93892","0.0-6.0-2.15","63daf5a89c63648ec34664fb","bdp_trlrn","Tue Mar 14 2023 20:58:07 GMT-0400 (Eastern Daylight Time)","749083","Trustworthy,Untrustworthy","","null","","","","ratingFB","","trustrating_stim/white_00807_941205_fb_edt.bmp","null","","","","","","","","","","",""
"image-keyboard-response","37","96110","0.0-6.0-1.16","63daf5a89c63648ec34664fb","bdp_trlrn","Tue Mar 14 2023 20:58:07 GMT-0400 (Eastern Daylight Time)","749083","Trustworthy,Untrustworthy","","2115","","","","rating","","trustrating_stim/white_mw071.bmp","3","","","","","","","","","","",""
"image-keyboard-response","38","96313","0.0-6.0-2.16","63daf5a89c63648ec34664fb","bdp_trlrn","Tue Mar 14 2023 20:58:07 GMT-0400 (Eastern Daylight Time)","749083","Trustworthy,Untrustworthy","","null","","","","ratingFB","","trustrating_stim/white_mw071.bmp","null","","","","","","","","","","",""
"image-keyboard-response","39","98861","0.0-6.0-1.17","63daf5a89c63648ec34664fb","bdp_trlrn","Tue Mar 14 2023 20:58:07 GMT-0400 (Eastern Daylight Time)","749083","Trustworthy,Untrustworthy","","2443","","","","rating","","trustrating_stim/white_mw053.bmp","4","","","","","","","","","","",""
"image-keyboard-response","40","99064","0.0-6.0-2.17","63daf5a89c63648ec34664fb","bdp_trlrn","Tue Mar 14 2023 20:58:07 GMT-0400 (Eastern Daylight Time)","749083","Trustworthy,Untrustworthy","","null","","","","ratingFB","","trustrating_stim/white_mw053.bmp","null","","","","","","","","","","",""
"image-keyboard-response","41","101061","0.0-6.0-1.18","63daf5a89c63648ec34664fb","bdp_trlrn","Tue Mar 14 2023 20:58:07 GMT-0400 (Eastern Daylight Time)","749083","Trustworthy,Untrustworthy","","1892","","","","rating","","trustrating_stim/white_mw056.bmp","3","","","","","","","","","","",""
"image-keyboard-response","42","101267","0.0-6.0-2.18","63daf5a89c63648ec34664fb","bdp_trlrn","Tue Mar 14 2023 20:58:07 GMT-0400 (Eastern Daylight Time)","749083","Trustworthy,Untrustworthy","","null","","","","ratingFB","","trustrating_stim/white_mw056.bmp","null","","","","","","","","","","",""
"image-keyboard-response","43","102941","0.0-6.0-1.19","63daf5a89c63648ec34664fb","bdp_trlrn","Tue Mar 14 2023 20:58:07 GMT-0400 (Eastern Daylight Time)","749083","Trustworthy,Untrustworthy","","1572","","","","rating","","trustrating_stim/white_00340_940422_fa_edt.bmp","2","","","","","","","","","","",""
"image-keyboard-response","44","103144","0.0-6.0-2.19","63daf5a89c63648ec34664fb","bdp_trlrn","Tue Mar 14 2023 20:58:07 GMT-0400 (Eastern Daylight Time)","749083","Trustworthy,Untrustworthy","","null","","","","ratingFB","","trustrating_stim/white_00340_940422_fa_edt.bmp","null","","","","","","","","","","",""
"image-keyboard-response","45","104829","0.0-6.0-1.20","63daf5a89c63648ec34664fb","bdp_trlrn","Tue Mar 14 2023 20:58:07 GMT-0400 (Eastern Daylight Time)","749083","Trustworthy,Untrustworthy","","1581","","","","rating","","trustrating_stim/white_00659_941121_fa_edt.bmp","3","","","","","","","","","","",""
"image-keyboard-response","46","105032","0.0-6.0-2.20","63daf5a89c63648ec34664fb","bdp_trlrn","Tue Mar 14 2023 20:58:07 GMT-0400 (Eastern Daylight Time)","749083","Trustworthy,Untrustworthy","","null","","","","ratingFB","","trustrating_stim/white_00659_941121_fa_edt.bmp","null","","","","","","","","","","",""
"image-keyboard-response","47","107491","0.0-6.0-1.21","63daf5a89c63648ec34664fb","bdp_trlrn","Tue Mar 14 2023 20:58:07 GMT-0400 (Eastern Daylight Time)","749083","Trustworthy,Untrustworthy","","2354","","","","rating","","trustrating_stim/white_mw048.bmp","3","","","","","","","","","","",""
"image-keyboard-response","48","107696","0.0-6.0-2.21","63daf5a89c63648ec34664fb","bdp_trlrn","Tue Mar 14 2023 20:58:07 GMT-0400 (Eastern Daylight Time)","749083","Trustworthy,Untrustworthy","","null","","","","ratingFB","","trustrating_stim/white_mw048.bmp","null","","","","","","","","","","",""
"image-keyboard-response","49","109421","0.0-6.0-1.22","63daf5a89c63648ec34664fb","bdp_trlrn","Tue Mar 14 2023 20:58:07 GMT-0400 (Eastern Daylight Time)","749083","Trustworthy,Untrustworthy","","1620","","","","rating","","trustrating_stim/white_mw060.bmp","2","","","","","","","","","","",""
"image-keyboard-response","50","109624","0.0-6.0-2.22","63daf5a89c63648ec34664fb","bdp_trlrn","Tue Mar 14 2023 20:58:07 GMT-0400 (Eastern Daylight Time)","749083","Trustworthy,Untrustworthy","","null","","","","ratingFB","","trustrating_stim/white_mw060.bmp","null","","","","","","","","","","",""
"image-keyboard-response","51","112365","0.0-6.0-1.23","63daf5a89c63648ec34664fb","bdp_trlrn","Tue Mar 14 2023 20:58:07 GMT-0400 (Eastern Daylight Time)","749083","Trustworthy,Untrustworthy","","2637","","","","rating","","trustrating_stim/white_mw049.bmp","5","","","","","","","","","","",""
"image-keyboard-response","52","112568","0.0-6.0-2.23","63daf5a89c63648ec34664fb","bdp_trlrn","Tue Mar 14 2023 20:58:07 GMT-0400 (Eastern Daylight Time)","749083","Trustworthy,Untrustworthy","","null","","","","ratingFB","","trustrating_stim/white_mw049.bmp","null","","","","","","","","","","",""
"image-keyboard-response","53","114975","0.0-6.0-1.24","63daf5a89c63648ec34664fb","bdp_trlrn","Tue Mar 14 2023 20:58:07 GMT-0400 (Eastern Daylight Time)","749083","Trustworthy,Untrustworthy","","2301","","","","rating","","trustrating_stim/white_mw089.bmp","8","","","","","","","","","","",""
"image-keyboard-response","54","115185","0.0-6.0-2.24","63daf5a89c63648ec34664fb","bdp_trlrn","Tue Mar 14 2023 20:58:07 GMT-0400 (Eastern Daylight Time)","749083","Trustworthy,Untrustworthy","","null","","","","ratingFB","","trustrating_stim/white_mw089.bmp","null","","","","","","","","","","",""
"image-keyboard-response","55","117199","0.0-6.0-1.25","63daf5a89c63648ec34664fb","bdp_trlrn","Tue Mar 14 2023 20:58:07 GMT-0400 (Eastern Daylight Time)","749083","Trustworthy,Untrustworthy","","1910","","","","rating","","trustrating_stim/white_00785_941205_fb_edt.bmp","2","","","","","","","","","","",""
"image-keyboard-response","56","117408","0.0-6.0-2.25","63daf5a89c63648ec34664fb","bdp_trlrn","Tue Mar 14 2023 20:58:07 GMT-0400 (Eastern Daylight Time)","749083","Trustworthy,Untrustworthy","","null","","","","ratingFB","","trustrating_stim/white_00785_941205_fb_edt.bmp","null","","","","","","","","","","",""
"image-keyboard-response","57","120413","0.0-6.0-1.26","63daf5a89c63648ec34664fb","bdp_trlrn","Tue Mar 14 2023 20:58:07 GMT-0400 (Eastern Daylight Time)","749083","Trustworthy,Untrustworthy","","2901","","","","rating","","trustrating_stim/white_mw084.bmp","8","","","","","","","","","","",""
"image-keyboard-response","58","120618","0.0-6.0-2.26","63daf5a89c63648ec34664fb","bdp_trlrn","Tue Mar 14 2023 20:58:07 GMT-0400 (Eastern Daylight Time)","749083","Trustworthy,Untrustworthy","","null","","","","ratingFB","","trustrating_stim/white_mw084.bmp","null","","","","","","","","","","",""
"image-keyboard-response","59","122597","0.0-6.0-1.27","63daf5a89c63648ec34664fb","bdp_trlrn","Tue Mar 14 2023 20:58:07 GMT-0400 (Eastern Daylight Time)","749083","Trustworthy,Untrustworthy","","1875","","","","rating","","trustrating_stim/white_mw063.bmp","2","","","","","","","","","","",""
"image-keyboard-response","60","122801","0.0-6.0-2.27","63daf5a89c63648ec34664fb","bdp_trlrn","Tue Mar 14 2023 20:58:07 GMT-0400 (Eastern Daylight Time)","749083","Trustworthy,Untrustworthy","","null","","","","ratingFB","","trustrating_stim/white_mw063.bmp","null","","","","","","","","","","",""
"image-keyboard-response","61","124605","0.0-6.0-1.28","63daf5a89c63648ec34664fb","bdp_trlrn","Tue Mar 14 2023 20:58:07 GMT-0400 (Eastern Daylight Time)","749083","Trustworthy,Untrustworthy","","1700","","","","rating","","trustrating_stim/white_mw046.bmp","4","","","","","","","","","","",""
"image-keyboard-response","62","124807","0.0-6.0-2.28","63daf5a89c63648ec34664fb","bdp_trlrn","Tue Mar 14 2023 20:58:07 GMT-0400 (Eastern Daylight Time)","749083","Trustworthy,Untrustworthy","","null","","","","ratingFB","","trustrating_stim/white_mw046.bmp","null","","","","","","","","","","",""
"image-keyboard-response","63","126742","0.0-6.0-1.29","63daf5a89c63648ec34664fb","bdp_trlrn","Tue Mar 14 2023 20:58:07 GMT-0400 (Eastern Daylight Time)","749083","Trustworthy,Untrustworthy","","1828","","","","rating","","trustrating_stim/white_00223_940128_fb_edt.bmp","8","","","","","","","","","","",""
"image-keyboard-response","64","126943","0.0-6.0-2.29","63daf5a89c63648ec34664fb","bdp_trlrn","Tue Mar 14 2023 20:58:07 GMT-0400 (Eastern Daylight Time)","749083","Trustworthy,Untrustworthy","","null","","","","ratingFB","","trustrating_stim/white_00223_940128_fb_edt.bmp","null","","","","","","","","","","",""
"image-keyboard-response","65","132077","0.0-6.0-1.30","63daf5a89c63648ec34664fb","bdp_trlrn","Tue Mar 14 2023 20:58:07 GMT-0400 (Eastern Daylight Time)","749083","Trustworthy,Untrustworthy","","5029","","","","rating","","trustrating_stim/white_mw053.bmp","8","","","","","","","","","","",""
"image-keyboard-response","66","132280","0.0-6.0-2.30","63daf5a89c63648ec34664fb","bdp_trlrn","Tue Mar 14 2023 20:58:07 GMT-0400 (Eastern Daylight Time)","749083","Trustworthy,Untrustworthy","","null","","","","ratingFB","","trustrating_stim/white_mw053.bmp","null","","","","","","","","","","",""
"image-keyboard-response","67","134453","0.0-6.0-1.31","63daf5a89c63648ec34664fb","bdp_trlrn","Tue Mar 14 2023 20:58:07 GMT-0400 (Eastern Daylight Time)","749083","Trustworthy,Untrustworthy","","2068","","","","rating","","trustrating_stim/white_00129_931230_fb_edt.bmp","7","","","","","","","","","","",""
"image-keyboard-response","68","134655","0.0-6.0-2.31","63daf5a89c63648ec34664fb","bdp_trlrn","Tue Mar 14 2023 20:58:07 GMT-0400 (Eastern Daylight Time)","749083","Trustworthy,Untrustworthy","","null","","","","ratingFB","","trustrating_stim/white_00129_931230_fb_edt.bmp","null","","","","","","","","","","",""
"image-keyboard-response","69","137814","0.0-6.0-1.32","63daf5a89c63648ec34664fb","bdp_trlrn","Tue Mar 14 2023 20:58:07 GMT-0400 (Eastern Daylight Time)","749083","Trustworthy,Untrustworthy","","3052","","","","rating","","trustrating_stim/white_mw049.bmp","8","","","","","","","","","","",""
"image-keyboard-response","70","138015","0.0-6.0-2.32","63daf5a89c63648ec34664fb","bdp_trlrn","Tue Mar 14 2023 20:58:07 GMT-0400 (Eastern Daylight Time)","749083","Trustworthy,Untrustworthy","","null","","","","ratingFB","","trustrating_stim/white_mw049.bmp","null","","","","","","","","","","",""
"image-keyboard-response","71","139847","0.0-6.0-1.33","63daf5a89c63648ec34664fb","bdp_trlrn","Tue Mar 14 2023 20:58:07 GMT-0400 (Eastern Daylight Time)","749083","Trustworthy,Untrustworthy","","1726","","","","rating","","trustrating_stim/white_mw071.bmp","8","","","","","","","","","","",""
"image-keyboard-response","72","140058","0.0-6.0-2.33","63daf5a89c63648ec34664fb","bdp_trlrn","Tue Mar 14 2023 20:58:07 GMT-0400 (Eastern Daylight Time)","749083","Trustworthy,Untrustworthy","","null","","","","ratingFB","","trustrating_stim/white_mw071.bmp","null","","","","","","","","","","",""
"image-keyboard-response","73","143956","0.0-6.0-1.34","63daf5a89c63648ec34664fb","bdp_trlrn","Tue Mar 14 2023 20:58:07 GMT-0400 (Eastern Daylight Time)","749083","Trustworthy,Untrustworthy","","3793","","","","rating","","trustrating_stim/white_mw089.bmp","8","","","","","","","","","","",""
"image-keyboard-response","74","144161","0.0-6.0-2.34","63daf5a89c63648ec34664fb","bdp_trlrn","Tue Mar 14 2023 20:58:07 GMT-0400 (Eastern Daylight Time)","749083","Trustworthy,Untrustworthy","","null","","","","ratingFB","","trustrating_stim/white_mw089.bmp","null","","","","","","","","","","",""
"image-keyboard-response","75","145382","0.0-6.0-1.35","63daf5a89c63648ec34664fb","bdp_trlrn","Tue Mar 14 2023 20:58:07 GMT-0400 (Eastern Daylight Time)","749083","Trustworthy,Untrustworthy","","1110","","","","rating","","trustrating_stim/white_00602_940928_fb_edt.bmp","8","","","","","","","","","","",""
"image-keyboard-response","76","145586","0.0-6.0-2.35","63daf5a89c63648ec34664fb","bdp_trlrn","Tue Mar 14 2023 20:58:07 GMT-0400 (Eastern Daylight Time)","749083","Trustworthy,Untrustworthy","","null","","","","ratingFB","","trustrating_stim/white_00602_940928_fb_edt.bmp","null","","","","","","","","","","",""
"image-keyboard-response","77","146772","0.0-6.0-1.36","63daf5a89c63648ec34664fb","bdp_trlrn","Tue Mar 14 2023 20:58:07 GMT-0400 (Eastern Daylight Time)","749083","Trustworthy,Untrustworthy","","1076","","","","rating","","trustrating_stim/white_mw035.bmp","8","","","","","","","","","","",""
"image-keyboard-response","78","146976","0.0-6.0-2.36","63daf5a89c63648ec34664fb","bdp_trlrn","Tue Mar 14 2023 20:58:07 GMT-0400 (Eastern Daylight Time)","749083","Trustworthy,Untrustworthy","","null","","","","ratingFB","","trustrating_stim/white_mw035.bmp","null","","","","","","","","","","",""
"image-keyboard-response","79","147989","0.0-6.0-1.37","63daf5a89c63648ec34664fb","bdp_trlrn","Tue Mar 14 2023 20:58:07 GMT-0400 (Eastern Daylight Time)","749083","Trustworthy,Untrustworthy","","908","","","","rating","","trustrating_stim/white_mw099.bmp","8","","","","","","","","","","",""
"image-keyboard-response","80","148190","0.0-6.0-2.37","63daf5a89c63648ec34664fb","bdp_trlrn","Tue Mar 14 2023 20:58:07 GMT-0400 (Eastern Daylight Time)","749083","Trustworthy,Untrustworthy","","null","","","","ratingFB","","trustrating_stim/white_mw099.bmp","null","","","","","","","","","","",""
"image-keyboard-response","81","151708","0.0-6.0-1.38","63daf5a89c63648ec34664fb","bdp_trlrn","Tue Mar 14 2023 20:58:07 GMT-0400 (Eastern Daylight Time)","749083","Trustworthy,Untrustworthy","","3411","","","","rating","","trustrating_stim/white_mw048.bmp","5","","","","","","","","","","",""
"image-keyboard-response","82","151910","0.0-6.0-2.38","63daf5a89c63648ec34664fb","bdp_trlrn","Tue Mar 14 2023 20:58:07 GMT-0400 (Eastern Daylight Time)","749083","Trustworthy,Untrustworthy","","null","","","","ratingFB","","trustrating_stim/white_mw048.bmp","null","","","","","","","","","","",""
"image-keyboard-response","83","154047","0.0-6.0-1.39","63daf5a89c63648ec34664fb","bdp_trlrn","Tue Mar 14 2023 20:58:07 GMT-0400 (Eastern Daylight Time)","749083","Trustworthy,Untrustworthy","","2030","","","","rating","","trustrating_stim/white_00120_931230_fa_edt.bmp","5","","","","","","","","","","",""
"image-keyboard-response","84","154251","0.0-6.0-2.39","63daf5a89c63648ec34664fb","bdp_trlrn","Tue Mar 14 2023 20:58:07 GMT-0400 (Eastern Daylight Time)","749083","Trustworthy,Untrustworthy","","null","","","","ratingFB","","trustrating_stim/white_00120_931230_fa_edt.bmp","null","","","","","","","","","","",""
"image-keyboard-response","85","155884","0.0-6.0-1.40","63daf5a89c63648ec34664fb","bdp_trlrn","Tue Mar 14 2023 20:58:07 GMT-0400 (Eastern Daylight Time)","749083","Trustworthy,Untrustworthy","","1524","","","","rating","","trustrating_stim/white_mw056.bmp","5","","","","","","","","","","",""
"image-keyboard-response","86","156089","0.0-6.0-2.40","63daf5a89c63648ec34664fb","bdp_trlrn","Tue Mar 14 2023 20:58:07 GMT-0400 (Eastern Daylight Time)","749083","Trustworthy,Untrustworthy","","null","","","","ratingFB","","trustrating_stim/white_mw056.bmp","null","","","","","","","","","","",""
"image-keyboard-response","87","157820","0.0-6.0-1.41","63daf5a89c63648ec34664fb","bdp_trlrn","Tue Mar 14 2023 20:58:07 GMT-0400 (Eastern Daylight Time)","749083","Trustworthy,Untrustworthy","","1629","","","","rating","","trustrating_stim/white_00340_940422_fa_edt.bmp","4","","","","","","","","","","",""
"image-keyboard-response","88","158023","0.0-6.0-2.41","63daf5a89c63648ec34664fb","bdp_trlrn","Tue Mar 14 2023 20:58:07 GMT-0400 (Eastern Daylight Time)","749083","Trustworthy,Untrustworthy","","null","","","","ratingFB","","trustrating_stim/white_00340_940422_fa_edt.bmp","null","","","","","","","","","","",""
"image-keyboard-response","89","160100","0.0-6.0-1.42","63daf5a89c63648ec34664fb","bdp_trlrn","Tue Mar 14 2023 20:58:07 GMT-0400 (Eastern Daylight Time)","749083","Trustworthy,Untrustworthy","","1971","","","","rating","","trustrating_stim/white_00898_960530_fa_edt.bmp","3","","","","","","","","","","",""
"image-keyboard-response","90","160306","0.0-6.0-2.42","63daf5a89c63648ec34664fb","bdp_trlrn","Tue Mar 14 2023 20:58:07 GMT-0400 (Eastern Daylight Time)","749083","Trustworthy,Untrustworthy","","null","","","","ratingFB","","trustrating_stim/white_00898_960530_fa_edt.bmp","null","","","","","","","","","","",""
"image-keyboard-response","91","161643","0.0-6.0-1.43","63daf5a89c63648ec34664fb","bdp_trlrn","Tue Mar 14 2023 20:58:07 GMT-0400 (Eastern Daylight Time)","749083","Trustworthy,Untrustworthy","","1235","","","","rating","","trustrating_stim/white_00761_941201_fb_edt.bmp","2","","","","","","","","","","",""
"image-keyboard-response","92","161848","0.0-6.0-2.43","63daf5a89c63648ec34664fb","bdp_trlrn","Tue Mar 14 2023 20:58:07 GMT-0400 (Eastern Daylight Time)","749083","Trustworthy,Untrustworthy","","null","","","","ratingFB","","trustrating_stim/white_00761_941201_fb_edt.bmp","null","","","","","","","","","","",""
"image-keyboard-response","93","164043","0.0-6.0-1.44","63daf5a89c63648ec34664fb","bdp_trlrn","Tue Mar 14 2023 20:58:07 GMT-0400 (Eastern Daylight Time)","749083","Trustworthy,Untrustworthy","","2093","","","","rating","","trustrating_stim/white_00223_940128_fb_edt.bmp","7","","","","","","","","","","",""
"image-keyboard-response","94","164246","0.0-6.0-2.44","63daf5a89c63648ec34664fb","bdp_trlrn","Tue Mar 14 2023 20:58:07 GMT-0400 (Eastern Daylight Time)","749083","Trustworthy,Untrustworthy","","null","","","","ratingFB","","trustrating_stim/white_00223_940128_fb_edt.bmp","null","","","","","","","","","","",""
"image-keyboard-response","95","165611","0.0-6.0-1.45","63daf5a89c63648ec34664fb","bdp_trlrn","Tue Mar 14 2023 20:58:07 GMT-0400 (Eastern Daylight Time)","749083","Trustworthy,Untrustworthy","","1259","","","","rating","","trustrating_stim/white_00785_941205_fb_edt.bmp","2","","","","","","","","","","",""
"image-keyboard-response","96","165814","0.0-6.0-2.45","63daf5a89c63648ec34664fb","bdp_trlrn","Tue Mar 14 2023 20:58:07 GMT-0400 (Eastern Daylight Time)","749083","Trustworthy,Untrustworthy","","null","","","","ratingFB","","trustrating_stim/white_00785_941205_fb_edt.bmp","null","","","","","","","","","","",""
"image-keyboard-response","97","167198","0.0-6.0-1.46","63daf5a89c63648ec34664fb","bdp_trlrn","Tue Mar 14 2023 20:58:07 GMT-0400 (Eastern Daylight Time)","749083","Trustworthy,Untrustworthy","","1279","","","","rating","","trustrating_stim/white_mw046.bmp","2","","","","","","","","","","",""
"image-keyboard-response","98","167411","0.0-6.0-2.46","63daf5a89c63648ec34664fb","bdp_trlrn","Tue Mar 14 2023 20:58:07 GMT-0400 (Eastern Daylight Time)","749083","Trustworthy,Untrustworthy","","null","","","","ratingFB","","trustrating_stim/white_mw046.bmp","null","","","","","","","","","","",""
"image-keyboard-response","99","168892","0.0-6.0-1.47","63daf5a89c63648ec34664fb","bdp_trlrn","Tue Mar 14 2023 20:58:07 GMT-0400 (Eastern Daylight Time)","749083","Trustworthy,Untrustworthy","","1370","","","","rating","","trustrating_stim/white_00109_931230_fa_edt.bmp","7","","","","","","","","","","",""
"image-keyboard-response","100","169094","0.0-6.0-2.47","63daf5a89c63648ec34664fb","bdp_trlrn","Tue Mar 14 2023 20:58:07 GMT-0400 (Eastern Daylight Time)","749083","Trustworthy,Untrustworthy","","null","","","","ratingFB","","trustrating_stim/white_00109_931230_fa_edt.bmp","null","","","","","","","","","","",""
"image-keyboard-response","101","171100","0.0-6.0-1.48","63daf5a89c63648ec34664fb","bdp_trlrn","Tue Mar 14 2023 20:58:07 GMT-0400 (Eastern Daylight Time)","749083","Trustworthy,Untrustworthy","","1901","","","","rating","","trustrating_stim/white_mw066.bmp","5","","","","","","","","","","",""
"image-keyboard-response","102","171302","0.0-6.0-2.48","63daf5a89c63648ec34664fb","bdp_trlrn","Tue Mar 14 2023 20:58:07 GMT-0400 (Eastern Daylight Time)","749083","Trustworthy,Untrustworthy","","null","","","","ratingFB","","trustrating_stim/white_mw066.bmp","null","","","","","","","","","","",""
"image-keyboard-response","103","172651","0.0-6.0-1.49","63daf5a89c63648ec34664fb","bdp_trlrn","Tue Mar 14 2023 20:58:07 GMT-0400 (Eastern Daylight Time)","749083","Trustworthy,Untrustworthy","","1244","","","","rating","","trustrating_stim/white_mw097.bmp","2","","","","","","","","","","",""
"image-keyboard-response","104","172854","0.0-6.0-2.49","63daf5a89c63648ec34664fb","bdp_trlrn","Tue Mar 14 2023 20:58:07 GMT-0400 (Eastern Daylight Time)","749083","Trustworthy,Untrustworthy","","null","","","","ratingFB","","trustrating_stim/white_mw097.bmp","null","","","","","","","","","","",""
"image-keyboard-response","105","174150","0.0-6.0-1.50","63daf5a89c63648ec34664fb","bdp_trlrn","Tue Mar 14 2023 20:58:07 GMT-0400 (Eastern Daylight Time)","749083","Trustworthy,Untrustworthy","","1190","","","","rating","","trustrating_stim/white_00577_940928_fa_edt.bmp","2","","","","","","","","","","",""
"image-keyboard-response","106","174353","0.0-6.0-2.50","63daf5a89c63648ec34664fb","bdp_trlrn","Tue Mar 14 2023 20:58:07 GMT-0400 (Eastern Daylight Time)","749083","Trustworthy,Untrustworthy","","null","","","","ratingFB","","trustrating_stim/white_00577_940928_fa_edt.bmp","null","","","","","","","","","","",""
"image-keyboard-response","107","176883","0.0-6.0-1.51","63daf5a89c63648ec34664fb","bdp_trlrn","Tue Mar 14 2023 20:58:07 GMT-0400 (Eastern Daylight Time)","749083","Trustworthy,Untrustworthy","","2419","","","","rating","","trustrating_stim/white_00299_940422_fa_edt.bmp","2","","","","","","","","","","",""
"image-keyboard-response","108","177087","0.0-6.0-2.51","63daf5a89c63648ec34664fb","bdp_trlrn","Tue Mar 14 2023 20:58:07 GMT-0400 (Eastern Daylight Time)","749083","Trustworthy,Untrustworthy","","null","","","","ratingFB","","trustrating_stim/white_00299_940422_fa_edt.bmp","null","","","","","","","","","","",""
"image-keyboard-response","109","178630","0.0-6.0-1.52","63daf5a89c63648ec34664fb","bdp_trlrn","Tue Mar 14 2023 20:58:07 GMT-0400 (Eastern Daylight Time)","749083","Trustworthy,Untrustworthy","","1439","","","","rating","","trustrating_stim/white_mw063.bmp","2","","","","","","","","","","",""
"image-keyboard-response","110","178835","0.0-6.0-2.52","63daf5a89c63648ec34664fb","bdp_trlrn","Tue Mar 14 2023 20:58:07 GMT-0400 (Eastern Daylight Time)","749083","Trustworthy,Untrustworthy","","null","","","","ratingFB","","trustrating_stim/white_mw063.bmp","null","","","","","","","","","","",""
"image-keyboard-response","111","180763","0.0-6.0-1.53","63daf5a89c63648ec34664fb","bdp_trlrn","Tue Mar 14 2023 20:58:07 GMT-0400 (Eastern Daylight Time)","749083","Trustworthy,Untrustworthy","","1818","","","","rating","","trustrating_stim/white_mw060.bmp","2","","","","","","","","","","",""
"image-keyboard-response","112","180966","0.0-6.0-2.53","63daf5a89c63648ec34664fb","bdp_trlrn","Tue Mar 14 2023 20:58:07 GMT-0400 (Eastern Daylight Time)","749083","Trustworthy,Untrustworthy","","null","","","","ratingFB","","trustrating_stim/white_mw060.bmp","null","","","","","","","","","","",""
"image-keyboard-response","113","182678","0.0-6.0-1.54","63daf5a89c63648ec34664fb","bdp_trlrn","Tue Mar 14 2023 20:58:07 GMT-0400 (Eastern Daylight Time)","749083","Trustworthy,Untrustworthy","","1607","","","","rating","","trustrating_stim/white_00659_941121_fa_edt.bmp","2","","","","","","","","","","",""
"image-keyboard-response","114","182880","0.0-6.0-2.54","63daf5a89c63648ec34664fb","bdp_trlrn","Tue Mar 14 2023 20:58:07 GMT-0400 (Eastern Daylight Time)","749083","Trustworthy,Untrustworthy","","null","","","","ratingFB","","trustrating_stim/white_00659_941121_fa_edt.bmp","null","","","","","","","","","","",""
"image-keyboard-response","115","183890","0.0-6.0-1.55","63daf5a89c63648ec34664fb","bdp_trlrn","Tue Mar 14 2023 20:58:07 GMT-0400 (Eastern Daylight Time)","749083","Trustworthy,Untrustworthy","","899","","","","rating","","trustrating_stim/white_00807_941205_fb_edt.bmp","2","","","","","","","","","","",""
"image-keyboard-response","116","184094","0.0-6.0-2.55","63daf5a89c63648ec34664fb","bdp_trlrn","Tue Mar 14 2023 20:58:07 GMT-0400 (Eastern Daylight Time)","749083","Trustworthy,Untrustworthy","","null","","","","ratingFB","","trustrating_stim/white_00807_941205_fb_edt.bmp","null","","","","","","","","","","",""
"image-keyboard-response","117","185278","0.0-6.0-1.56","63daf5a89c63648ec34664fb","bdp_trlrn","Tue Mar 14 2023 20:58:07 GMT-0400 (Eastern Daylight Time)","749083","Trustworthy,Untrustworthy","","1079","","","","rating","","trustrating_stim/white_00757_941201_fa_edt.bmp","2","","","","","","","","","","",""
"image-keyboard-response","118","185487","0.0-6.0-2.56","63daf5a89c63648ec34664fb","bdp_trlrn","Tue Mar 14 2023 20:58:07 GMT-0400 (Eastern Daylight Time)","749083","Trustworthy,Untrustworthy","","null","","","","ratingFB","","trustrating_stim/white_00757_941201_fa_edt.bmp","null","","","","","","","","","","",""
"image-keyboard-response","119","186779","0.0-6.0-1.57","63daf5a89c63648ec34664fb","bdp_trlrn","Tue Mar 14 2023 20:58:07 GMT-0400 (Eastern Daylight Time)","749083","Trustworthy,Untrustworthy","","1187","","","","rating","","trustrating_stim/white_mw084.bmp","2","","","","","","","","","","",""
"image-keyboard-response","120","186984","0.0-6.0-2.57","63daf5a89c63648ec34664fb","bdp_trlrn","Tue Mar 14 2023 20:58:07 GMT-0400 (Eastern Daylight Time)","749083","Trustworthy,Untrustworthy","","null","","","","ratingFB","","trustrating_stim/white_mw084.bmp","null","","","","","","","","","","",""
"image-keyboard-response","121","188310","0.0-6.0-1.58","63daf5a89c63648ec34664fb","bdp_trlrn","Tue Mar 14 2023 20:58:07 GMT-0400 (Eastern Daylight Time)","749083","Trustworthy,Untrustworthy","","1214","","","","rating","","trustrating_stim/white_mw033.bmp","2","","","","","","","","","","",""
"image-keyboard-response","122","188522","0.0-6.0-2.58","63daf5a89c63648ec34664fb","bdp_trlrn","Tue Mar 14 2023 20:58:07 GMT-0400 (Eastern Daylight Time)","749083","Trustworthy,Untrustworthy","","null","","","","ratingFB","","trustrating_stim/white_mw033.bmp","null","","","","","","","","","","",""
"image-keyboard-response","123","189609","0.0-6.0-1.59","63daf5a89c63648ec34664fb","bdp_trlrn","Tue Mar 14 2023 20:58:07 GMT-0400 (Eastern Daylight Time)","749083","Trustworthy,Untrustworthy","","975","","","","rating","","trustrating_stim/white_00519_940519_fb_edt.bmp","2","","","","","","","","","","",""
"image-keyboard-response","124","189817","0.0-6.0-2.59","63daf5a89c63648ec34664fb","bdp_trlrn","Tue Mar 14 2023 20:58:07 GMT-0400 (Eastern Daylight Time)","749083","Trustworthy,Untrustworthy","","null","","","","ratingFB","","trustrating_stim/white_00519_940519_fb_edt.bmp","null","","","","","","","","","","",""
"instructions","125","193556","0.0-7.0","63daf5a89c63648ec34664fb","bdp_trlrn","Tue Mar 14 2023 20:58:07 GMT-0400 (Eastern Daylight Time)","749083","Trustworthy,Untrustworthy","[{""page_index"":0,""viewing_time"":3628}]","3628","","","","","","","","","","","","","","","","","",""
"instructions","126","314728","0.0-8.0","63daf5a89c63648ec34664fb","bdp_trlrn","Tue Mar 14 2023 20:58:07 GMT-0400 (Eastern Daylight Time)","749083","Trustworthy,Untrustworthy","[{""page_index"":0,""viewing_time"":39640},{""page_index"":1,""viewing_time"":9298},{""page_index"":2,""viewing_time"":9131},{""page_index"":3,""viewing_time"":14827},{""page_index"":4,""viewing_time"":17688},{""page_index"":5,""viewing_time"":11373},{""page_index"":6,""viewing_time"":6605},{""page_index"":7,""viewing_time"":12499}]","121061","","","","","","","","","","","","","","","","","",""
"html-keyboard-response","127","323380","0.0-9.0","63daf5a89c63648ec34664fb","bdp_trlrn","Tue Mar 14 2023 20:58:07 GMT-0400 (Eastern Daylight Time)","749083","Trustworthy,Untrustworthy","","8650","","","","","","<div class='header' style='text-align:left; position: absolute; top: 5%; left: 5%;'><small>Task 2 of 5</small></div><div class='instruxDiv'><p><strong>1) What is the minimum number of points you can choose to send to your partner?</strong></p><p>a) 0</p><p>b) 1</p><p>c) 5</p>","B","","","","","","","","","","",""
"html-keyboard-response","128","330074","0.0-10.0","63daf5a89c63648ec34664fb","bdp_trlrn","Tue Mar 14 2023 20:58:07 GMT-0400 (Eastern Daylight Time)","749083","Trustworthy,Untrustworthy","","6587","","","","","","<div class='header' style='text-align:left; position: absolute; top: 5%; left: 5%;'><small>Task 2 of 5</small></div><div class='instruxDiv'><p><strong>1) What is the minimum number of points you can choose to send to your partner?</strong></p><p>a) 0</p><p style='color:#00FF00'>b) 1</p><p>c) 5</p><h3 style='color:#00FF00'>Correct!</h3><h3 class='center-content'>The correct response is b).</h3><h3 class='center-content'>The minimum number of points you can choose to send to your partner is 1 point.</h3><p><em>Press SPACEBAR to continue</em></p></div>"," ","","","","","","","","","","",""
"html-keyboard-response","129","336069","0.0-11.0","63daf5a89c63648ec34664fb","bdp_trlrn","Tue Mar 14 2023 20:58:07 GMT-0400 (Eastern Daylight Time)","749083","Trustworthy,Untrustworthy","","5888","","","","","","<div class='header' style='text-align:left; position: absolute; top: 5%; left: 5%;'><small>Task 2 of 5</small></div><div class='instruxDiv'><p><strong>2) What is the maximum number of points you can choose to send to your partner?</strong></p><p>a) 8</p><p>b) 5</p><p>c) 3</p>","B","","","","","","","","","","",""
"html-keyboard-response","130","338029","0.0-12.0","63daf5a89c63648ec34664fb","bdp_trlrn","Tue Mar 14 2023 20:58:07 GMT-0400 (Eastern Daylight Time)","749083","Trustworthy,Untrustworthy","","1848","","","","","","<div class='header' style='text-align:left; position: absolute; top: 5%; left: 5%;'><small>Task 2 of 5</small></div><div class='instruxDiv'><p><strong>2) What is the maximum number of points you can choose to send to your partner?</strong></p><p>a) 8</p><p style='color:#00FF00'>b) 5</p><p>c) 3</p><h3 style='color:#00FF00'>Correct!</h3><h3 class='center-content'>The correct response is b).</h3><h3 class='center-content'>The maximum number of points you can choose to send to your partner is 5 points.</h3><p><em>Press SPACEBAR to continue</em></p></div>"," ","","","","","","","","","","",""
"html-keyboard-response","131","342773","0.0-13.0","63daf5a89c63648ec34664fb","bdp_trlrn","Tue Mar 14 2023 20:58:07 GMT-0400 (Eastern Daylight Time)","749083","Trustworthy,Untrustworthy","","4641","","","","","","<div class='header' style='text-align:left; position: absolute; top: 5%; left: 5%;'><small>Task 2 of 5</small></div><div class='instruxDiv'><p><strong>3) What happens to the amount of points you send to your partner?</strong></p><p>a) Nothing</p><p>b) It doubles</p><p>c) It quadruples</p>","B","","","","","","","","","","",""
"html-keyboard-response","132","353264","0.0-14.0","63daf5a89c63648ec34664fb","bdp_trlrn","Tue Mar 14 2023 20:58:07 GMT-0400 (Eastern Daylight Time)","749083","Trustworthy,Untrustworthy","","10387","","","","","","<div class='header' style='text-align:left; position: absolute; top: 5%; left: 5%;'><small>Task 2 of 5</small></div><div class='instruxDiv'><p><strong>3) What happens to the amount of points you send to your partner?</strong></p><p>a) Nothing</p><p style='color:#FF0000'>b) It doubles</p><p>c) It quadruples</p><h3 style='color:#FF0000'>Incorrect!</h3><h3 class='center-content'>The correct response is c).</h3><h3 class='center-content'>The amount of points you send to your partner quadruples.</h3><p><em>Press SPACEBAR to continue</em></p></div>"," ","","","","","","","","","","",""
"html-keyboard-response","133","389729","0.0-15.0","63daf5a89c63648ec34664fb","bdp_trlrn","Tue Mar 14 2023 20:58:07 GMT-0400 (Eastern Daylight Time)","749083","Trustworthy,Untrustworthy","","36359","","","","","","<div class='header' style='text-align:left; position: absolute; top: 5%; left: 5%;'><small>Task 2 of 5</small></div><div class='instruxDiv'><p><strong>4) If you decided to share 4 out of 5 points with your partner, and they decided to share half of the amount they received with you, how many points would you receive back from them on this round?</strong></p><p>a) 16</p><p>b) 0</p><p>c) 8</p>","C","","","","","","","","","","",""
"html-keyboard-response","134","393560","0.0-16.0","63daf5a89c63648ec34664fb","bdp_trlrn","Tue Mar 14 2023 20:58:07 GMT-0400 (Eastern Daylight Time)","749083","Trustworthy,Untrustworthy","","3726","","","","","","<div class='header' style='text-align:left; position: absolute; top: 5%; left: 5%;'><small>Task 2 of 5</small></div><div class='instruxDiv'><p><strong>4) If you decided to share 4 out of 5 points with your partner, and they decided to share half of the amount they received with you, how many points would you receive back from them on this round?</strong></p><p>a) 16</p><p>b) 0</p><p style='color:#00FF00'>c) 8</p><h3 style='color:#00FF00'>Correct!</h3><h3 class='center-content'>The correct response is c).</h3><h3 class='center-content'>If you shared 4 out of 5 points with your partner and they decided to share half of the amount they received with you, you would receive 8 points back (i.e. (4 x 4)/2 = 8).</h3><p><em>Press SPACEBAR to continue</em></p></div>"," ","","","","","","","","","","",""
"html-keyboard-response","135","398676","0.0-17.0","63daf5a89c63648ec34664fb","bdp_trlrn","Tue Mar 14 2023 20:58:07 GMT-0400 (Eastern Daylight Time)","749083","Trustworthy,Untrustworthy","","null","","","","","","<div class='header' style='text-align:left; position: absolute; top: 5%; left: 5%;'><small>Task 2 of 5</small></div><div class='instruxDiv'><p>Thank you for completing the quiz<p>These are the actual partners you will be interacting with in the next block:<p><div class='tc' align='center'><img class='introPic' src='trustrating_stim/white_00785_941205_fb_edt.bmp'><br><strong>Jonathan</strong></div><div class='bl' align='center'><img class='introPic' src='trustrating_stim/white_mw056.bmp'><br><strong>Marcus</strong></div><div class='br' align='center'><img class='introPic' src='trustrating_stim/white_00109_931230_fa_edt.bmp'><br><strong>Anthony</strong></div></div><p>Across <strong>66 rounds</strong> you will interact with each partner <strong>22 times</strong> (in random order).<p style='align:center; color:white'><font <em>Press SPACEBAR to continue</em></p>","null","","","","","","","","","","",""
"instructions","136","412529","0.0-18.0","63daf5a89c63648ec34664fb","bdp_trlrn","Tue Mar 14 2023 20:58:07 GMT-0400 (Eastern Daylight Time)","749083","Trustworthy,Untrustworthy","[{""page_index"":0,""viewing_time"":8561},{""page_index"":1,""viewing_time"":5292}]","13853","","","","","","","","","","","","","","","","","",""
"html-keyboard-response","137","417064","0.0-19.0-1.0","63daf5a89c63648ec34664fb","bdp_trlrn","Tue Mar 14 2023 20:58:07 GMT-0400 (Eastern Daylight Time)","749083","Trustworthy,Untrustworthy","","4426","","","","decision","","<div class='trialDiv'><img src='trustrating_stim/white_00109_931230_fa_edt.bmp'><br><font class='baseline'><strong>Anthony</strong><p>Choose number of points to send.</font><div class='respPicDiv'><img src='img/responseButtonOffersNo0L.png' class='respPic'></div></div>","3","1","Anthony","9","Shared","0.65,0.2","13","0.65","trustrating_stim/white_00109_931230_fa_edt.bmp","7.5","5","1"
"html-keyboard-response","138","417320","0.0-19.0-2.0","63daf5a89c63648ec34664fb","bdp_trlrn","Tue Mar 14 2023 20:58:07 GMT-0400 (Eastern Daylight Time)","749083","Trustworthy,Untrustworthy","","null","","","","decisionFB","","<div class='trialDiv'><img src='trustrating_stim/white_00109_931230_fa_edt.bmp'><br><font class='baseline'><strong>Anthony</strong><p>Choose number of points to send.</font><div class='respPicDiv'><img src='img/responseButtonOffersNo0L3.png' class='respPic'></div></div>","null","1","Anthony","9","Shared","0.65,0.2","13","0.65","trustrating_stim/white_00109_931230_fa_edt.bmp","7.5","2","1"
"html-keyboard-response","139","418331","0.0-19.0-3.0","63daf5a89c63648ec34664fb","bdp_trlrn","Tue Mar 14 2023 20:58:07 GMT-0400 (Eastern Daylight Time)","749083","Trustworthy,Untrustworthy","","null","","","","feedback","","<div class='trialDiv'><img src='trustrating_stim/white_00109_931230_fa_edt.bmp'><br><font class='baseline'><strong>Anthony</strong><p>Received: <strong>12</strong></font> &nbsp; &nbsp; &nbsp; &nbsp; &nbsp; &nbsp;<font class='posOutcome'>Shared back: <strong>6</strong></font></font><div class='respPicDiv'><img src='img/responseButtonOffersNo0_wht.png' class='respPic'></div></div>","null","1","Anthony","9","Shared","0.65,0.2","13","0.65","trustrating_stim/white_00109_931230_fa_edt.bmp","7.5","8","1"
"html-keyboard-response","140","420108","0.0-19.0-1.1","63daf5a89c63648ec34664fb","bdp_trlrn","Tue Mar 14 2023 20:58:07 GMT-0400 (Eastern Daylight Time)","749083","Trustworthy,Untrustworthy","","1775","","","","decision","","<div class='trialDiv'><img src='trustrating_stim/white_mw056.bmp'><br><font class='baseline'><strong>Marcus</strong><p>Choose number of points to send.</font><div class='respPicDiv'><img src='img/responseButtonOffersNo0L.png' class='respPic'></div></div>","3","1","Marcus","6","Shared","0.35,0.65","10","0.35","trustrating_stim/white_mw056.bmp","4","13","2"
"html-keyboard-response","141","420362","0.0-19.0-2.1","63daf5a89c63648ec34664fb","bdp_trlrn","Tue Mar 14 2023 20:58:07 GMT-0400 (Eastern Daylight Time)","749083","Trustworthy,Untrustworthy","","null","","","","decisionFB","","<div class='trialDiv'><img src='trustrating_stim/white_mw056.bmp'><br><font class='baseline'><strong>Marcus</strong><p>Choose number of points to send.</font><div class='respPicDiv'><img src='img/responseButtonOffersNo0L3.png' class='respPic'></div></div>","null","1","Marcus","6","Shared","0.35,0.65","10","0.35","trustrating_stim/white_mw056.bmp","4","10","2"
"html-keyboard-response","142","421372","0.0-19.0-3.1","63daf5a89c63648ec34664fb","bdp_trlrn","Tue Mar 14 2023 20:58:07 GMT-0400 (Eastern Daylight Time)","749083","Trustworthy,Untrustworthy","","null","","","","feedback","","<div class='trialDiv'><img src='trustrating_stim/white_mw056.bmp'><br><font class='baseline'><strong>Marcus</strong><p>Received: <strong>12</strong></font> &nbsp; &nbsp; &nbsp; &nbsp; &nbsp; &nbsp;<font class='posOutcome'>Shared back: <strong>6</strong></font></font><div class='respPicDiv'><img src='img/responseButtonOffersNo0_wht.png' class='respPic'></div></div>","null","1","Marcus","6","Shared","0.35,0.65","10","0.35","trustrating_stim/white_mw056.bmp","4","16","2"
"html-keyboard-response","143","422281","0.0-19.0-1.2","63daf5a89c63648ec34664fb","bdp_trlrn","Tue Mar 14 2023 20:58:07 GMT-0400 (Eastern Daylight Time)","749083","Trustworthy,Untrustworthy","","907","","","","decision","","<div class='trialDiv'><img src='trustrating_stim/white_00785_941205_fb_edt.bmp'><br><font class='baseline'><strong>Jonathan</strong><p>Choose number of points to send.</font><div class='respPicDiv'><img src='img/responseButtonOffersNo0L.png' class='respPic'></div></div>","3","1","Jonathan","1","Shared","0.35,0.8","8","0.35","trustrating_stim/white_00785_941205_fb_edt.bmp","2","21","3"
"html-keyboard-response","144","422539","0.0-19.0-2.2","63daf5a89c63648ec34664fb","bdp_trlrn","Tue Mar 14 2023 20:58:07 GMT-0400 (Eastern Daylight Time)","749083","Trustworthy,Untrustworthy","","null","","","","decisionFB","","<div class='trialDiv'><img src='trustrating_stim/white_00785_941205_fb_edt.bmp'><br><font class='baseline'><strong>Jonathan</strong><p>Choose number of points to send.</font><div class='respPicDiv'><img src='img/responseButtonOffersNo0L3.png' class='respPic'></div></div>","null","1","Jonathan","1","Shared","0.35,0.8","8","0.35","trustrating_stim/white_00785_941205_fb_edt.bmp","2","18","3"
"html-keyboard-response","145","423543","0.0-19.0-3.2","63daf5a89c63648ec34664fb","bdp_trlrn","Tue Mar 14 2023 20:58:07 GMT-0400 (Eastern Daylight Time)","749083","Trustworthy,Untrustworthy","","null","","","","feedback","","<div class='trialDiv'><img src='trustrating_stim/white_00785_941205_fb_edt.bmp'><br><font class='baseline'><strong>Jonathan</strong><p>Received: <strong>12</strong></font> &nbsp; &nbsp; &nbsp; &nbsp; &nbsp; &nbsp;<font class='posOutcome'>Shared back: <strong>6</strong></font></font><div class='respPicDiv'><img src='img/responseButtonOffersNo0_wht.png' class='respPic'></div></div>","null","1","Jonathan","1","Shared","0.35,0.8","8","0.35","trustrating_stim/white_00785_941205_fb_edt.bmp","2","24","3"
"html-keyboard-response","146","426363","0.0-19.0-1.3","63daf5a89c63648ec34664fb","bdp_trlrn","Tue Mar 14 2023 20:58:07 GMT-0400 (Eastern Daylight Time)","749083","Trustworthy,Untrustworthy","","2819","","","","decision","","<div class='trialDiv'><img src='trustrating_stim/white_00109_931230_fa_edt.bmp'><br><font class='baseline'><strong>Anthony</strong><p>Choose number of points to send.</font><div class='respPicDiv'><img src='img/responseButtonOffersNo0L.png' class='respPic'></div></div>","3","2","Anthony","9","Shared","0.65,0.2","13","0.65","trustrating_stim/white_00109_931230_fa_edt.bmp","7.5","29","4"
"html-keyboard-response","147","426620","0.0-19.0-2.3","63daf5a89c63648ec34664fb","bdp_trlrn","Tue Mar 14 2023 20:58:07 GMT-0400 (Eastern Daylight Time)","749083","Trustworthy,Untrustworthy","","null","","","","decisionFB","","<div class='trialDiv'><img src='trustrating_stim/white_00109_931230_fa_edt.bmp'><br><font class='baseline'><strong>Anthony</strong><p>Choose number of points to send.</font><div class='respPicDiv'><img src='img/responseButtonOffersNo0L3.png' class='respPic'></div></div>","null","2","Anthony","9","Shared","0.65,0.2","13","0.65","trustrating_stim/white_00109_931230_fa_edt.bmp","7.5","26","4"
"html-keyboard-response","148","427626","0.0-19.0-3.3","63daf5a89c63648ec34664fb","bdp_trlrn","Tue Mar 14 2023 20:58:07 GMT-0400 (Eastern Daylight Time)","749083","Trustworthy,Untrustworthy","","null","","","","feedback","","<div class='trialDiv'><img src='trustrating_stim/white_00109_931230_fa_edt.bmp'><br><font class='baseline'><strong>Anthony</strong><p>Received: <strong>12</strong></font> &nbsp; &nbsp; &nbsp; &nbsp; &nbsp; &nbsp;<font class='posOutcome'>Shared back: <strong>6</strong></font></font><div class='respPicDiv'><img src='img/responseButtonOffersNo0_wht.png' class='respPic'></div></div>","null","2","Anthony","9","Shared","0.65,0.2","13","0.65","trustrating_stim/white_00109_931230_fa_edt.bmp","7.5","32","4"
"html-keyboard-response","149","429073","0.0-19.0-1.4","63daf5a89c63648ec34664fb","bdp_trlrn","Tue Mar 14 2023 20:58:07 GMT-0400 (Eastern Daylight Time)","749083","Trustworthy,Untrustworthy","","1445","","","","decision","","<div class='trialDiv'><img src='trustrating_stim/white_00785_941205_fb_edt.bmp'><br><font class='baseline'><strong>Jonathan</strong><p>Choose number of points to send.</font><div class='respPicDiv'><img src='img/responseButtonOffersNo0L.png' class='respPic'></div></div>","3","2","Jonathan","1","Kept","0.35,0.8","8","0.35","trustrating_stim/white_00785_941205_fb_edt.bmp","2","37","5"
"html-keyboard-response","150","429330","0.0-19.0-2.4","63daf5a89c63648ec34664fb","bdp_trlrn","Tue Mar 14 2023 20:58:07 GMT-0400 (Eastern Daylight Time)","749083","Trustworthy,Untrustworthy","","null","","","","decisionFB","","<div class='trialDiv'><img src='trustrating_stim/white_00785_941205_fb_edt.bmp'><br><font class='baseline'><strong>Jonathan</strong><p>Choose number of points to send.</font><div class='respPicDiv'><img src='img/responseButtonOffersNo0L3.png' class='respPic'></div></div>","null","2","Jonathan","1","Kept","0.35,0.8","8","0.35","trustrating_stim/white_00785_941205_fb_edt.bmp","2","34","5"
"html-keyboard-response","151","430340","0.0-19.0-3.4","63daf5a89c63648ec34664fb","bdp_trlrn","Tue Mar 14 2023 20:58:07 GMT-0400 (Eastern Daylight Time)","749083","Trustworthy,Untrustworthy","","null","","","","feedback","","<div class='trialDiv'><img src='trustrating_stim/white_00785_941205_fb_edt.bmp'><br><font class='baseline'><strong>Jonathan</strong><p>Received: <strong>12</strong></font> &nbsp; &nbsp; &nbsp; &nbsp; &nbsp; &nbsp;<font class='negOutcome'>Shared back: <strong>0</strong></font></font><div class='respPicDiv'><img src='img/responseButtonOffersNo0_wht.png' class='respPic'></div></div>","null","2","Jonathan","1","Kept","0.35,0.8","8","0.35","trustrating_stim/white_00785_941205_fb_edt.bmp","2","34","5"
"html-keyboard-response","152","435021","0.0-19.0-1.5","63daf5a89c63648ec34664fb","bdp_trlrn","Tue Mar 14 2023 20:58:07 GMT-0400 (Eastern Daylight Time)","749083","Trustworthy,Untrustworthy","","4680","","","","decision","","<div class='trialDiv'><img src='trustrating_stim/white_mw056.bmp'><br><font class='baseline'><strong>Marcus</strong><p>Choose number of points to send.</font><div class='respPicDiv'><img src='img/responseButtonOffersNo0L.png' class='respPic'></div></div>","5","2","Marcus","6","Kept","0.35,0.65","10","0.35","trustrating_stim/white_mw056.bmp","4","39","6"
"html-keyboard-response","153","435280","0.0-19.0-2.5","63daf5a89c63648ec34664fb","bdp_trlrn","Tue Mar 14 2023 20:58:07 GMT-0400 (Eastern Daylight Time)","749083","Trustworthy,Untrustworthy","","null","","","","decisionFB","","<div class='trialDiv'><img src='trustrating_stim/white_mw056.bmp'><br><font class='baseline'><strong>Marcus</strong><p>Choose number of points to send.</font><div class='respPicDiv'><img src='img/responseButtonOffersNo0L5.png' class='respPic'></div></div>","null","2","Marcus","6","Kept","0.35,0.65","10","0.35","trustrating_stim/white_mw056.bmp","4","34","6"
"html-keyboard-response","154","436291","0.0-19.0-3.5","63daf5a89c63648ec34664fb","bdp_trlrn","Tue Mar 14 2023 20:58:07 GMT-0400 (Eastern Daylight Time)","749083","Trustworthy,Untrustworthy","","null","","","","feedback","","<div class='trialDiv'><img src='trustrating_stim/white_mw056.bmp'><br><font class='baseline'><strong>Marcus</strong><p>Received: <strong>20</strong></font> &nbsp; &nbsp; &nbsp; &nbsp; &nbsp; &nbsp;<font class='negOutcome'>Shared back: <strong>0</strong></font></font><div class='respPicDiv'><img src='img/responseButtonOffersNo0_wht.png' class='respPic'></div></div>","null","2","Marcus","6","Kept","0.35,0.65","10","0.35","trustrating_stim/white_mw056.bmp","4","34","6"
"html-keyboard-response","155","437012","0.0-19.0-1.6","63daf5a89c63648ec34664fb","bdp_trlrn","Tue Mar 14 2023 20:58:07 GMT-0400 (Eastern Daylight Time)","749083","Trustworthy,Untrustworthy","","720","","","","decision","","<div class='trialDiv'><img src='trustrating_stim/white_00785_941205_fb_edt.bmp'><br><font class='baseline'><strong>Jonathan</strong><p>Choose number of points to send.</font><div class='respPicDiv'><img src='img/responseButtonOffersNo0L.png' class='respPic'></div></div>","3","3","Jonathan","1","Shared","0.35,0.8","8","0.35","trustrating_stim/white_00785_941205_fb_edt.bmp","2","39","7"
"html-keyboard-response","156","437272","0.0-19.0-2.6","63daf5a89c63648ec34664fb","bdp_trlrn","Tue Mar 14 2023 20:58:07 GMT-0400 (Eastern Daylight Time)","749083","Trustworthy,Untrustworthy","","null","","","","decisionFB","","<div class='trialDiv'><img src='trustrating_stim/white_00785_941205_fb_edt.bmp'><br><font class='baseline'><strong>Jonathan</strong><p>Choose number of points to send.</font><div class='respPicDiv'><img src='img/responseButtonOffersNo0L3.png' class='respPic'></div></div>","null","3","Jonathan","1","Shared","0.35,0.8","8","0.35","trustrating_stim/white_00785_941205_fb_edt.bmp","2","36","7"
"html-keyboard-response","157","438282","0.0-19.0-3.6","63daf5a89c63648ec34664fb","bdp_trlrn","Tue Mar 14 2023 20:58:07 GMT-0400 (Eastern Daylight Time)","749083","Trustworthy,Untrustworthy","","null","","","","feedback","","<div class='trialDiv'><img src='trustrating_stim/white_00785_941205_fb_edt.bmp'><br><font class='baseline'><strong>Jonathan</strong><p>Received: <strong>12</strong></font> &nbsp; &nbsp; &nbsp; &nbsp; &nbsp; &nbsp;<font class='posOutcome'>Shared back: <strong>6</strong></font></font><div class='respPicDiv'><img src='img/responseButtonOffersNo0_wht.png' class='respPic'></div></div>","null","3","Jonathan","1","Shared","0.35,0.8","8","0.35","trustrating_stim/white_00785_941205_fb_edt.bmp","2","42","7"
"html-keyboard-response","158","439644","0.0-19.0-1.7","63daf5a89c63648ec34664fb","bdp_trlrn","Tue Mar 14 2023 20:58:07 GMT-0400 (Eastern Daylight Time)","749083","Trustworthy,Untrustworthy","","1361","","","","decision","","<div class='trialDiv'><img src='trustrating_stim/white_mw056.bmp'><br><font class='baseline'><strong>Marcus</strong><p>Choose number of points to send.</font><div class='respPicDiv'><img src='img/responseButtonOffersNo0L.png' class='respPic'></div></div>","5","3","Marcus","6","Shared","0.35,0.65","10","0.35","trustrating_stim/white_mw056.bmp","4","47","8"
"html-keyboard-response","159","439906","0.0-19.0-2.7","63daf5a89c63648ec34664fb","bdp_trlrn","Tue Mar 14 2023 20:58:07 GMT-0400 (Eastern Daylight Time)","749083","Trustworthy,Untrustworthy","","null","","","","decisionFB","","<div class='trialDiv'><img src='trustrating_stim/white_mw056.bmp'><br><font class='baseline'><strong>Marcus</strong><p>Choose number of points to send.</font><div class='respPicDiv'><img src='img/responseButtonOffersNo0L5.png' class='respPic'></div></div>","null","3","Marcus","6","Shared","0.35,0.65","10","0.35","trustrating_stim/white_mw056.bmp","4","42","8"
"html-keyboard-response","160","440911","0.0-19.0-3.7","63daf5a89c63648ec34664fb","bdp_trlrn","Tue Mar 14 2023 20:58:07 GMT-0400 (Eastern Daylight Time)","749083","Trustworthy,Untrustworthy","","null","","","","feedback","","<div class='trialDiv'><img src='trustrating_stim/white_mw056.bmp'><br><font class='baseline'><strong>Marcus</strong><p>Received: <strong>20</strong></font> &nbsp; &nbsp; &nbsp; &nbsp; &nbsp; &nbsp;<font class='posOutcome'>Shared back: <strong>10</strong></font></font><div class='respPicDiv'><img src='img/responseButtonOffersNo0_wht.png' class='respPic'></div></div>","null","3","Marcus","6","Shared","0.35,0.65","10","0.35","trustrating_stim/white_mw056.bmp","4","52","8"
"html-keyboard-response","161","443803","0.0-19.0-1.8","63daf5a89c63648ec34664fb","bdp_trlrn","Tue Mar 14 2023 20:58:07 GMT-0400 (Eastern Daylight Time)","749083","Trustworthy,Untrustworthy","","2891","","","","decision","","<div class='trialDiv'><img src='trustrating_stim/white_00109_931230_fa_edt.bmp'><br><font class='baseline'><strong>Anthony</strong><p>Choose number of points to send.</font><div class='respPicDiv'><img src='img/responseButtonOffersNo0L.png' class='respPic'></div></div>","3","3","Anthony","9","Shared","0.65,0.2","13","0.65","trustrating_stim/white_00109_931230_fa_edt.bmp","7.5","57","9"
"html-keyboard-response","162","444056","0.0-19.0-2.8","63daf5a89c63648ec34664fb","bdp_trlrn","Tue Mar 14 2023 20:58:07 GMT-0400 (Eastern Daylight Time)","749083","Trustworthy,Untrustworthy","","null","","","","decisionFB","","<div class='trialDiv'><img src='trustrating_stim/white_00109_931230_fa_edt.bmp'><br><font class='baseline'><strong>Anthony</strong><p>Choose number of points to send.</font><div class='respPicDiv'><img src='img/responseButtonOffersNo0L3.png' class='respPic'></div></div>","null","3","Anthony","9","Shared","0.65,0.2","13","0.65","trustrating_stim/white_00109_931230_fa_edt.bmp","7.5","54","9"
"html-keyboard-response","163","445068","0.0-19.0-3.8","63daf5a89c63648ec34664fb","bdp_trlrn","Tue Mar 14 2023 20:58:07 GMT-0400 (Eastern Daylight Time)","749083","Trustworthy,Untrustworthy","","null","","","","feedback","","<div class='trialDiv'><img src='trustrating_stim/white_00109_931230_fa_edt.bmp'><br><font class='baseline'><strong>Anthony</strong><p>Received: <strong>12</strong></font> &nbsp; &nbsp; &nbsp; &nbsp; &nbsp; &nbsp;<font class='posOutcome'>Shared back: <strong>6</strong></font></font><div class='respPicDiv'><img src='img/responseButtonOffersNo0_wht.png' class='respPic'></div></div>","null","3","Anthony","9","Shared","0.65,0.2","13","0.65","trustrating_stim/white_00109_931230_fa_edt.bmp","7.5","60","9"
"html-keyboard-response","164","445917","0.0-19.0-1.9","63daf5a89c63648ec34664fb","bdp_trlrn","Tue Mar 14 2023 20:58:07 GMT-0400 (Eastern Daylight Time)","749083","Trustworthy,Untrustworthy","","848","","","","decision","","<div class='trialDiv'><img src='trustrating_stim/white_mw056.bmp'><br><font class='baseline'><strong>Marcus</strong><p>Choose number of points to send.</font><div class='respPicDiv'><img src='img/responseButtonOffersNo0L.png' class='respPic'></div></div>","3","4","Marcus","6","Kept","0.35,0.65","10","0.35","trustrating_stim/white_mw056.bmp","4","65","10"
"html-keyboard-response","165","446176","0.0-19.0-2.9","63daf5a89c63648ec34664fb","bdp_trlrn","Tue Mar 14 2023 20:58:07 GMT-0400 (Eastern Daylight Time)","749083","Trustworthy,Untrustworthy","","null","","","","decisionFB","","<div class='trialDiv'><img src='trustrating_stim/white_mw056.bmp'><br><font class='baseline'><strong>Marcus</strong><p>Choose number of points to send.</font><div class='respPicDiv'><img src='img/responseButtonOffersNo0L3.png' class='respPic'></div></div>","null","4","Marcus","6","Kept","0.35,0.65","10","0.35","trustrating_stim/white_mw056.bmp","4","62","10"
"html-keyboard-response","166","447186","0.0-19.0-3.9","63daf5a89c63648ec34664fb","bdp_trlrn","Tue Mar 14 2023 20:58:07 GMT-0400 (Eastern Daylight Time)","749083","Trustworthy,Untrustworthy","","null","","","","feedback","","<div class='trialDiv'><img src='trustrating_stim/white_mw056.bmp'><br><font class='baseline'><strong>Marcus</strong><p>Received: <strong>12</strong></font> &nbsp; &nbsp; &nbsp; &nbsp; &nbsp; &nbsp;<font class='negOutcome'>Shared back: <strong>0</strong></font></font><div class='respPicDiv'><img src='img/responseButtonOffersNo0_wht.png' class='respPic'></div></div>","null","4","Marcus","6","Kept","0.35,0.65","10","0.35","trustrating_stim/white_mw056.bmp","4","62","10"
"html-keyboard-response","167","447690","0.0-19.0-1.10","63daf5a89c63648ec34664fb","bdp_trlrn","Tue Mar 14 2023 20:58:07 GMT-0400 (Eastern Daylight Time)","749083","Trustworthy,Untrustworthy","","503","","","","decision","","<div class='trialDiv'><img src='trustrating_stim/white_00785_941205_fb_edt.bmp'><br><font class='baseline'><strong>Jonathan</strong><p>Choose number of points to send.</font><div class='respPicDiv'><img src='img/responseButtonOffersNo0L.png' class='respPic'></div></div>","3","4","Jonathan","1","Kept","0.35,0.8","8","0.35","trustrating_stim/white_00785_941205_fb_edt.bmp","2","67","11"
"html-keyboard-response","168","447946","0.0-19.0-2.10","63daf5a89c63648ec34664fb","bdp_trlrn","Tue Mar 14 2023 20:58:07 GMT-0400 (Eastern Daylight Time)","749083","Trustworthy,Untrustworthy","","null","","","","decisionFB","","<div class='trialDiv'><img src='trustrating_stim/white_00785_941205_fb_edt.bmp'><br><font class='baseline'><strong>Jonathan</strong><p>Choose number of points to send.</font><div class='respPicDiv'><img src='img/responseButtonOffersNo0L3.png' class='respPic'></div></div>","null","4","Jonathan","1","Kept","0.35,0.8","8","0.35","trustrating_stim/white_00785_941205_fb_edt.bmp","2","64","11"
"html-keyboard-response","169","448951","0.0-19.0-3.10","63daf5a89c63648ec34664fb","bdp_trlrn","Tue Mar 14 2023 20:58:07 GMT-0400 (Eastern Daylight Time)","749083","Trustworthy,Untrustworthy","","null","","","","feedback","","<div class='trialDiv'><img src='trustrating_stim/white_00785_941205_fb_edt.bmp'><br><font class='baseline'><strong>Jonathan</strong><p>Received: <strong>12</strong></font> &nbsp; &nbsp; &nbsp; &nbsp; &nbsp; &nbsp;<font class='negOutcome'>Shared back: <strong>0</strong></font></font><div class='respPicDiv'><img src='img/responseButtonOffersNo0_wht.png' class='respPic'></div></div>","null","4","Jonathan","1","Kept","0.35,0.8","8","0.35","trustrating_stim/white_00785_941205_fb_edt.bmp","2","64","11"
"html-keyboard-response","170","449604","0.0-19.0-1.11","63daf5a89c63648ec34664fb","bdp_trlrn","Tue Mar 14 2023 20:58:07 GMT-0400 (Eastern Daylight Time)","749083","Trustworthy,Untrustworthy","","652","","","","decision","","<div class='trialDiv'><img src='trustrating_stim/white_00109_931230_fa_edt.bmp'><br><font class='baseline'><strong>Anthony</strong><p>Choose number of points to send.</font><div class='respPicDiv'><img src='img/responseButtonOffersNo0L.png' class='respPic'></div></div>","3","4","Anthony","9","Kept","0.65,0.2","13","0.65","trustrating_stim/white_00109_931230_fa_edt.bmp","7.5","69","12"
"html-keyboard-response","171","449863","0.0-19.0-2.11","63daf5a89c63648ec34664fb","bdp_trlrn","Tue Mar 14 2023 20:58:07 GMT-0400 (Eastern Daylight Time)","749083","Trustworthy,Untrustworthy","","null","","","","decisionFB","","<div class='trialDiv'><img src='trustrating_stim/white_00109_931230_fa_edt.bmp'><br><font class='baseline'><strong>Anthony</strong><p>Choose number of points to send.</font><div class='respPicDiv'><img src='img/responseButtonOffersNo0L3.png' class='respPic'></div></div>","null","4","Anthony","9","Kept","0.65,0.2","13","0.65","trustrating_stim/white_00109_931230_fa_edt.bmp","7.5","66","12"
"html-keyboard-response","172","450873","0.0-19.0-3.11","63daf5a89c63648ec34664fb","bdp_trlrn","Tue Mar 14 2023 20:58:07 GMT-0400 (Eastern Daylight Time)","749083","Trustworthy,Untrustworthy","","null","","","","feedback","","<div class='trialDiv'><img src='trustrating_stim/white_00109_931230_fa_edt.bmp'><br><font class='baseline'><strong>Anthony</strong><p>Received: <strong>12</strong></font> &nbsp; &nbsp; &nbsp; &nbsp; &nbsp; &nbsp;<font class='negOutcome'>Shared back: <strong>0</strong></font></font><div class='respPicDiv'><img src='img/responseButtonOffersNo0_wht.png' class='respPic'></div></div>","null","4","Anthony","9","Kept","0.65,0.2","13","0.65","trustrating_stim/white_00109_931230_fa_edt.bmp","7.5","66","12"
"html-keyboard-response","173","451739","0.0-19.0-1.12","63daf5a89c63648ec34664fb","bdp_trlrn","Tue Mar 14 2023 20:58:07 GMT-0400 (Eastern Daylight Time)","749083","Trustworthy,Untrustworthy","","866","","","","decision","","<div class='trialDiv'><img src='trustrating_stim/white_00785_941205_fb_edt.bmp'><br><font class='baseline'><strong>Jonathan</strong><p>Choose number of points to send.</font><div class='respPicDiv'><img src='img/responseButtonOffersNo0L.png' class='respPic'></div></div>","3","5","Jonathan","1","Kept","0.35,0.8","8","0.35","trustrating_stim/white_00785_941205_fb_edt.bmp","2","71","13"
"html-keyboard-response","174","451993","0.0-19.0-2.12","63daf5a89c63648ec34664fb","bdp_trlrn","Tue Mar 14 2023 20:58:07 GMT-0400 (Eastern Daylight Time)","749083","Trustworthy,Untrustworthy","","null","","","","decisionFB","","<div class='trialDiv'><img src='trustrating_stim/white_00785_941205_fb_edt.bmp'><br><font class='baseline'><strong>Jonathan</strong><p>Choose number of points to send.</font><div class='respPicDiv'><img src='img/responseButtonOffersNo0L3.png' class='respPic'></div></div>","null","5","Jonathan","1","Kept","0.35,0.8","8","0.35","trustrating_stim/white_00785_941205_fb_edt.bmp","2","68","13"
"html-keyboard-response","175","453002","0.0-19.0-3.12","63daf5a89c63648ec34664fb","bdp_trlrn","Tue Mar 14 2023 20:58:07 GMT-0400 (Eastern Daylight Time)","749083","Trustworthy,Untrustworthy","","null","","","","feedback","","<div class='trialDiv'><img src='trustrating_stim/white_00785_941205_fb_edt.bmp'><br><font class='baseline'><strong>Jonathan</strong><p>Received: <strong>12</strong></font> &nbsp; &nbsp; &nbsp; &nbsp; &nbsp; &nbsp;<font class='negOutcome'>Shared back: <strong>0</strong></font></font><div class='respPicDiv'><img src='img/responseButtonOffersNo0_wht.png' class='respPic'></div></div>","null","5","Jonathan","1","Kept","0.35,0.8","8","0.35","trustrating_stim/white_00785_941205_fb_edt.bmp","2","68","13"
"html-keyboard-response","176","453566","0.0-19.0-1.13","63daf5a89c63648ec34664fb","bdp_trlrn","Tue Mar 14 2023 20:58:07 GMT-0400 (Eastern Daylight Time)","749083","Trustworthy,Untrustworthy","","563","","","","decision","","<div class='trialDiv'><img src='trustrating_stim/white_mw056.bmp'><br><font class='baseline'><strong>Marcus</strong><p>Choose number of points to send.</font><div class='respPicDiv'><img src='img/responseButtonOffersNo0L.png' class='respPic'></div></div>","3","5","Marcus","6","Shared","0.35,0.65","10","0.35","trustrating_stim/white_mw056.bmp","4","73","14"
"html-keyboard-response","177","453827","0.0-19.0-2.13","63daf5a89c63648ec34664fb","bdp_trlrn","Tue Mar 14 2023 20:58:07 GMT-0400 (Eastern Daylight Time)","749083","Trustworthy,Untrustworthy","","null","","","","decisionFB","","<div class='trialDiv'><img src='trustrating_stim/white_mw056.bmp'><br><font class='baseline'><strong>Marcus</strong><p>Choose number of points to send.</font><div class='respPicDiv'><img src='img/responseButtonOffersNo0L3.png' class='respPic'></div></div>","null","5","Marcus","6","Shared","0.35,0.65","10","0.35","trustrating_stim/white_mw056.bmp","4","70","14"
"html-keyboard-response","178","454831","0.0-19.0-3.13","63daf5a89c63648ec34664fb","bdp_trlrn","Tue Mar 14 2023 20:58:07 GMT-0400 (Eastern Daylight Time)","749083","Trustworthy,Untrustworthy","","null","","","","feedback","","<div class='trialDiv'><img src='trustrating_stim/white_mw056.bmp'><br><font class='baseline'><strong>Marcus</strong><p>Received: <strong>12</strong></font> &nbsp; &nbsp; &nbsp; &nbsp; &nbsp; &nbsp;<font class='posOutcome'>Shared back: <strong>6</strong></font></font><div class='respPicDiv'><img src='img/responseButtonOffersNo0_wht.png' class='respPic'></div></div>","null","5","Marcus","6","Shared","0.35,0.65","10","0.35","trustrating_stim/white_mw056.bmp","4","76","14"
"html-keyboard-response","179","455370","0.0-19.0-1.14","63daf5a89c63648ec34664fb","bdp_trlrn","Tue Mar 14 2023 20:58:07 GMT-0400 (Eastern Daylight Time)","749083","Trustworthy,Untrustworthy","","538","","","","decision","","<div class='trialDiv'><img src='trustrating_stim/white_00109_931230_fa_edt.bmp'><br><font class='baseline'><strong>Anthony</strong><p>Choose number of points to send.</font><div class='respPicDiv'><img src='img/responseButtonOffersNo0L.png' class='respPic'></div></div>","3","5","Anthony","9","Shared","0.65,0.2","13","0.65","trustrating_stim/white_00109_931230_fa_edt.bmp","7.5","81","15"
"html-keyboard-response","180","455627","0.0-19.0-2.14","63daf5a89c63648ec34664fb","bdp_trlrn","Tue Mar 14 2023 20:58:07 GMT-0400 (Eastern Daylight Time)","749083","Trustworthy,Untrustworthy","","null","","","","decisionFB","","<div class='trialDiv'><img src='trustrating_stim/white_00109_931230_fa_edt.bmp'><br><font class='baseline'><strong>Anthony</strong><p>Choose number of points to send.</font><div class='respPicDiv'><img src='img/responseButtonOffersNo0L3.png' class='respPic'></div></div>","null","5","Anthony","9","Shared","0.65,0.2","13","0.65","trustrating_stim/white_00109_931230_fa_edt.bmp","7.5","78","15"
"html-keyboard-response","181","456632","0.0-19.0-3.14","63daf5a89c63648ec34664fb","bdp_trlrn","Tue Mar 14 2023 20:58:07 GMT-0400 (Eastern Daylight Time)","749083","Trustworthy,Untrustworthy","","null","","","","feedback","","<div class='trialDiv'><img src='trustrating_stim/white_00109_931230_fa_edt.bmp'><br><font class='baseline'><strong>Anthony</strong><p>Received: <strong>12</strong></font> &nbsp; &nbsp; &nbsp; &nbsp; &nbsp; &nbsp;<font class='posOutcome'>Shared back: <strong>6</strong></font></font><div class='respPicDiv'><img src='img/responseButtonOffersNo0_wht.png' class='respPic'></div></div>","null","5","Anthony","9","Shared","0.65,0.2","13","0.65","trustrating_stim/white_00109_931230_fa_edt.bmp","7.5","84","15"
"html-keyboard-response","182","457183","0.0-19.0-1.15","63daf5a89c63648ec34664fb","bdp_trlrn","Tue Mar 14 2023 20:58:07 GMT-0400 (Eastern Daylight Time)","749083","Trustworthy,Untrustworthy","","551","","","","decision","","<div class='trialDiv'><img src='trustrating_stim/white_00785_941205_fb_edt.bmp'><br><font class='baseline'><strong>Jonathan</strong><p>Choose number of points to send.</font><div class='respPicDiv'><img src='img/responseButtonOffersNo0L.png' class='respPic'></div></div>","3","6","Jonathan","1","Kept","0.35,0.8","8","0.35","trustrating_stim/white_00785_941205_fb_edt.bmp","2","89","16"
"html-keyboard-response","183","457439","0.0-19.0-2.15","63daf5a89c63648ec34664fb","bdp_trlrn","Tue Mar 14 2023 20:58:07 GMT-0400 (Eastern Daylight Time)","749083","Trustworthy,Untrustworthy","","null","","","","decisionFB","","<div class='trialDiv'><img src='trustrating_stim/white_00785_941205_fb_edt.bmp'><br><font class='baseline'><strong>Jonathan</strong><p>Choose number of points to send.</font><div class='respPicDiv'><img src='img/responseButtonOffersNo0L3.png' class='respPic'></div></div>","null","6","Jonathan","1","Kept","0.35,0.8","8","0.35","trustrating_stim/white_00785_941205_fb_edt.bmp","2","86","16"
"html-keyboard-response","184","458447","0.0-19.0-3.15","63daf5a89c63648ec34664fb","bdp_trlrn","Tue Mar 14 2023 20:58:07 GMT-0400 (Eastern Daylight Time)","749083","Trustworthy,Untrustworthy","","null","","","","feedback","","<div class='trialDiv'><img src='trustrating_stim/white_00785_941205_fb_edt.bmp'><br><font class='baseline'><strong>Jonathan</strong><p>Received: <strong>12</strong></font> &nbsp; &nbsp; &nbsp; &nbsp; &nbsp; &nbsp;<font class='negOutcome'>Shared back: <strong>0</strong></font></font><div class='respPicDiv'><img src='img/responseButtonOffersNo0_wht.png' class='respPic'></div></div>","null","6","Jonathan","1","Kept","0.35,0.8","8","0.35","trustrating_stim/white_00785_941205_fb_edt.bmp","2","86","16"
"html-keyboard-response","185","458866","0.0-19.0-1.16","63daf5a89c63648ec34664fb","bdp_trlrn","Tue Mar 14 2023 20:58:07 GMT-0400 (Eastern Daylight Time)","749083","Trustworthy,Untrustworthy","","418","","","","decision","","<div class='trialDiv'><img src='trustrating_stim/white_mw056.bmp'><br><font class='baseline'><strong>Marcus</strong><p>Choose number of points to send.</font><div class='respPicDiv'><img src='img/responseButtonOffersNo0L.png' class='respPic'></div></div>","3","6","Marcus","6","Kept","0.35,0.65","10","0.35","trustrating_stim/white_mw056.bmp","4","91","17"
"html-keyboard-response","186","459121","0.0-19.0-2.16","63daf5a89c63648ec34664fb","bdp_trlrn","Tue Mar 14 2023 20:58:07 GMT-0400 (Eastern Daylight Time)","749083","Trustworthy,Untrustworthy","","null","","","","decisionFB","","<div class='trialDiv'><img src='trustrating_stim/white_mw056.bmp'><br><font class='baseline'><strong>Marcus</strong><p>Choose number of points to send.</font><div class='respPicDiv'><img src='img/responseButtonOffersNo0L3.png' class='respPic'></div></div>","null","6","Marcus","6","Kept","0.35,0.65","10","0.35","trustrating_stim/white_mw056.bmp","4","88","17"
"html-keyboard-response","187","460131","0.0-19.0-3.16","63daf5a89c63648ec34664fb","bdp_trlrn","Tue Mar 14 2023 20:58:07 GMT-0400 (Eastern Daylight Time)","749083","Trustworthy,Untrustworthy","","null","","","","feedback","","<div class='trialDiv'><img src='trustrating_stim/white_mw056.bmp'><br><font class='baseline'><strong>Marcus</strong><p>Received: <strong>12</strong></font> &nbsp; &nbsp; &nbsp; &nbsp; &nbsp; &nbsp;<font class='negOutcome'>Shared back: <strong>0</strong></font></font><div class='respPicDiv'><img src='img/responseButtonOffersNo0_wht.png' class='respPic'></div></div>","null","6","Marcus","6","Kept","0.35,0.65","10","0.35","trustrating_stim/white_mw056.bmp","4","88","17"
"html-keyboard-response","188","460550","0.0-19.0-1.17","63daf5a89c63648ec34664fb","bdp_trlrn","Tue Mar 14 2023 20:58:07 GMT-0400 (Eastern Daylight Time)","749083","Trustworthy,Untrustworthy","","418","","","","decision","","<div class='trialDiv'><img src='trustrating_stim/white_00109_931230_fa_edt.bmp'><br><font class='baseline'><strong>Anthony</strong><p>Choose number of points to send.</font><div class='respPicDiv'><img src='img/responseButtonOffersNo0L.png' class='respPic'></div></div>","3","6","Anthony","9","Kept","0.65,0.2","13","0.65","trustrating_stim/white_00109_931230_fa_edt.bmp","7.5","93","18"
"html-keyboard-response","189","460811","0.0-19.0-2.17","63daf5a89c63648ec34664fb","bdp_trlrn","Tue Mar 14 2023 20:58:07 GMT-0400 (Eastern Daylight Time)","749083","Trustworthy,Untrustworthy","","null","","","","decisionFB","","<div class='trialDiv'><img src='trustrating_stim/white_00109_931230_fa_edt.bmp'><br><font class='baseline'><strong>Anthony</strong><p>Choose number of points to send.</font><div class='respPicDiv'><img src='img/responseButtonOffersNo0L3.png' class='respPic'></div></div>","null","6","Anthony","9","Kept","0.65,0.2","13","0.65","trustrating_stim/white_00109_931230_fa_edt.bmp","7.5","90","18"
"html-keyboard-response","190","461815","0.0-19.0-3.17","63daf5a89c63648ec34664fb","bdp_trlrn","Tue Mar 14 2023 20:58:07 GMT-0400 (Eastern Daylight Time)","749083","Trustworthy,Untrustworthy","","null","","","","feedback","","<div class='trialDiv'><img src='trustrating_stim/white_00109_931230_fa_edt.bmp'><br><font class='baseline'><strong>Anthony</strong><p>Received: <strong>12</strong></font> &nbsp; &nbsp; &nbsp; &nbsp; &nbsp; &nbsp;<font class='negOutcome'>Shared back: <strong>0</strong></font></font><div class='respPicDiv'><img src='img/responseButtonOffersNo0_wht.png' class='respPic'></div></div>","null","6","Anthony","9","Kept","0.65,0.2","13","0.65","trustrating_stim/white_00109_931230_fa_edt.bmp","7.5","90","18"
"html-keyboard-response","191","462531","0.0-19.0-1.18","63daf5a89c63648ec34664fb","bdp_trlrn","Tue Mar 14 2023 20:58:07 GMT-0400 (Eastern Daylight Time)","749083","Trustworthy,Untrustworthy","","714","","","","decision","","<div class='trialDiv'><img src='trustrating_stim/white_mw056.bmp'><br><font class='baseline'><strong>Marcus</strong><p>Choose number of points to send.</font><div class='respPicDiv'><img src='img/responseButtonOffersNo0L.png' class='respPic'></div></div>","3","7","Marcus","6","Shared","0.35,0.65","10","0.35","trustrating_stim/white_mw056.bmp","4","95","19"
"html-keyboard-response","192","462784","0.0-19.0-2.18","63daf5a89c63648ec34664fb","bdp_trlrn","Tue Mar 14 2023 20:58:07 GMT-0400 (Eastern Daylight Time)","749083","Trustworthy,Untrustworthy","","null","","","","decisionFB","","<div class='trialDiv'><img src='trustrating_stim/white_mw056.bmp'><br><font class='baseline'><strong>Marcus</strong><p>Choose number of points to send.</font><div class='respPicDiv'><img src='img/responseButtonOffersNo0L3.png' class='respPic'></div></div>","null","7","Marcus","6","Shared","0.35,0.65","10","0.35","trustrating_stim/white_mw056.bmp","4","92","19"
"html-keyboard-response","193","463794","0.0-19.0-3.18","63daf5a89c63648ec34664fb","bdp_trlrn","Tue Mar 14 2023 20:58:07 GMT-0400 (Eastern Daylight Time)","749083","Trustworthy,Untrustworthy","","null","","","","feedback","","<div class='trialDiv'><img src='trustrating_stim/white_mw056.bmp'><br><font class='baseline'><strong>Marcus</strong><p>Received: <strong>12</strong></font> &nbsp; &nbsp; &nbsp; &nbsp; &nbsp; &nbsp;<font class='posOutcome'>Shared back: <strong>6</strong></font></font><div class='respPicDiv'><img src='img/responseButtonOffersNo0_wht.png' class='respPic'></div></div>","null","7","Marcus","6","Shared","0.35,0.65","10","0.35","trustrating_stim/white_mw056.bmp","4","98","19"
"html-keyboard-response","194","464317","0.0-19.0-1.19","63daf5a89c63648ec34664fb","bdp_trlrn","Tue Mar 14 2023 20:58:07 GMT-0400 (Eastern Daylight Time)","749083","Trustworthy,Untrustworthy","","522","","","","decision","","<div class='trialDiv'><img src='trustrating_stim/white_00109_931230_fa_edt.bmp'><br><font class='baseline'><strong>Anthony</strong><p>Choose number of points to send.</font><div class='respPicDiv'><img src='img/responseButtonOffersNo0L.png' class='respPic'></div></div>","3","7","Anthony","9","Kept","0.65,0.2","13","0.65","trustrating_stim/white_00109_931230_fa_edt.bmp","7.5","103","20"
"html-keyboard-response","195","464577","0.0-19.0-2.19","63daf5a89c63648ec34664fb","bdp_trlrn","Tue Mar 14 2023 20:58:07 GMT-0400 (Eastern Daylight Time)","749083","Trustworthy,Untrustworthy","","null","","","","decisionFB","","<div class='trialDiv'><img src='trustrating_stim/white_00109_931230_fa_edt.bmp'><br><font class='baseline'><strong>Anthony</strong><p>Choose number of points to send.</font><div class='respPicDiv'><img src='img/responseButtonOffersNo0L3.png' class='respPic'></div></div>","null","7","Anthony","9","Kept","0.65,0.2","13","0.65","trustrating_stim/white_00109_931230_fa_edt.bmp","7.5","100","20"
"html-keyboard-response","196","465583","0.0-19.0-3.19","63daf5a89c63648ec34664fb","bdp_trlrn","Tue Mar 14 2023 20:58:07 GMT-0400 (Eastern Daylight Time)","749083","Trustworthy,Untrustworthy","","null","","","","feedback","","<div class='trialDiv'><img src='trustrating_stim/white_00109_931230_fa_edt.bmp'><br><font class='baseline'><strong>Anthony</strong><p>Received: <strong>12</strong></font> &nbsp; &nbsp; &nbsp; &nbsp; &nbsp; &nbsp;<font class='negOutcome'>Shared back: <strong>0</strong></font></font><div class='respPicDiv'><img src='img/responseButtonOffersNo0_wht.png' class='respPic'></div></div>","null","7","Anthony","9","Kept","0.65,0.2","13","0.65","trustrating_stim/white_00109_931230_fa_edt.bmp","7.5","100","20"
"html-keyboard-response","197","465922","0.0-19.0-1.20","63daf5a89c63648ec34664fb","bdp_trlrn","Tue Mar 14 2023 20:58:07 GMT-0400 (Eastern Daylight Time)","749083","Trustworthy,Untrustworthy","","339","","","","decision","","<div class='trialDiv'><img src='trustrating_stim/white_00785_941205_fb_edt.bmp'><br><font class='baseline'><strong>Jonathan</strong><p>Choose number of points to send.</font><div class='respPicDiv'><img src='img/responseButtonOffersNo0L.png' class='respPic'></div></div>","3","7","Jonathan","1","Kept","0.35,0.8","8","0.35","trustrating_stim/white_00785_941205_fb_edt.bmp","2","105","21"
"html-keyboard-response","198","466178","0.0-19.0-2.20","63daf5a89c63648ec34664fb","bdp_trlrn","Tue Mar 14 2023 20:58:07 GMT-0400 (Eastern Daylight Time)","749083","Trustworthy,Untrustworthy","","null","","","","decisionFB","","<div class='trialDiv'><img src='trustrating_stim/white_00785_941205_fb_edt.bmp'><br><font class='baseline'><strong>Jonathan</strong><p>Choose number of points to send.</font><div class='respPicDiv'><img src='img/responseButtonOffersNo0L3.png' class='respPic'></div></div>","null","7","Jonathan","1","Kept","0.35,0.8","8","0.35","trustrating_stim/white_00785_941205_fb_edt.bmp","2","102","21"
"html-keyboard-response","199","467186","0.0-19.0-3.20","63daf5a89c63648ec34664fb","bdp_trlrn","Tue Mar 14 2023 20:58:07 GMT-0400 (Eastern Daylight Time)","749083","Trustworthy,Untrustworthy","","null","","","","feedback","","<div class='trialDiv'><img src='trustrating_stim/white_00785_941205_fb_edt.bmp'><br><font class='baseline'><strong>Jonathan</strong><p>Received: <strong>12</strong></font> &nbsp; &nbsp; &nbsp; &nbsp; &nbsp; &nbsp;<font class='negOutcome'>Shared back: <strong>0</strong></font></font><div class='respPicDiv'><img src='img/responseButtonOffersNo0_wht.png' class='respPic'></div></div>","null","7","Jonathan","1","Kept","0.35,0.8","8","0.35","trustrating_stim/white_00785_941205_fb_edt.bmp","2","102","21"
"html-keyboard-response","200","467637","0.0-19.0-1.21","63daf5a89c63648ec34664fb","bdp_trlrn","Tue Mar 14 2023 20:58:07 GMT-0400 (Eastern Daylight Time)","749083","Trustworthy,Untrustworthy","","450","","","","decision","","<div class='trialDiv'><img src='trustrating_stim/white_00109_931230_fa_edt.bmp'><br><font class='baseline'><strong>Anthony</strong><p>Choose number of points to send.</font><div class='respPicDiv'><img src='img/responseButtonOffersNo0L.png' class='respPic'></div></div>","3","8","Anthony","9","Kept","0.65,0.2","13","0.65","trustrating_stim/white_00109_931230_fa_edt.bmp","7.5","107","22"
"html-keyboard-response","201","467898","0.0-19.0-2.21","63daf5a89c63648ec34664fb","bdp_trlrn","Tue Mar 14 2023 20:58:07 GMT-0400 (Eastern Daylight Time)","749083","Trustworthy,Untrustworthy","","null","","","","decisionFB","","<div class='trialDiv'><img src='trustrating_stim/white_00109_931230_fa_edt.bmp'><br><font class='baseline'><strong>Anthony</strong><p>Choose number of points to send.</font><div class='respPicDiv'><img src='img/responseButtonOffersNo0L3.png' class='respPic'></div></div>","null","8","Anthony","9","Kept","0.65,0.2","13","0.65","trustrating_stim/white_00109_931230_fa_edt.bmp","7.5","104","22"
"html-keyboard-response","202","468902","0.0-19.0-3.21","63daf5a89c63648ec34664fb","bdp_trlrn","Tue Mar 14 2023 20:58:07 GMT-0400 (Eastern Daylight Time)","749083","Trustworthy,Untrustworthy","","null","","","","feedback","","<div class='trialDiv'><img src='trustrating_stim/white_00109_931230_fa_edt.bmp'><br><font class='baseline'><strong>Anthony</strong><p>Received: <strong>12</strong></font> &nbsp; &nbsp; &nbsp; &nbsp; &nbsp; &nbsp;<font class='negOutcome'>Shared back: <strong>0</strong></font></font><div class='respPicDiv'><img src='img/responseButtonOffersNo0_wht.png' class='respPic'></div></div>","null","8","Anthony","9","Kept","0.65,0.2","13","0.65","trustrating_stim/white_00109_931230_fa_edt.bmp","7.5","104","22"
"html-keyboard-response","203","469378","0.0-19.0-1.22","63daf5a89c63648ec34664fb","bdp_trlrn","Tue Mar 14 2023 20:58:07 GMT-0400 (Eastern Daylight Time)","749083","Trustworthy,Untrustworthy","","475","","","","decision","","<div class='trialDiv'><img src='trustrating_stim/white_mw056.bmp'><br><font class='baseline'><strong>Marcus</strong><p>Choose number of points to send.</font><div class='respPicDiv'><img src='img/responseButtonOffersNo0L.png' class='respPic'></div></div>","3","8","Marcus","6","Shared","0.35,0.65","10","0.35","trustrating_stim/white_mw056.bmp","4","109","23"
"html-keyboard-response","204","469634","0.0-19.0-2.22","63daf5a89c63648ec34664fb","bdp_trlrn","Tue Mar 14 2023 20:58:07 GMT-0400 (Eastern Daylight Time)","749083","Trustworthy,Untrustworthy","","null","","","","decisionFB","","<div class='trialDiv'><img src='trustrating_stim/white_mw056.bmp'><br><font class='baseline'><strong>Marcus</strong><p>Choose number of points to send.</font><div class='respPicDiv'><img src='img/responseButtonOffersNo0L3.png' class='respPic'></div></div>","null","8","Marcus","6","Shared","0.35,0.65","10","0.35","trustrating_stim/white_mw056.bmp","4","106","23"
"html-keyboard-response","205","470642","0.0-19.0-3.22","63daf5a89c63648ec34664fb","bdp_trlrn","Tue Mar 14 2023 20:58:07 GMT-0400 (Eastern Daylight Time)","749083","Trustworthy,Untrustworthy","","null","","","","feedback","","<div class='trialDiv'><img src='trustrating_stim/white_mw056.bmp'><br><font class='baseline'><strong>Marcus</strong><p>Received: <strong>12</strong></font> &nbsp; &nbsp; &nbsp; &nbsp; &nbsp; &nbsp;<font class='posOutcome'>Shared back: <strong>6</strong></font></font><div class='respPicDiv'><img src='img/responseButtonOffersNo0_wht.png' class='respPic'></div></div>","null","8","Marcus","6","Shared","0.35,0.65","10","0.35","trustrating_stim/white_mw056.bmp","4","112","23"
"html-keyboard-response","206","471198","0.0-19.0-1.23","63daf5a89c63648ec34664fb","bdp_trlrn","Tue Mar 14 2023 20:58:07 GMT-0400 (Eastern Daylight Time)","749083","Trustworthy,Untrustworthy","","555","","","","decision","","<div class='trialDiv'><img src='trustrating_stim/white_00785_941205_fb_edt.bmp'><br><font class='baseline'><strong>Jonathan</strong><p>Choose number of points to send.</font><div class='respPicDiv'><img src='img/responseButtonOffersNo0L.png' class='respPic'></div></div>","3","8","Jonathan","1","Shared","0.35,0.8","8","0.35","trustrating_stim/white_00785_941205_fb_edt.bmp","2","117","24"
"html-keyboard-response","207","471456","0.0-19.0-2.23","63daf5a89c63648ec34664fb","bdp_trlrn","Tue Mar 14 2023 20:58:07 GMT-0400 (Eastern Daylight Time)","749083","Trustworthy,Untrustworthy","","null","","","","decisionFB","","<div class='trialDiv'><img src='trustrating_stim/white_00785_941205_fb_edt.bmp'><br><font class='baseline'><strong>Jonathan</strong><p>Choose number of points to send.</font><div class='respPicDiv'><img src='img/responseButtonOffersNo0L3.png' class='respPic'></div></div>","null","8","Jonathan","1","Shared","0.35,0.8","8","0.35","trustrating_stim/white_00785_941205_fb_edt.bmp","2","114","24"
"html-keyboard-response","208","472466","0.0-19.0-3.23","63daf5a89c63648ec34664fb","bdp_trlrn","Tue Mar 14 2023 20:58:07 GMT-0400 (Eastern Daylight Time)","749083","Trustworthy,Untrustworthy","","null","","","","feedback","","<div class='trialDiv'><img src='trustrating_stim/white_00785_941205_fb_edt.bmp'><br><font class='baseline'><strong>Jonathan</strong><p>Received: <strong>12</strong></font> &nbsp; &nbsp; &nbsp; &nbsp; &nbsp; &nbsp;<font class='posOutcome'>Shared back: <strong>6</strong></font></font><div class='respPicDiv'><img src='img/responseButtonOffersNo0_wht.png' class='respPic'></div></div>","null","8","Jonathan","1","Shared","0.35,0.8","8","0.35","trustrating_stim/white_00785_941205_fb_edt.bmp","2","120","24"
"html-keyboard-response","209","472938","0.0-19.0-1.24","63daf5a89c63648ec34664fb","bdp_trlrn","Tue Mar 14 2023 20:58:07 GMT-0400 (Eastern Daylight Time)","749083","Trustworthy,Untrustworthy","","471","","","","decision","","<div class='trialDiv'><img src='trustrating_stim/white_mw056.bmp'><br><font class='baseline'><strong>Marcus</strong><p>Choose number of points to send.</font><div class='respPicDiv'><img src='img/responseButtonOffersNo0L.png' class='respPic'></div></div>","3","9","Marcus","6","Shared","0.35,0.65","10","0.35","trustrating_stim/white_mw056.bmp","4","125","25"
"html-keyboard-response","210","473192","0.0-19.0-2.24","63daf5a89c63648ec34664fb","bdp_trlrn","Tue Mar 14 2023 20:58:07 GMT-0400 (Eastern Daylight Time)","749083","Trustworthy,Untrustworthy","","null","","","","decisionFB","","<div class='trialDiv'><img src='trustrating_stim/white_mw056.bmp'><br><font class='baseline'><strong>Marcus</strong><p>Choose number of points to send.</font><div class='respPicDiv'><img src='img/responseButtonOffersNo0L3.png' class='respPic'></div></div>","null","9","Marcus","6","Shared","0.35,0.65","10","0.35","trustrating_stim/white_mw056.bmp","4","122","25"
"html-keyboard-response","211","474202","0.0-19.0-3.24","63daf5a89c63648ec34664fb","bdp_trlrn","Tue Mar 14 2023 20:58:07 GMT-0400 (Eastern Daylight Time)","749083","Trustworthy,Untrustworthy","","null","","","","feedback","","<div class='trialDiv'><img src='trustrating_stim/white_mw056.bmp'><br><font class='baseline'><strong>Marcus</strong><p>Received: <strong>12</strong></font> &nbsp; &nbsp; &nbsp; &nbsp; &nbsp; &nbsp;<font class='posOutcome'>Shared back: <strong>6</strong></font></font><div class='respPicDiv'><img src='img/responseButtonOffersNo0_wht.png' class='respPic'></div></div>","null","9","Marcus","6","Shared","0.35,0.65","10","0.35","trustrating_stim/white_mw056.bmp","4","128","25"
"html-keyboard-response","212","474629","0.0-19.0-1.25","63daf5a89c63648ec34664fb","bdp_trlrn","Tue Mar 14 2023 20:58:07 GMT-0400 (Eastern Daylight Time)","749083","Trustworthy,Untrustworthy","","426","","","","decision","","<div class='trialDiv'><img src='trustrating_stim/white_00109_931230_fa_edt.bmp'><br><font class='baseline'><strong>Anthony</strong><p>Choose number of points to send.</font><div class='respPicDiv'><img src='img/responseButtonOffersNo0L.png' class='respPic'></div></div>","3","9","Anthony","9","Shared","0.65,0.2","13","0.65","trustrating_stim/white_00109_931230_fa_edt.bmp","7.5","133","26"
"html-keyboard-response","213","474887","0.0-19.0-2.25","63daf5a89c63648ec34664fb","bdp_trlrn","Tue Mar 14 2023 20:58:07 GMT-0400 (Eastern Daylight Time)","749083","Trustworthy,Untrustworthy","","null","","","","decisionFB","","<div class='trialDiv'><img src='trustrating_stim/white_00109_931230_fa_edt.bmp'><br><font class='baseline'><strong>Anthony</strong><p>Choose number of points to send.</font><div class='respPicDiv'><img src='img/responseButtonOffersNo0L3.png' class='respPic'></div></div>","null","9","Anthony","9","Shared","0.65,0.2","13","0.65","trustrating_stim/white_00109_931230_fa_edt.bmp","7.5","130","26"
"html-keyboard-response","214","475897","0.0-19.0-3.25","63daf5a89c63648ec34664fb","bdp_trlrn","Tue Mar 14 2023 20:58:07 GMT-0400 (Eastern Daylight Time)","749083","Trustworthy,Untrustworthy","","null","","","","feedback","","<div class='trialDiv'><img src='trustrating_stim/white_00109_931230_fa_edt.bmp'><br><font class='baseline'><strong>Anthony</strong><p>Received: <strong>12</strong></font> &nbsp; &nbsp; &nbsp; &nbsp; &nbsp; &nbsp;<font class='posOutcome'>Shared back: <strong>6</strong></font></font><div class='respPicDiv'><img src='img/responseButtonOffersNo0_wht.png' class='respPic'></div></div>","null","9","Anthony","9","Shared","0.65,0.2","13","0.65","trustrating_stim/white_00109_931230_fa_edt.bmp","7.5","136","26"
"html-keyboard-response","215","476314","0.0-19.0-1.26","63daf5a89c63648ec34664fb","bdp_trlrn","Tue Mar 14 2023 20:58:07 GMT-0400 (Eastern Daylight Time)","749083","Trustworthy,Untrustworthy","","416","","","","decision","","<div class='trialDiv'><img src='trustrating_stim/white_00785_941205_fb_edt.bmp'><br><font class='baseline'><strong>Jonathan</strong><p>Choose number of points to send.</font><div class='respPicDiv'><img src='img/responseButtonOffersNo0L.png' class='respPic'></div></div>","3","9","Jonathan","1","Shared","0.35,0.8","8","0.35","trustrating_stim/white_00785_941205_fb_edt.bmp","2","141","27"
"html-keyboard-response","216","476570","0.0-19.0-2.26","63daf5a89c63648ec34664fb","bdp_trlrn","Tue Mar 14 2023 20:58:07 GMT-0400 (Eastern Daylight Time)","749083","Trustworthy,Untrustworthy","","null","","","","decisionFB","","<div class='trialDiv'><img src='trustrating_stim/white_00785_941205_fb_edt.bmp'><br><font class='baseline'><strong>Jonathan</strong><p>Choose number of points to send.</font><div class='respPicDiv'><img src='img/responseButtonOffersNo0L3.png' class='respPic'></div></div>","null","9","Jonathan","1","Shared","0.35,0.8","8","0.35","trustrating_stim/white_00785_941205_fb_edt.bmp","2","138","27"
"html-keyboard-response","217","477575","0.0-19.0-3.26","63daf5a89c63648ec34664fb","bdp_trlrn","Tue Mar 14 2023 20:58:07 GMT-0400 (Eastern Daylight Time)","749083","Trustworthy,Untrustworthy","","null","","","","feedback","","<div class='trialDiv'><img src='trustrating_stim/white_00785_941205_fb_edt.bmp'><br><font class='baseline'><strong>Jonathan</strong><p>Received: <strong>12</strong></font> &nbsp; &nbsp; &nbsp; &nbsp; &nbsp; &nbsp;<font class='posOutcome'>Shared back: <strong>6</strong></font></font><div class='respPicDiv'><img src='img/responseButtonOffersNo0_wht.png' class='respPic'></div></div>","null","9","Jonathan","1","Shared","0.35,0.8","8","0.35","trustrating_stim/white_00785_941205_fb_edt.bmp","2","144","27"
"html-keyboard-response","218","477965","0.0-19.0-1.27","63daf5a89c63648ec34664fb","bdp_trlrn","Tue Mar 14 2023 20:58:07 GMT-0400 (Eastern Daylight Time)","749083","Trustworthy,Untrustworthy","","389","","","","decision","","<div class='trialDiv'><img src='trustrating_stim/white_mw056.bmp'><br><font class='baseline'><strong>Marcus</strong><p>Choose number of points to send.</font><div class='respPicDiv'><img src='img/responseButtonOffersNo0L.png' class='respPic'></div></div>","3","10","Marcus","6","Shared","0.35,0.65","10","0.35","trustrating_stim/white_mw056.bmp","4","149","28"
"html-keyboard-response","219","478224","0.0-19.0-2.27","63daf5a89c63648ec34664fb","bdp_trlrn","Tue Mar 14 2023 20:58:07 GMT-0400 (Eastern Daylight Time)","749083","Trustworthy,Untrustworthy","","null","","","","decisionFB","","<div class='trialDiv'><img src='trustrating_stim/white_mw056.bmp'><br><font class='baseline'><strong>Marcus</strong><p>Choose number of points to send.</font><div class='respPicDiv'><img src='img/responseButtonOffersNo0L3.png' class='respPic'></div></div>","null","10","Marcus","6","Shared","0.35,0.65","10","0.35","trustrating_stim/white_mw056.bmp","4","146","28"
