"trial_type","trial_index","time_elapsed","internal_node_id","subject_id","task","startTime","totalTime","labels","view_history","rt","event","trial","time","trialtype","success","stimulus","key_press","aground","name","faceID","outcome","agenttype","agentswpt","agentcurrpshare","face","avgRating","point_total","round"
"pavlovia","0","11","0.0-0.0","60234c1d5a0cf81cba76ce5d","bdp_trlrn","Fri Mar 10 2023 14:27:42 GMT-0500 (Eastern Standard Time)","800233","Untrustworthy,Trustworthy","","","","","","","","","","","","","","","","","","","",""
"instructions","1","13712","0.0-1.0","60234c1d5a0cf81cba76ce5d","bdp_trlrn","Fri Mar 10 2023 14:27:42 GMT-0500 (Eastern Standard Time)","800233","Untrustworthy,Trustworthy","[{""page_index"":0,""viewing_time"":13698}]","13699","","","","","","","","","","","","","","","","","",""
"","","","","60234c1d5a0cf81cba76ce5d","bdp_trlrn","Fri Mar 10 2023 14:27:42 GMT-0500 (Eastern Standard Time)","800233","Untrustworthy,Trustworthy","","","fullscreenenter","2","19036","fullscreenenter","","","","","","","","","","","","","",""
"fullscreen","2","20020","0.0-2.0","60234c1d5a0cf81cba76ce5d","bdp_trlrn","Fri Mar 10 2023 14:27:42 GMT-0500 (Eastern Standard Time)","800233","Untrustworthy,Trustworthy","","","","","","","true","","","","","","","","","","","","",""
"instructions","3","33133","0.0-4.0","60234c1d5a0cf81cba76ce5d","bdp_trlrn","Fri Mar 10 2023 14:27:42 GMT-0500 (Eastern Standard Time)","800233","Untrustworthy,Trustworthy","[{""page_index"":0,""viewing_time"":8541},{""page_index"":1,""viewing_time"":4567}]","13110","","","","","","","","","","","","","","","","","",""
"instructions","4","34585","0.0-5.0","60234c1d5a0cf81cba76ce5d","bdp_trlrn","Fri Mar 10 2023 14:27:42 GMT-0500 (Eastern Standard Time)","800233","Untrustworthy,Trustworthy","[{""page_index"":0,""viewing_time"":1447}]","1449","","","","","","","","","","","","","","","","","",""
"image-keyboard-response","5","38404","0.0-6.0-1.0","60234c1d5a0cf81cba76ce5d","bdp_trlrn","Fri Mar 10 2023 14:27:42 GMT-0500 (Eastern Standard Time)","800233","Untrustworthy,Trustworthy","","3706","","","","rating","","trustrating_stim/white_mw046.bmp","4","","","","","","","","","","",""
"image-keyboard-response","6","38610","0.0-6.0-2.0","60234c1d5a0cf81cba76ce5d","bdp_trlrn","Fri Mar 10 2023 14:27:42 GMT-0500 (Eastern Standard Time)","800233","Untrustworthy,Trustworthy","","null","","","","ratingFB","","trustrating_stim/white_mw046.bmp","null","","","","","","","","","","",""
"image-keyboard-response","7","41009","0.0-6.0-1.1","60234c1d5a0cf81cba76ce5d","bdp_trlrn","Fri Mar 10 2023 14:27:42 GMT-0500 (Eastern Standard Time)","800233","Untrustworthy,Trustworthy","","2279","","","","rating","","trustrating_stim/white_00761_941201_fb_edt.bmp","6","","","","","","","","","","",""
"image-keyboard-response","8","41216","0.0-6.0-2.1","60234c1d5a0cf81cba76ce5d","bdp_trlrn","Fri Mar 10 2023 14:27:42 GMT-0500 (Eastern Standard Time)","800233","Untrustworthy,Trustworthy","","null","","","","ratingFB","","trustrating_stim/white_00761_941201_fb_edt.bmp","null","","","","","","","","","","",""
"image-keyboard-response","9","42652","0.0-6.0-1.2","60234c1d5a0cf81cba76ce5d","bdp_trlrn","Fri Mar 10 2023 14:27:42 GMT-0500 (Eastern Standard Time)","800233","Untrustworthy,Trustworthy","","1328","","","","rating","","trustrating_stim/white_mw063.bmp","3","","","","","","","","","","",""
"image-keyboard-response","10","42855","0.0-6.0-2.2","60234c1d5a0cf81cba76ce5d","bdp_trlrn","Fri Mar 10 2023 14:27:42 GMT-0500 (Eastern Standard Time)","800233","Untrustworthy,Trustworthy","","null","","","","ratingFB","","trustrating_stim/white_mw063.bmp","null","","","","","","","","","","",""
"image-keyboard-response","11","46016","0.0-6.0-1.3","60234c1d5a0cf81cba76ce5d","bdp_trlrn","Fri Mar 10 2023 14:27:42 GMT-0500 (Eastern Standard Time)","800233","Untrustworthy,Trustworthy","","3052","","","","rating","","trustrating_stim/white_mw089.bmp","8","","","","","","","","","","",""
"image-keyboard-response","12","46220","0.0-6.0-2.3","60234c1d5a0cf81cba76ce5d","bdp_trlrn","Fri Mar 10 2023 14:27:42 GMT-0500 (Eastern Standard Time)","800233","Untrustworthy,Trustworthy","","null","","","","ratingFB","","trustrating_stim/white_mw089.bmp","null","","","","","","","","","","",""
"image-keyboard-response","13","48812","0.0-6.0-1.4","60234c1d5a0cf81cba76ce5d","bdp_trlrn","Fri Mar 10 2023 14:27:42 GMT-0500 (Eastern Standard Time)","800233","Untrustworthy,Trustworthy","","2484","","","","rating","","trustrating_stim/white_00519_940519_fb_edt.bmp","7","","","","","","","","","","",""
"image-keyboard-response","14","49018","0.0-6.0-2.4","60234c1d5a0cf81cba76ce5d","bdp_trlrn","Fri Mar 10 2023 14:27:42 GMT-0500 (Eastern Standard Time)","800233","Untrustworthy,Trustworthy","","null","","","","ratingFB","","trustrating_stim/white_00519_940519_fb_edt.bmp","null","","","","","","","","","","",""
"image-keyboard-response","15","52932","0.0-6.0-1.5","60234c1d5a0cf81cba76ce5d","bdp_trlrn","Fri Mar 10 2023 14:27:42 GMT-0500 (Eastern Standard Time)","800233","Untrustworthy,Trustworthy","","3808","","","","rating","","trustrating_stim/white_mw084.bmp","7","","","","","","","","","","",""
"image-keyboard-response","16","53137","0.0-6.0-2.5","60234c1d5a0cf81cba76ce5d","bdp_trlrn","Fri Mar 10 2023 14:27:42 GMT-0500 (Eastern Standard Time)","800233","Untrustworthy,Trustworthy","","null","","","","ratingFB","","trustrating_stim/white_mw084.bmp","null","","","","","","","","","","",""
"image-keyboard-response","17","55390","0.0-6.0-1.6","60234c1d5a0cf81cba76ce5d","bdp_trlrn","Fri Mar 10 2023 14:27:42 GMT-0500 (Eastern Standard Time)","800233","Untrustworthy,Trustworthy","","2145","","","","rating","","trustrating_stim/white_mw099.bmp","4","","","","","","","","","","",""
"image-keyboard-response","18","55595","0.0-6.0-2.6","60234c1d5a0cf81cba76ce5d","bdp_trlrn","Fri Mar 10 2023 14:27:42 GMT-0500 (Eastern Standard Time)","800233","Untrustworthy,Trustworthy","","null","","","","ratingFB","","trustrating_stim/white_mw099.bmp","null","","","","","","","","","","",""
"image-keyboard-response","19","57990","0.0-6.0-1.7","60234c1d5a0cf81cba76ce5d","bdp_trlrn","Fri Mar 10 2023 14:27:42 GMT-0500 (Eastern Standard Time)","800233","Untrustworthy,Trustworthy","","2287","","","","rating","","trustrating_stim/white_00757_941201_fa_edt.bmp","3","","","","","","","","","","",""
"image-keyboard-response","20","58196","0.0-6.0-2.7","60234c1d5a0cf81cba76ce5d","bdp_trlrn","Fri Mar 10 2023 14:27:42 GMT-0500 (Eastern Standard Time)","800233","Untrustworthy,Trustworthy","","null","","","","ratingFB","","trustrating_stim/white_00757_941201_fa_edt.bmp","null","","","","","","","","","","",""
"image-keyboard-response","21","61917","0.0-6.0-1.8","60234c1d5a0cf81cba76ce5d","bdp_trlrn","Fri Mar 10 2023 14:27:42 GMT-0500 (Eastern Standard Time)","800233","Untrustworthy,Trustworthy","","3616","","","","rating","","trustrating_stim/white_00120_931230_fa_edt.bmp","9","","","","","","","","","","",""
"image-keyboard-response","22","62123","0.0-6.0-2.8","60234c1d5a0cf81cba76ce5d","bdp_trlrn","Fri Mar 10 2023 14:27:42 GMT-0500 (Eastern Standard Time)","800233","Untrustworthy,Trustworthy","","null","","","","ratingFB","","trustrating_stim/white_00120_931230_fa_edt.bmp","null","","","","","","","","","","",""
"image-keyboard-response","23","65025","0.0-6.0-1.9","60234c1d5a0cf81cba76ce5d","bdp_trlrn","Fri Mar 10 2023 14:27:42 GMT-0500 (Eastern Standard Time)","800233","Untrustworthy,Trustworthy","","2789","","","","rating","","trustrating_stim/white_mw056.bmp","3","","","","","","","","","","",""
"image-keyboard-response","24","65229","0.0-6.0-2.9","60234c1d5a0cf81cba76ce5d","bdp_trlrn","Fri Mar 10 2023 14:27:42 GMT-0500 (Eastern Standard Time)","800233","Untrustworthy,Trustworthy","","null","","","","ratingFB","","trustrating_stim/white_mw056.bmp","null","","","","","","","","","","",""
"image-keyboard-response","25","67399","0.0-6.0-1.10","60234c1d5a0cf81cba76ce5d","bdp_trlrn","Fri Mar 10 2023 14:27:42 GMT-0500 (Eastern Standard Time)","800233","Untrustworthy,Trustworthy","","2064","","","","rating","","trustrating_stim/white_00109_931230_fa_edt.bmp","9","","","","","","","","","","",""
"image-keyboard-response","26","67601","0.0-6.0-2.10","60234c1d5a0cf81cba76ce5d","bdp_trlrn","Fri Mar 10 2023 14:27:42 GMT-0500 (Eastern Standard Time)","800233","Untrustworthy,Trustworthy","","null","","","","ratingFB","","trustrating_stim/white_00109_931230_fa_edt.bmp","null","","","","","","","","","","",""
"image-keyboard-response","27","69667","0.0-6.0-1.11","60234c1d5a0cf81cba76ce5d","bdp_trlrn","Fri Mar 10 2023 14:27:42 GMT-0500 (Eastern Standard Time)","800233","Untrustworthy,Trustworthy","","1961","","","","rating","","trustrating_stim/white_mw049.bmp","7","","","","","","","","","","",""
"image-keyboard-response","28","69873","0.0-6.0-2.11","60234c1d5a0cf81cba76ce5d","bdp_trlrn","Fri Mar 10 2023 14:27:42 GMT-0500 (Eastern Standard Time)","800233","Untrustworthy,Trustworthy","","null","","","","ratingFB","","trustrating_stim/white_mw049.bmp","null","","","","","","","","","","",""
"image-keyboard-response","29","73288","0.0-6.0-1.12","60234c1d5a0cf81cba76ce5d","bdp_trlrn","Fri Mar 10 2023 14:27:42 GMT-0500 (Eastern Standard Time)","800233","Untrustworthy,Trustworthy","","3306","","","","rating","","trustrating_stim/white_00898_960530_fa_edt.bmp","5","","","","","","","","","","",""
"image-keyboard-response","30","73496","0.0-6.0-2.12","60234c1d5a0cf81cba76ce5d","bdp_trlrn","Fri Mar 10 2023 14:27:42 GMT-0500 (Eastern Standard Time)","800233","Untrustworthy,Trustworthy","","null","","","","ratingFB","","trustrating_stim/white_00898_960530_fa_edt.bmp","null","","","","","","","","","","",""
"image-keyboard-response","31","75468","0.0-6.0-1.13","60234c1d5a0cf81cba76ce5d","bdp_trlrn","Fri Mar 10 2023 14:27:42 GMT-0500 (Eastern Standard Time)","800233","Untrustworthy,Trustworthy","","1861","","","","rating","","trustrating_stim/white_00577_940928_fa_edt.bmp","5","","","","","","","","","","",""
"image-keyboard-response","32","75674","0.0-6.0-2.13","60234c1d5a0cf81cba76ce5d","bdp_trlrn","Fri Mar 10 2023 14:27:42 GMT-0500 (Eastern Standard Time)","800233","Untrustworthy,Trustworthy","","null","","","","ratingFB","","trustrating_stim/white_00577_940928_fa_edt.bmp","null","","","","","","","","","","",""
"image-keyboard-response","33","78300","0.0-6.0-1.14","60234c1d5a0cf81cba76ce5d","bdp_trlrn","Fri Mar 10 2023 14:27:42 GMT-0500 (Eastern Standard Time)","800233","Untrustworthy,Trustworthy","","2518","","","","rating","","trustrating_stim/white_00299_940422_fa_edt.bmp","6","","","","","","","","","","",""
"image-keyboard-response","34","78507","0.0-6.0-2.14","60234c1d5a0cf81cba76ce5d","bdp_trlrn","Fri Mar 10 2023 14:27:42 GMT-0500 (Eastern Standard Time)","800233","Untrustworthy,Trustworthy","","null","","","","ratingFB","","trustrating_stim/white_00299_940422_fa_edt.bmp","null","","","","","","","","","","",""
"image-keyboard-response","35","81422","0.0-6.0-1.15","60234c1d5a0cf81cba76ce5d","bdp_trlrn","Fri Mar 10 2023 14:27:42 GMT-0500 (Eastern Standard Time)","800233","Untrustworthy,Trustworthy","","2807","","","","rating","","trustrating_stim/white_00659_941121_fa_edt.bmp","1","","","","","","","","","","",""
"image-keyboard-response","36","81632","0.0-6.0-2.15","60234c1d5a0cf81cba76ce5d","bdp_trlrn","Fri Mar 10 2023 14:27:42 GMT-0500 (Eastern Standard Time)","800233","Untrustworthy,Trustworthy","","null","","","","ratingFB","","trustrating_stim/white_00659_941121_fa_edt.bmp","null","","","","","","","","","","",""
"image-keyboard-response","37","84972","0.0-6.0-1.16","60234c1d5a0cf81cba76ce5d","bdp_trlrn","Fri Mar 10 2023 14:27:42 GMT-0500 (Eastern Standard Time)","800233","Untrustworthy,Trustworthy","","3232","","","","rating","","trustrating_stim/white_mw033.bmp","4","","","","","","","","","","",""
"image-keyboard-response","38","85179","0.0-6.0-2.16","60234c1d5a0cf81cba76ce5d","bdp_trlrn","Fri Mar 10 2023 14:27:42 GMT-0500 (Eastern Standard Time)","800233","Untrustworthy,Trustworthy","","null","","","","ratingFB","","trustrating_stim/white_mw033.bmp","null","","","","","","","","","","",""
"image-keyboard-response","39","86942","0.0-6.0-1.17","60234c1d5a0cf81cba76ce5d","bdp_trlrn","Fri Mar 10 2023 14:27:42 GMT-0500 (Eastern Standard Time)","800233","Untrustworthy,Trustworthy","","1653","","","","rating","","trustrating_stim/white_mw071.bmp","3","","","","","","","","","","",""
"image-keyboard-response","40","87146","0.0-6.0-2.17","60234c1d5a0cf81cba76ce5d","bdp_trlrn","Fri Mar 10 2023 14:27:42 GMT-0500 (Eastern Standard Time)","800233","Untrustworthy,Trustworthy","","null","","","","ratingFB","","trustrating_stim/white_mw071.bmp","null","","","","","","","","","","",""
"image-keyboard-response","41","88912","0.0-6.0-1.18","60234c1d5a0cf81cba76ce5d","bdp_trlrn","Fri Mar 10 2023 14:27:42 GMT-0500 (Eastern Standard Time)","800233","Untrustworthy,Trustworthy","","1655","","","","rating","","trustrating_stim/white_mw060.bmp","2","","","","","","","","","","",""
"image-keyboard-response","42","89117","0.0-6.0-2.18","60234c1d5a0cf81cba76ce5d","bdp_trlrn","Fri Mar 10 2023 14:27:42 GMT-0500 (Eastern Standard Time)","800233","Untrustworthy,Trustworthy","","null","","","","ratingFB","","trustrating_stim/white_mw060.bmp","null","","","","","","","","","","",""
"image-keyboard-response","43","90718","0.0-6.0-1.19","60234c1d5a0cf81cba76ce5d","bdp_trlrn","Fri Mar 10 2023 14:27:42 GMT-0500 (Eastern Standard Time)","800233","Untrustworthy,Trustworthy","","1494","","","","rating","","trustrating_stim/white_mw097.bmp","1","","","","","","","","","","",""
"image-keyboard-response","44","90925","0.0-6.0-2.19","60234c1d5a0cf81cba76ce5d","bdp_trlrn","Fri Mar 10 2023 14:27:42 GMT-0500 (Eastern Standard Time)","800233","Untrustworthy,Trustworthy","","null","","","","ratingFB","","trustrating_stim/white_mw097.bmp","null","","","","","","","","","","",""
"image-keyboard-response","45","93244","0.0-6.0-1.20","60234c1d5a0cf81cba76ce5d","bdp_trlrn","Fri Mar 10 2023 14:27:42 GMT-0500 (Eastern Standard Time)","800233","Untrustworthy,Trustworthy","","2201","","","","rating","","trustrating_stim/white_00223_940128_fb_edt.bmp","9","","","","","","","","","","",""
"image-keyboard-response","46","93450","0.0-6.0-2.20","60234c1d5a0cf81cba76ce5d","bdp_trlrn","Fri Mar 10 2023 14:27:42 GMT-0500 (Eastern Standard Time)","800233","Untrustworthy,Trustworthy","","null","","","","ratingFB","","trustrating_stim/white_00223_940128_fb_edt.bmp","null","","","","","","","","","","",""
"image-keyboard-response","47","95158","0.0-6.0-1.21","60234c1d5a0cf81cba76ce5d","bdp_trlrn","Fri Mar 10 2023 14:27:42 GMT-0500 (Eastern Standard Time)","800233","Untrustworthy,Trustworthy","","1593","","","","rating","","trustrating_stim/white_00807_941205_fb_edt.bmp","6","","","","","","","","","","",""
"image-keyboard-response","48","95363","0.0-6.0-2.21","60234c1d5a0cf81cba76ce5d","bdp_trlrn","Fri Mar 10 2023 14:27:42 GMT-0500 (Eastern Standard Time)","800233","Untrustworthy,Trustworthy","","null","","","","ratingFB","","trustrating_stim/white_00807_941205_fb_edt.bmp","null","","","","","","","","","","",""
"image-keyboard-response","49","99499","0.0-6.0-1.22","60234c1d5a0cf81cba76ce5d","bdp_trlrn","Fri Mar 10 2023 14:27:42 GMT-0500 (Eastern Standard Time)","800233","Untrustworthy,Trustworthy","","4027","","","","rating","","trustrating_stim/white_mw066.bmp","9","","","","","","","","","","",""
"image-keyboard-response","50","99705","0.0-6.0-2.22","60234c1d5a0cf81cba76ce5d","bdp_trlrn","Fri Mar 10 2023 14:27:42 GMT-0500 (Eastern Standard Time)","800233","Untrustworthy,Trustworthy","","null","","","","ratingFB","","trustrating_stim/white_mw066.bmp","null","","","","","","","","","","",""
"image-keyboard-response","51","100932","0.0-6.0-1.23","60234c1d5a0cf81cba76ce5d","bdp_trlrn","Fri Mar 10 2023 14:27:42 GMT-0500 (Eastern Standard Time)","800233","Untrustworthy,Trustworthy","","1113","","","","rating","","trustrating_stim/white_mw053.bmp","9","","","","","","","","","","",""
"image-keyboard-response","52","101135","0.0-6.0-2.23","60234c1d5a0cf81cba76ce5d","bdp_trlrn","Fri Mar 10 2023 14:27:42 GMT-0500 (Eastern Standard Time)","800233","Untrustworthy,Trustworthy","","null","","","","ratingFB","","trustrating_stim/white_mw053.bmp","null","","","","","","","","","","",""
"image-keyboard-response","53","103858","0.0-6.0-1.24","60234c1d5a0cf81cba76ce5d","bdp_trlrn","Fri Mar 10 2023 14:27:42 GMT-0500 (Eastern Standard Time)","800233","Untrustworthy,Trustworthy","","2611","","","","rating","","trustrating_stim/white_mw035.bmp","7","","","","","","","","","","",""
"image-keyboard-response","54","104062","0.0-6.0-2.24","60234c1d5a0cf81cba76ce5d","bdp_trlrn","Fri Mar 10 2023 14:27:42 GMT-0500 (Eastern Standard Time)","800233","Untrustworthy,Trustworthy","","null","","","","ratingFB","","trustrating_stim/white_mw035.bmp","null","","","","","","","","","","",""
"image-keyboard-response","55","105775","0.0-6.0-1.25","60234c1d5a0cf81cba76ce5d","bdp_trlrn","Fri Mar 10 2023 14:27:42 GMT-0500 (Eastern Standard Time)","800233","Untrustworthy,Trustworthy","","1598","","","","rating","","trustrating_stim/white_mw048.bmp","1","","","","","","","","","","",""
"image-keyboard-response","56","105981","0.0-6.0-2.25","60234c1d5a0cf81cba76ce5d","bdp_trlrn","Fri Mar 10 2023 14:27:42 GMT-0500 (Eastern Standard Time)","800233","Untrustworthy,Trustworthy","","null","","","","ratingFB","","trustrating_stim/white_mw048.bmp","null","","","","","","","","","","",""
"image-keyboard-response","57","108094","0.0-6.0-1.26","60234c1d5a0cf81cba76ce5d","bdp_trlrn","Fri Mar 10 2023 14:27:42 GMT-0500 (Eastern Standard Time)","800233","Untrustworthy,Trustworthy","","2007","","","","rating","","trustrating_stim/white_00785_941205_fb_edt.bmp","2","","","","","","","","","","",""
"image-keyboard-response","58","108301","0.0-6.0-2.26","60234c1d5a0cf81cba76ce5d","bdp_trlrn","Fri Mar 10 2023 14:27:42 GMT-0500 (Eastern Standard Time)","800233","Untrustworthy,Trustworthy","","null","","","","ratingFB","","trustrating_stim/white_00785_941205_fb_edt.bmp","null","","","","","","","","","","",""
"image-keyboard-response","59","110391","0.0-6.0-1.27","60234c1d5a0cf81cba76ce5d","bdp_trlrn","Fri Mar 10 2023 14:27:42 GMT-0500 (Eastern Standard Time)","800233","Untrustworthy,Trustworthy","","1981","","","","rating","","trustrating_stim/white_00602_940928_fb_edt.bmp","9","","","","","","","","","","",""
"image-keyboard-response","60","110596","0.0-6.0-2.27","60234c1d5a0cf81cba76ce5d","bdp_trlrn","Fri Mar 10 2023 14:27:42 GMT-0500 (Eastern Standard Time)","800233","Untrustworthy,Trustworthy","","null","","","","ratingFB","","trustrating_stim/white_00602_940928_fb_edt.bmp","null","","","","","","","","","","",""
"image-keyboard-response","61","114049","0.0-6.0-1.28","60234c1d5a0cf81cba76ce5d","bdp_trlrn","Fri Mar 10 2023 14:27:42 GMT-0500 (Eastern Standard Time)","800233","Untrustworthy,Trustworthy","","3341","","","","rating","","trustrating_stim/white_00340_940422_fa_edt.bmp","1","","","","","","","","","","",""
"image-keyboard-response","62","114256","0.0-6.0-2.28","60234c1d5a0cf81cba76ce5d","bdp_trlrn","Fri Mar 10 2023 14:27:42 GMT-0500 (Eastern Standard Time)","800233","Untrustworthy,Trustworthy","","null","","","","ratingFB","","trustrating_stim/white_00340_940422_fa_edt.bmp","null","","","","","","","","","","",""
"image-keyboard-response","63","115870","0.0-6.0-1.29","60234c1d5a0cf81cba76ce5d","bdp_trlrn","Fri Mar 10 2023 14:27:42 GMT-0500 (Eastern Standard Time)","800233","Untrustworthy,Trustworthy","","1477","","","","rating","","trustrating_stim/white_00129_931230_fb_edt.bmp","1","","","","","","","","","","",""
"image-keyboard-response","64","116074","0.0-6.0-2.29","60234c1d5a0cf81cba76ce5d","bdp_trlrn","Fri Mar 10 2023 14:27:42 GMT-0500 (Eastern Standard Time)","800233","Untrustworthy,Trustworthy","","null","","","","ratingFB","","trustrating_stim/white_00129_931230_fb_edt.bmp","null","","","","","","","","","","",""
"image-keyboard-response","65","117289","0.0-6.0-1.30","60234c1d5a0cf81cba76ce5d","bdp_trlrn","Fri Mar 10 2023 14:27:42 GMT-0500 (Eastern Standard Time)","800233","Untrustworthy,Trustworthy","","1103","","","","rating","","trustrating_stim/white_00340_940422_fa_edt.bmp","1","","","","","","","","","","",""
"image-keyboard-response","66","117492","0.0-6.0-2.30","60234c1d5a0cf81cba76ce5d","bdp_trlrn","Fri Mar 10 2023 14:27:42 GMT-0500 (Eastern Standard Time)","800233","Untrustworthy,Trustworthy","","null","","","","ratingFB","","trustrating_stim/white_00340_940422_fa_edt.bmp","null","","","","","","","","","","",""
"image-keyboard-response","67","122573","0.0-6.0-1.31","60234c1d5a0cf81cba76ce5d","bdp_trlrn","Fri Mar 10 2023 14:27:42 GMT-0500 (Eastern Standard Time)","800233","Untrustworthy,Trustworthy","","4972","","","","rating","","trustrating_stim/white_00519_940519_fb_edt.bmp","4","","","","","","","","","","",""
"image-keyboard-response","68","122777","0.0-6.0-2.31","60234c1d5a0cf81cba76ce5d","bdp_trlrn","Fri Mar 10 2023 14:27:42 GMT-0500 (Eastern Standard Time)","800233","Untrustworthy,Trustworthy","","null","","","","ratingFB","","trustrating_stim/white_00519_940519_fb_edt.bmp","null","","","","","","","","","","",""
"image-keyboard-response","69","125900","0.0-6.0-1.32","60234c1d5a0cf81cba76ce5d","bdp_trlrn","Fri Mar 10 2023 14:27:42 GMT-0500 (Eastern Standard Time)","800233","Untrustworthy,Trustworthy","","3008","","","","rating","","trustrating_stim/white_00129_931230_fb_edt.bmp","4","","","","","","","","","","",""
"image-keyboard-response","70","126104","0.0-6.0-2.32","60234c1d5a0cf81cba76ce5d","bdp_trlrn","Fri Mar 10 2023 14:27:42 GMT-0500 (Eastern Standard Time)","800233","Untrustworthy,Trustworthy","","null","","","","ratingFB","","trustrating_stim/white_00129_931230_fb_edt.bmp","null","","","","","","","","","","",""
"image-keyboard-response","71","129982","0.0-6.0-1.33","60234c1d5a0cf81cba76ce5d","bdp_trlrn","Fri Mar 10 2023 14:27:42 GMT-0500 (Eastern Standard Time)","800233","Untrustworthy,Trustworthy","","3761","","","","rating","","trustrating_stim/white_mw071.bmp","4","","","","","","","","","","",""
"image-keyboard-response","72","130187","0.0-6.0-2.33","60234c1d5a0cf81cba76ce5d","bdp_trlrn","Fri Mar 10 2023 14:27:42 GMT-0500 (Eastern Standard Time)","800233","Untrustworthy,Trustworthy","","null","","","","ratingFB","","trustrating_stim/white_mw071.bmp","null","","","","","","","","","","",""
"image-keyboard-response","73","133138","0.0-6.0-1.34","60234c1d5a0cf81cba76ce5d","bdp_trlrn","Fri Mar 10 2023 14:27:42 GMT-0500 (Eastern Standard Time)","800233","Untrustworthy,Trustworthy","","2834","","","","rating","","trustrating_stim/white_mw084.bmp","3","","","","","","","","","","",""
"image-keyboard-response","74","133343","0.0-6.0-2.34","60234c1d5a0cf81cba76ce5d","bdp_trlrn","Fri Mar 10 2023 14:27:42 GMT-0500 (Eastern Standard Time)","800233","Untrustworthy,Trustworthy","","null","","","","ratingFB","","trustrating_stim/white_mw084.bmp","null","","","","","","","","","","",""
"image-keyboard-response","75","134830","0.0-6.0-1.35","60234c1d5a0cf81cba76ce5d","bdp_trlrn","Fri Mar 10 2023 14:27:42 GMT-0500 (Eastern Standard Time)","800233","Untrustworthy,Trustworthy","","1378","","","","rating","","trustrating_stim/white_mw066.bmp","9","","","","","","","","","","",""
"image-keyboard-response","76","135033","0.0-6.0-2.35","60234c1d5a0cf81cba76ce5d","bdp_trlrn","Fri Mar 10 2023 14:27:42 GMT-0500 (Eastern Standard Time)","800233","Untrustworthy,Trustworthy","","null","","","","ratingFB","","trustrating_stim/white_mw066.bmp","null","","","","","","","","","","",""
"image-keyboard-response","77","137223","0.0-6.0-1.36","60234c1d5a0cf81cba76ce5d","bdp_trlrn","Fri Mar 10 2023 14:27:42 GMT-0500 (Eastern Standard Time)","800233","Untrustworthy,Trustworthy","","2079","","","","rating","","trustrating_stim/white_00299_940422_fa_edt.bmp","7","","","","","","","","","","",""
"image-keyboard-response","78","137427","0.0-6.0-2.36","60234c1d5a0cf81cba76ce5d","bdp_trlrn","Fri Mar 10 2023 14:27:42 GMT-0500 (Eastern Standard Time)","800233","Untrustworthy,Trustworthy","","null","","","","ratingFB","","trustrating_stim/white_00299_940422_fa_edt.bmp","null","","","","","","","","","","",""
"image-keyboard-response","79","139142","0.0-6.0-1.37","60234c1d5a0cf81cba76ce5d","bdp_trlrn","Fri Mar 10 2023 14:27:42 GMT-0500 (Eastern Standard Time)","800233","Untrustworthy,Trustworthy","","1606","","","","rating","","trustrating_stim/white_mw060.bmp","1","","","","","","","","","","",""
"image-keyboard-response","80","139349","0.0-6.0-2.37","60234c1d5a0cf81cba76ce5d","bdp_trlrn","Fri Mar 10 2023 14:27:42 GMT-0500 (Eastern Standard Time)","800233","Untrustworthy,Trustworthy","","null","","","","ratingFB","","trustrating_stim/white_mw060.bmp","null","","","","","","","","","","",""
"image-keyboard-response","81","142082","0.0-6.0-1.38","60234c1d5a0cf81cba76ce5d","bdp_trlrn","Fri Mar 10 2023 14:27:42 GMT-0500 (Eastern Standard Time)","800233","Untrustworthy,Trustworthy","","2618","","","","rating","","trustrating_stim/white_00807_941205_fb_edt.bmp","4","","","","","","","","","","",""
"image-keyboard-response","82","142285","0.0-6.0-2.38","60234c1d5a0cf81cba76ce5d","bdp_trlrn","Fri Mar 10 2023 14:27:42 GMT-0500 (Eastern Standard Time)","800233","Untrustworthy,Trustworthy","","null","","","","ratingFB","","trustrating_stim/white_00807_941205_fb_edt.bmp","null","","","","","","","","","","",""
"image-keyboard-response","83","144737","0.0-6.0-1.39","60234c1d5a0cf81cba76ce5d","bdp_trlrn","Fri Mar 10 2023 14:27:42 GMT-0500 (Eastern Standard Time)","800233","Untrustworthy,Trustworthy","","2338","","","","rating","","trustrating_stim/white_00761_941201_fb_edt.bmp","7","","","","","","","","","","",""
"image-keyboard-response","84","144941","0.0-6.0-2.39","60234c1d5a0cf81cba76ce5d","bdp_trlrn","Fri Mar 10 2023 14:27:42 GMT-0500 (Eastern Standard Time)","800233","Untrustworthy,Trustworthy","","null","","","","ratingFB","","trustrating_stim/white_00761_941201_fb_edt.bmp","null","","","","","","","","","","",""
"image-keyboard-response","85","146607","0.0-6.0-1.40","60234c1d5a0cf81cba76ce5d","bdp_trlrn","Fri Mar 10 2023 14:27:42 GMT-0500 (Eastern Standard Time)","800233","Untrustworthy,Trustworthy","","1553","","","","rating","","trustrating_stim/white_mw099.bmp","1","","","","","","","","","","",""
"image-keyboard-response","86","146816","0.0-6.0-2.40","60234c1d5a0cf81cba76ce5d","bdp_trlrn","Fri Mar 10 2023 14:27:42 GMT-0500 (Eastern Standard Time)","800233","Untrustworthy,Trustworthy","","null","","","","ratingFB","","trustrating_stim/white_mw099.bmp","null","","","","","","","","","","",""
"image-keyboard-response","87","149577","0.0-6.0-1.41","60234c1d5a0cf81cba76ce5d","bdp_trlrn","Fri Mar 10 2023 14:27:42 GMT-0500 (Eastern Standard Time)","800233","Untrustworthy,Trustworthy","","2645","","","","rating","","trustrating_stim/white_00223_940128_fb_edt.bmp","8","","","","","","","","","","",""
"image-keyboard-response","88","149782","0.0-6.0-2.41","60234c1d5a0cf81cba76ce5d","bdp_trlrn","Fri Mar 10 2023 14:27:42 GMT-0500 (Eastern Standard Time)","800233","Untrustworthy,Trustworthy","","null","","","","ratingFB","","trustrating_stim/white_00223_940128_fb_edt.bmp","null","","","","","","","","","","",""
"image-keyboard-response","89","153271","0.0-6.0-1.42","60234c1d5a0cf81cba76ce5d","bdp_trlrn","Fri Mar 10 2023 14:27:42 GMT-0500 (Eastern Standard Time)","800233","Untrustworthy,Trustworthy","","3375","","","","rating","","trustrating_stim/white_mw035.bmp","7","","","","","","","","","","",""
"image-keyboard-response","90","153485","0.0-6.0-2.42","60234c1d5a0cf81cba76ce5d","bdp_trlrn","Fri Mar 10 2023 14:27:42 GMT-0500 (Eastern Standard Time)","800233","Untrustworthy,Trustworthy","","null","","","","ratingFB","","trustrating_stim/white_mw035.bmp","null","","","","","","","","","","",""
"image-keyboard-response","91","156015","0.0-6.0-1.43","60234c1d5a0cf81cba76ce5d","bdp_trlrn","Fri Mar 10 2023 14:27:42 GMT-0500 (Eastern Standard Time)","800233","Untrustworthy,Trustworthy","","2415","","","","rating","","trustrating_stim/white_00757_941201_fa_edt.bmp","4","","","","","","","","","","",""
"image-keyboard-response","92","156220","0.0-6.0-2.43","60234c1d5a0cf81cba76ce5d","bdp_trlrn","Fri Mar 10 2023 14:27:42 GMT-0500 (Eastern Standard Time)","800233","Untrustworthy,Trustworthy","","null","","","","ratingFB","","trustrating_stim/white_00757_941201_fa_edt.bmp","null","","","","","","","","","","",""
"image-keyboard-response","93","157924","0.0-6.0-1.44","60234c1d5a0cf81cba76ce5d","bdp_trlrn","Fri Mar 10 2023 14:27:42 GMT-0500 (Eastern Standard Time)","800233","Untrustworthy,Trustworthy","","1593","","","","rating","","trustrating_stim/white_00577_940928_fa_edt.bmp","5","","","","","","","","","","",""
"image-keyboard-response","94","158131","0.0-6.0-2.44","60234c1d5a0cf81cba76ce5d","bdp_trlrn","Fri Mar 10 2023 14:27:42 GMT-0500 (Eastern Standard Time)","800233","Untrustworthy,Trustworthy","","null","","","","ratingFB","","trustrating_stim/white_00577_940928_fa_edt.bmp","null","","","","","","","","","","",""
"image-keyboard-response","95","159996","0.0-6.0-1.45","60234c1d5a0cf81cba76ce5d","bdp_trlrn","Fri Mar 10 2023 14:27:42 GMT-0500 (Eastern Standard Time)","800233","Untrustworthy,Trustworthy","","1752","","","","rating","","trustrating_stim/white_mw063.bmp","3","","","","","","","","","","",""
"image-keyboard-response","96","160204","0.0-6.0-2.45","60234c1d5a0cf81cba76ce5d","bdp_trlrn","Fri Mar 10 2023 14:27:42 GMT-0500 (Eastern Standard Time)","800233","Untrustworthy,Trustworthy","","null","","","","ratingFB","","trustrating_stim/white_mw063.bmp","null","","","","","","","","","","",""
"image-keyboard-response","97","162299","0.0-6.0-1.46","60234c1d5a0cf81cba76ce5d","bdp_trlrn","Fri Mar 10 2023 14:27:42 GMT-0500 (Eastern Standard Time)","800233","Untrustworthy,Trustworthy","","1981","","","","rating","","trustrating_stim/white_00898_960530_fa_edt.bmp","5","","","","","","","","","","",""
"image-keyboard-response","98","162505","0.0-6.0-2.46","60234c1d5a0cf81cba76ce5d","bdp_trlrn","Fri Mar 10 2023 14:27:42 GMT-0500 (Eastern Standard Time)","800233","Untrustworthy,Trustworthy","","null","","","","ratingFB","","trustrating_stim/white_00898_960530_fa_edt.bmp","null","","","","","","","","","","",""
"image-keyboard-response","99","165976","0.0-6.0-1.47","60234c1d5a0cf81cba76ce5d","bdp_trlrn","Fri Mar 10 2023 14:27:42 GMT-0500 (Eastern Standard Time)","800233","Untrustworthy,Trustworthy","","3358","","","","rating","","trustrating_stim/white_mw046.bmp","5","","","","","","","","","","",""
"image-keyboard-response","100","166187","0.0-6.0-2.47","60234c1d5a0cf81cba76ce5d","bdp_trlrn","Fri Mar 10 2023 14:27:42 GMT-0500 (Eastern Standard Time)","800233","Untrustworthy,Trustworthy","","null","","","","ratingFB","","trustrating_stim/white_mw046.bmp","null","","","","","","","","","","",""
"image-keyboard-response","101","167672","0.0-6.0-1.48","60234c1d5a0cf81cba76ce5d","bdp_trlrn","Fri Mar 10 2023 14:27:42 GMT-0500 (Eastern Standard Time)","800233","Untrustworthy,Trustworthy","","1371","","","","rating","","trustrating_stim/white_mw097.bmp","1","","","","","","","","","","",""
"image-keyboard-response","102","167876","0.0-6.0-2.48","60234c1d5a0cf81cba76ce5d","bdp_trlrn","Fri Mar 10 2023 14:27:42 GMT-0500 (Eastern Standard Time)","800233","Untrustworthy,Trustworthy","","null","","","","ratingFB","","trustrating_stim/white_mw097.bmp","null","","","","","","","","","","",""
"image-keyboard-response","103","169093","0.0-6.0-1.49","60234c1d5a0cf81cba76ce5d","bdp_trlrn","Fri Mar 10 2023 14:27:42 GMT-0500 (Eastern Standard Time)","800233","Untrustworthy,Trustworthy","","1105","","","","rating","","trustrating_stim/white_00659_941121_fa_edt.bmp","1","","","","","","","","","","",""
"image-keyboard-response","104","169297","0.0-6.0-2.49","60234c1d5a0cf81cba76ce5d","bdp_trlrn","Fri Mar 10 2023 14:27:42 GMT-0500 (Eastern Standard Time)","800233","Untrustworthy,Trustworthy","","null","","","","ratingFB","","trustrating_stim/white_00659_941121_fa_edt.bmp","null","","","","","","","","","","",""
"image-keyboard-response","105","171230","0.0-6.0-1.50","60234c1d5a0cf81cba76ce5d","bdp_trlrn","Fri Mar 10 2023 14:27:42 GMT-0500 (Eastern Standard Time)","800233","Untrustworthy,Trustworthy","","1816","","","","rating","","trustrating_stim/white_mw033.bmp","6","","","","","","","","","","",""
"image-keyboard-response","106","171434","0.0-6.0-2.50","60234c1d5a0cf81cba76ce5d","bdp_trlrn","Fri Mar 10 2023 14:27:42 GMT-0500 (Eastern Standard Time)","800233","Untrustworthy,Trustworthy","","null","","","","ratingFB","","trustrating_stim/white_mw033.bmp","null","","","","","","","","","","",""
"image-keyboard-response","107","173819","0.0-6.0-1.51","60234c1d5a0cf81cba76ce5d","bdp_trlrn","Fri Mar 10 2023 14:27:42 GMT-0500 (Eastern Standard Time)","800233","Untrustworthy,Trustworthy","","2268","","","","rating","","trustrating_stim/white_mw048.bmp","1","","","","","","","","","","",""
"image-keyboard-response","108","174025","0.0-6.0-2.51","60234c1d5a0cf81cba76ce5d","bdp_trlrn","Fri Mar 10 2023 14:27:42 GMT-0500 (Eastern Standard Time)","800233","Untrustworthy,Trustworthy","","null","","","","ratingFB","","trustrating_stim/white_mw048.bmp","null","","","","","","","","","","",""
"image-keyboard-response","109","176097","0.0-6.0-1.52","60234c1d5a0cf81cba76ce5d","bdp_trlrn","Fri Mar 10 2023 14:27:42 GMT-0500 (Eastern Standard Time)","800233","Untrustworthy,Trustworthy","","1955","","","","rating","","trustrating_stim/white_00785_941205_fb_edt.bmp","3","","","","","","","","","","",""
"image-keyboard-response","110","176302","0.0-6.0-2.52","60234c1d5a0cf81cba76ce5d","bdp_trlrn","Fri Mar 10 2023 14:27:42 GMT-0500 (Eastern Standard Time)","800233","Untrustworthy,Trustworthy","","null","","","","ratingFB","","trustrating_stim/white_00785_941205_fb_edt.bmp","null","","","","","","","","","","",""
"image-keyboard-response","111","177642","0.0-6.0-1.53","60234c1d5a0cf81cba76ce5d","bdp_trlrn","Fri Mar 10 2023 14:27:42 GMT-0500 (Eastern Standard Time)","800233","Untrustworthy,Trustworthy","","1223","","","","rating","","trustrating_stim/white_mw053.bmp","9","","","","","","","","","","",""
"image-keyboard-response","112","177847","0.0-6.0-2.53","60234c1d5a0cf81cba76ce5d","bdp_trlrn","Fri Mar 10 2023 14:27:42 GMT-0500 (Eastern Standard Time)","800233","Untrustworthy,Trustworthy","","null","","","","ratingFB","","trustrating_stim/white_mw053.bmp","null","","","","","","","","","","",""
"image-keyboard-response","113","179408","0.0-6.0-1.54","60234c1d5a0cf81cba76ce5d","bdp_trlrn","Fri Mar 10 2023 14:27:42 GMT-0500 (Eastern Standard Time)","800233","Untrustworthy,Trustworthy","","1448","","","","rating","","trustrating_stim/white_00602_940928_fb_edt.bmp","9","","","","","","","","","","",""
"image-keyboard-response","114","179614","0.0-6.0-2.54","60234c1d5a0cf81cba76ce5d","bdp_trlrn","Fri Mar 10 2023 14:27:42 GMT-0500 (Eastern Standard Time)","800233","Untrustworthy,Trustworthy","","null","","","","ratingFB","","trustrating_stim/white_00602_940928_fb_edt.bmp","null","","","","","","","","","","",""
"image-keyboard-response","115","182827","0.0-6.0-1.55","60234c1d5a0cf81cba76ce5d","bdp_trlrn","Fri Mar 10 2023 14:27:42 GMT-0500 (Eastern Standard Time)","800233","Untrustworthy,Trustworthy","","3094","","","","rating","","trustrating_stim/white_mw056.bmp","4","","","","","","","","","","",""
"image-keyboard-response","116","183033","0.0-6.0-2.55","60234c1d5a0cf81cba76ce5d","bdp_trlrn","Fri Mar 10 2023 14:27:42 GMT-0500 (Eastern Standard Time)","800233","Untrustworthy,Trustworthy","","null","","","","ratingFB","","trustrating_stim/white_mw056.bmp","null","","","","","","","","","","",""
"image-keyboard-response","117","185641","0.0-6.0-1.56","60234c1d5a0cf81cba76ce5d","bdp_trlrn","Fri Mar 10 2023 14:27:42 GMT-0500 (Eastern Standard Time)","800233","Untrustworthy,Trustworthy","","2495","","","","rating","","trustrating_stim/white_mw089.bmp","5","","","","","","","","","","",""
"image-keyboard-response","118","185844","0.0-6.0-2.56","60234c1d5a0cf81cba76ce5d","bdp_trlrn","Fri Mar 10 2023 14:27:42 GMT-0500 (Eastern Standard Time)","800233","Untrustworthy,Trustworthy","","null","","","","ratingFB","","trustrating_stim/white_mw089.bmp","null","","","","","","","","","","",""
"image-keyboard-response","119","188755","0.0-6.0-1.57","60234c1d5a0cf81cba76ce5d","bdp_trlrn","Fri Mar 10 2023 14:27:42 GMT-0500 (Eastern Standard Time)","800233","Untrustworthy,Trustworthy","","2797","","","","rating","","trustrating_stim/white_00120_931230_fa_edt.bmp","7","","","","","","","","","","",""
"image-keyboard-response","120","188961","0.0-6.0-2.57","60234c1d5a0cf81cba76ce5d","bdp_trlrn","Fri Mar 10 2023 14:27:42 GMT-0500 (Eastern Standard Time)","800233","Untrustworthy,Trustworthy","","null","","","","ratingFB","","trustrating_stim/white_00120_931230_fa_edt.bmp","null","","","","","","","","","","",""
"image-keyboard-response","121","191732","0.0-6.0-1.58","60234c1d5a0cf81cba76ce5d","bdp_trlrn","Fri Mar 10 2023 14:27:42 GMT-0500 (Eastern Standard Time)","800233","Untrustworthy,Trustworthy","","2659","","","","rating","","trustrating_stim/white_mw049.bmp","6","","","","","","","","","","",""
"image-keyboard-response","122","191936","0.0-6.0-2.58","60234c1d5a0cf81cba76ce5d","bdp_trlrn","Fri Mar 10 2023 14:27:42 GMT-0500 (Eastern Standard Time)","800233","Untrustworthy,Trustworthy","","null","","","","ratingFB","","trustrating_stim/white_mw049.bmp","null","","","","","","","","","","",""
"image-keyboard-response","123","195495","0.0-6.0-1.59","60234c1d5a0cf81cba76ce5d","bdp_trlrn","Fri Mar 10 2023 14:27:42 GMT-0500 (Eastern Standard Time)","800233","Untrustworthy,Trustworthy","","3442","","","","rating","","trustrating_stim/white_00109_931230_fa_edt.bmp","5","","","","","","","","","","",""
"image-keyboard-response","124","195703","0.0-6.0-2.59","60234c1d5a0cf81cba76ce5d","bdp_trlrn","Fri Mar 10 2023 14:27:42 GMT-0500 (Eastern Standard Time)","800233","Untrustworthy,Trustworthy","","null","","","","ratingFB","","trustrating_stim/white_00109_931230_fa_edt.bmp","null","","","","","","","","","","",""
"instructions","125","197440","0.0-7.0","60234c1d5a0cf81cba76ce5d","bdp_trlrn","Fri Mar 10 2023 14:27:42 GMT-0500 (Eastern Standard Time)","800233","Untrustworthy,Trustworthy","[{""page_index"":0,""viewing_time"":1625}]","1626","","","","","","","","","","","","","","","","","",""
"instructions","126","333202","0.0-8.0","60234c1d5a0cf81cba76ce5d","bdp_trlrn","Fri Mar 10 2023 14:27:42 GMT-0500 (Eastern Standard Time)","800233","Untrustworthy,Trustworthy","[{""page_index"":0,""viewing_time"":23358},{""page_index"":1,""viewing_time"":22686},{""page_index"":2,""viewing_time"":12674},{""page_index"":3,""viewing_time"":13346},{""page_index"":4,""viewing_time"":15320},{""page_index"":5,""viewing_time"":17843},{""page_index"":6,""viewing_time"":23638},{""page_index"":7,""viewing_time"":6791}]","135657","","","","","","","","","","","","","","","","","",""
"html-keyboard-response","127","337390","0.0-9.0","60234c1d5a0cf81cba76ce5d","bdp_trlrn","Fri Mar 10 2023 14:27:42 GMT-0500 (Eastern Standard Time)","800233","Untrustworthy,Trustworthy","","4180","","","","","","<div class='header' style='text-align:left; position: absolute; top: 5%; left: 5%;'><small>Task 3 of 5</small></div><div class='instruxDiv'><p><strong>1) What is the minimum number of points you can choose to send to your partner?</strong></p><p>a) 0</p><p>b) 1</p><p>c) 5</p>","C","","","","","","","","","","",""
"html-keyboard-response","128","342737","0.0-10.0","60234c1d5a0cf81cba76ce5d","bdp_trlrn","Fri Mar 10 2023 14:27:42 GMT-0500 (Eastern Standard Time)","800233","Untrustworthy,Trustworthy","","5238","","","","","","<div class='header' style='text-align:left; position: absolute; top: 5%; left: 5%;'><small>Task 3 of 5</small></div><div class='instruxDiv'><p><strong>1) What is the minimum number of points you can choose to send to your partner?</strong></p><p>a) 1</p><p>b) 1</p><p style='color:#FF0000'>c) 5</p><h3 style='color:#FF0000'>Incorrect!</h3><h3 class='center-content'>The correct response is b).</h3><h3 class='center-content'>The minimum number of points you can choose to send to your partner is 1 point.</h3><p><em>Press SPACEBAR to continue</em></p></div>"," ","","","","","","","","","","",""
"html-keyboard-response","129","348545","0.0-11.0","60234c1d5a0cf81cba76ce5d","bdp_trlrn","Fri Mar 10 2023 14:27:42 GMT-0500 (Eastern Standard Time)","800233","Untrustworthy,Trustworthy","","5702","","","","","","<div class='header' style='text-align:left; position: absolute; top: 5%; left: 5%;'><small>Task 3 of 5</small></div><div class='instruxDiv'><p><strong>2) What is the maximum number of points you can choose to send to your partner?</strong></p><p>a) 8</p><p>b) 5</p><p>c) 3</p>","B","","","","","","","","","","",""
"html-keyboard-response","130","351164","0.0-12.0","60234c1d5a0cf81cba76ce5d","bdp_trlrn","Fri Mar 10 2023 14:27:42 GMT-0500 (Eastern Standard Time)","800233","Untrustworthy,Trustworthy","","2513","","","","","","<div class='header' style='text-align:left; position: absolute; top: 5%; left: 5%;'><small>Task 3 of 5</small></div><div class='instruxDiv'><p><strong>2) What is the maximum number of points you can choose to send to your partner?</strong></p><p>a) 8</p><p style='color:#00FF00'>b) 5</p><p>c) 3</p><h3 style='color:#00FF00'>Correct!</h3><h3 class='center-content'>The correct response is b).</h3><h3 class='center-content'>The maximum number of points you can choose to send to your partner is 5 points.</h3><p><em>Press SPACEBAR to continue</em></p></div>"," ","","","","","","","","","","",""
"html-keyboard-response","131","367130","0.0-13.0","60234c1d5a0cf81cba76ce5d","bdp_trlrn","Fri Mar 10 2023 14:27:42 GMT-0500 (Eastern Standard Time)","800233","Untrustworthy,Trustworthy","","15862","","","","","","<div class='header' style='text-align:left; position: absolute; top: 5%; left: 5%;'><small>Task 3 of 5</small></div><div class='instruxDiv'><p><strong>3) What happens to the amount of points you send to your partner?</strong></p><p>a) Nothing</p><p>b) It doubles</p><p>c) It quadruples</p>","C","","","","","","","","","","",""
"html-keyboard-response","132","368537","0.0-14.0","60234c1d5a0cf81cba76ce5d","bdp_trlrn","Fri Mar 10 2023 14:27:42 GMT-0500 (Eastern Standard Time)","800233","Untrustworthy,Trustworthy","","1297","","","","","","<div class='header' style='text-align:left; position: absolute; top: 5%; left: 5%;'><small>Task 3 of 5</small></div><div class='instruxDiv'><p><strong>3) What happens to the amount of points you send to your partner?</strong></p><p>a) Nothing</p><p>b) It doubles</p><p style='color:#00FF00'>c) It quadruples</p><h3 style='color:#00FF00'>Correct!</h3><h3 class='center-content'>The correct response is c).</h3><h3 class='center-content'>The amount of points you send to your partner quadruples.</h3><p><em>Press SPACEBAR to continue</em></p></div>"," ","","","","","","","","","","",""
"html-keyboard-response","133","382730","0.0-15.0","60234c1d5a0cf81cba76ce5d","bdp_trlrn","Fri Mar 10 2023 14:27:42 GMT-0500 (Eastern Standard Time)","800233","Untrustworthy,Trustworthy","","14089","","","","","","<div class='header' style='text-align:left; position: absolute; top: 5%; left: 5%;'><small>Task 3 of 5</small></div><div class='instruxDiv'><p><strong>4) If you decided to share 4 out of 5 points with your partner, and they decided to share half of the amount they received with you, how many points would you receive back from them on this round?</strong></p><p>a) 16</p><p>b) 0</p><p>c) 8</p>","C","","","","","","","","","","",""
"html-keyboard-response","134","383763","0.0-16.0","60234c1d5a0cf81cba76ce5d","bdp_trlrn","Fri Mar 10 2023 14:27:42 GMT-0500 (Eastern Standard Time)","800233","Untrustworthy,Trustworthy","","929","","","","","","<div class='header' style='text-align:left; position: absolute; top: 5%; left: 5%;'><small>Task 3 of 5</small></div><div class='instruxDiv'><p><strong>4) If you decided to share 4 out of 5 points with your partner, and they decided to share half of the amount they received with you, how many points would you receive back from them on this round?</strong></p><p>a) 16</p><p>b) 0</p><p style='color:#00FF00'>c) 8</p><h3 style='color:#00FF00'>Correct!</h3><h3 class='center-content'>The correct response is c).</h3><h3 class='center-content'>If you shared 4 out of 5 points with your partner and they decided to share half of the amount they received with you, you would receive 8 points back (i.e. (4 x 4)/2 = 8).</h3><p><em>Press SPACEBAR to continue</em></p></div>"," ","","","","","","","","","","",""
"html-keyboard-response","135","388872","0.0-17.0","60234c1d5a0cf81cba76ce5d","bdp_trlrn","Fri Mar 10 2023 14:27:42 GMT-0500 (Eastern Standard Time)","800233","Untrustworthy,Trustworthy","","null","","","","","","<div class='header' style='text-align:left; position: absolute; top: 5%; left: 5%;'><small>Task 3 of 5</small></div><div class='instruxDiv'><p>Thank you for completing the quiz<p>These are the actual partners you will be interacting with in the next block:<p><div class='tc' align='center'><img class='introPic' src='trustrating_stim/white_00340_940422_fa_edt.bmp'><br><strong>Anthony</strong></div><div class='bl' align='center'><img class='introPic' src='trustrating_stim/white_00577_940928_fa_edt.bmp'><br><strong>Ethan</strong></div><div class='br' align='center'><img class='introPic' src='trustrating_stim/white_mw066.bmp'><br><strong>Jason</strong></div></div><p>Across <strong>66 rounds</strong> you will interact with each partner <strong>22 times</strong> (in random order).<p style='align:center; color:white'><font <em>Press SPACEBAR to continue</em></p>","null","","","","","","","","","","",""
"instructions","136","401883","0.0-18.0","60234c1d5a0cf81cba76ce5d","bdp_trlrn","Fri Mar 10 2023 14:27:42 GMT-0500 (Eastern Standard Time)","800233","Untrustworthy,Trustworthy","[{""page_index"":0,""viewing_time"":7126},{""page_index"":1,""viewing_time"":5880}]","13006","","","","","","","","","","","","","","","","","",""
"html-keyboard-response","137","407667","0.0-19.0-1.0","60234c1d5a0cf81cba76ce5d","bdp_trlrn","Fri Mar 10 2023 14:27:42 GMT-0500 (Eastern Standard Time)","800233","Untrustworthy,Trustworthy","","5673","","","","decision","","<div class='trialDiv'><img src='trustrating_stim/white_00577_940928_fa_edt.bmp'><br><font class='baseline'><strong>Ethan</strong><p>Choose number of points to send.</font><div class='respPicDiv'><img src='img/responseButtonOffersNo0L.png' class='respPic'></div></div>","3","1","Ethan","7","Shared","0.8,0.35","14","0.8","trustrating_stim/white_00577_940928_fa_edt.bmp","5","5","1"
"html-keyboard-response","138","407925","0.0-19.0-2.0","60234c1d5a0cf81cba76ce5d","bdp_trlrn","Fri Mar 10 2023 14:27:42 GMT-0500 (Eastern Standard Time)","800233","Untrustworthy,Trustworthy","","null","","","","decisionFB","","<div class='trialDiv'><img src='trustrating_stim/white_00577_940928_fa_edt.bmp'><br><font class='baseline'><strong>Ethan</strong><p>Choose number of points to send.</font><div class='respPicDiv'><img src='img/responseButtonOffersNo0L3.png' class='respPic'></div></div>","null","1","Ethan","7","Shared","0.8,0.35","14","0.8","trustrating_stim/white_00577_940928_fa_edt.bmp","5","2","1"
"html-keyboard-response","139","408935","0.0-19.0-3.0","60234c1d5a0cf81cba76ce5d","bdp_trlrn","Fri Mar 10 2023 14:27:42 GMT-0500 (Eastern Standard Time)","800233","Untrustworthy,Trustworthy","","null","","","","feedback","","<div class='trialDiv'><img src='trustrating_stim/white_00577_940928_fa_edt.bmp'><br><font class='baseline'><strong>Ethan</strong><p>Received: <strong>12</strong></font> &nbsp; &nbsp; &nbsp; &nbsp; &nbsp; &nbsp;<font class='posOutcome'>Shared back: <strong>6</strong></font></font><div class='respPicDiv'><img src='img/responseButtonOffersNo0_wht.png' class='respPic'></div></div>","null","1","Ethan","7","Shared","0.8,0.35","14","0.8","trustrating_stim/white_00577_940928_fa_edt.bmp","5","8","1"
"html-keyboard-response","140","413429","0.0-19.0-1.1","60234c1d5a0cf81cba76ce5d","bdp_trlrn","Fri Mar 10 2023 14:27:42 GMT-0500 (Eastern Standard Time)","800233","Untrustworthy,Trustworthy","","4488","","","","decision","","<div class='trialDiv'><img src='trustrating_stim/white_00340_940422_fa_edt.bmp'><br><font class='baseline'><strong>Anthony</strong><p>Choose number of points to send.</font><div class='respPicDiv'><img src='img/responseButtonOffersNo0L.png' class='respPic'></div></div>","3","1","Anthony","0","Shared","0.35,0.8","12","0.35","trustrating_stim/white_00340_940422_fa_edt.bmp","1","13","2"
"html-keyboard-response","141","413686","0.0-19.0-2.1","60234c1d5a0cf81cba76ce5d","bdp_trlrn","Fri Mar 10 2023 14:27:42 GMT-0500 (Eastern Standard Time)","800233","Untrustworthy,Trustworthy","","null","","","","decisionFB","","<div class='trialDiv'><img src='trustrating_stim/white_00340_940422_fa_edt.bmp'><br><font class='baseline'><strong>Anthony</strong><p>Choose number of points to send.</font><div class='respPicDiv'><img src='img/responseButtonOffersNo0L3.png' class='respPic'></div></div>","null","1","Anthony","0","Shared","0.35,0.8","12","0.35","trustrating_stim/white_00340_940422_fa_edt.bmp","1","10","2"
"html-keyboard-response","142","414697","0.0-19.0-3.1","60234c1d5a0cf81cba76ce5d","bdp_trlrn","Fri Mar 10 2023 14:27:42 GMT-0500 (Eastern Standard Time)","800233","Untrustworthy,Trustworthy","","null","","","","feedback","","<div class='trialDiv'><img src='trustrating_stim/white_00340_940422_fa_edt.bmp'><br><font class='baseline'><strong>Anthony</strong><p>Received: <strong>12</strong></font> &nbsp; &nbsp; &nbsp; &nbsp; &nbsp; &nbsp;<font class='posOutcome'>Shared back: <strong>6</strong></font></font><div class='respPicDiv'><img src='img/responseButtonOffersNo0_wht.png' class='respPic'></div></div>","null","1","Anthony","0","Shared","0.35,0.8","12","0.35","trustrating_stim/white_00340_940422_fa_edt.bmp","1","16","2"
"html-keyboard-response","143","417336","0.0-19.0-1.2","60234c1d5a0cf81cba76ce5d","bdp_trlrn","Fri Mar 10 2023 14:27:42 GMT-0500 (Eastern Standard Time)","800233","Untrustworthy,Trustworthy","","2633","","","","decision","","<div class='trialDiv'><img src='trustrating_stim/white_mw066.bmp'><br><font class='baseline'><strong>Jason</strong><p>Choose number of points to send.</font><div class='respPicDiv'><img src='img/responseButtonOffersNo0L.png' class='respPic'></div></div>","3","1","Jason","9","Kept","0.65,0.35","10","0.65","trustrating_stim/white_mw066.bmp","9","21","3"
"html-keyboard-response","144","417591","0.0-19.0-2.2","60234c1d5a0cf81cba76ce5d","bdp_trlrn","Fri Mar 10 2023 14:27:42 GMT-0500 (Eastern Standard Time)","800233","Untrustworthy,Trustworthy","","null","","","","decisionFB","","<div class='trialDiv'><img src='trustrating_stim/white_mw066.bmp'><br><font class='baseline'><strong>Jason</strong><p>Choose number of points to send.</font><div class='respPicDiv'><img src='img/responseButtonOffersNo0L3.png' class='respPic'></div></div>","null","1","Jason","9","Kept","0.65,0.35","10","0.65","trustrating_stim/white_mw066.bmp","9","18","3"
"html-keyboard-response","145","418594","0.0-19.0-3.2","60234c1d5a0cf81cba76ce5d","bdp_trlrn","Fri Mar 10 2023 14:27:42 GMT-0500 (Eastern Standard Time)","800233","Untrustworthy,Trustworthy","","null","","","","feedback","","<div class='trialDiv'><img src='trustrating_stim/white_mw066.bmp'><br><font class='baseline'><strong>Jason</strong><p>Received: <strong>12</strong></font> &nbsp; &nbsp; &nbsp; &nbsp; &nbsp; &nbsp;<font class='negOutcome'>Shared back: <strong>0</strong></font></font><div class='respPicDiv'><img src='img/responseButtonOffersNo0_wht.png' class='respPic'></div></div>","null","1","Jason","9","Kept","0.65,0.35","10","0.65","trustrating_stim/white_mw066.bmp","9","18","3"
"html-keyboard-response","146","421644","0.0-19.0-1.3","60234c1d5a0cf81cba76ce5d","bdp_trlrn","Fri Mar 10 2023 14:27:42 GMT-0500 (Eastern Standard Time)","800233","Untrustworthy,Trustworthy","","3040","","","","decision","","<div class='trialDiv'><img src='trustrating_stim/white_00577_940928_fa_edt.bmp'><br><font class='baseline'><strong>Ethan</strong><p>Choose number of points to send.</font><div class='respPicDiv'><img src='img/responseButtonOffersNo0L.png' class='respPic'></div></div>","5","2","Ethan","7","Kept","0.8,0.35","14","0.8","trustrating_stim/white_00577_940928_fa_edt.bmp","5","23","4"
"html-keyboard-response","147","421897","0.0-19.0-2.3","60234c1d5a0cf81cba76ce5d","bdp_trlrn","Fri Mar 10 2023 14:27:42 GMT-0500 (Eastern Standard Time)","800233","Untrustworthy,Trustworthy","","null","","","","decisionFB","","<div class='trialDiv'><img src='trustrating_stim/white_00577_940928_fa_edt.bmp'><br><font class='baseline'><strong>Ethan</strong><p>Choose number of points to send.</font><div class='respPicDiv'><img src='img/responseButtonOffersNo0L5.png' class='respPic'></div></div>","null","2","Ethan","7","Kept","0.8,0.35","14","0.8","trustrating_stim/white_00577_940928_fa_edt.bmp","5","18","4"
"html-keyboard-response","148","422901","0.0-19.0-3.3","60234c1d5a0cf81cba76ce5d","bdp_trlrn","Fri Mar 10 2023 14:27:42 GMT-0500 (Eastern Standard Time)","800233","Untrustworthy,Trustworthy","","null","","","","feedback","","<div class='trialDiv'><img src='trustrating_stim/white_00577_940928_fa_edt.bmp'><br><font class='baseline'><strong>Ethan</strong><p>Received: <strong>20</strong></font> &nbsp; &nbsp; &nbsp; &nbsp; &nbsp; &nbsp;<font class='negOutcome'>Shared back: <strong>0</strong></font></font><div class='respPicDiv'><img src='img/responseButtonOffersNo0_wht.png' class='respPic'></div></div>","null","2","Ethan","7","Kept","0.8,0.35","14","0.8","trustrating_stim/white_00577_940928_fa_edt.bmp","5","18","4"
"html-keyboard-response","149","424546","0.0-19.0-1.4","60234c1d5a0cf81cba76ce5d","bdp_trlrn","Fri Mar 10 2023 14:27:42 GMT-0500 (Eastern Standard Time)","800233","Untrustworthy,Trustworthy","","1641","","","","decision","","<div class='trialDiv'><img src='trustrating_stim/white_mw066.bmp'><br><font class='baseline'><strong>Jason</strong><p>Choose number of points to send.</font><div class='respPicDiv'><img src='img/responseButtonOffersNo0L.png' class='respPic'></div></div>","3","2","Jason","9","Shared","0.65,0.35","10","0.65","trustrating_stim/white_mw066.bmp","9","23","5"
"html-keyboard-response","150","424801","0.0-19.0-2.4","60234c1d5a0cf81cba76ce5d","bdp_trlrn","Fri Mar 10 2023 14:27:42 GMT-0500 (Eastern Standard Time)","800233","Untrustworthy,Trustworthy","","null","","","","decisionFB","","<div class='trialDiv'><img src='trustrating_stim/white_mw066.bmp'><br><font class='baseline'><strong>Jason</strong><p>Choose number of points to send.</font><div class='respPicDiv'><img src='img/responseButtonOffersNo0L3.png' class='respPic'></div></div>","null","2","Jason","9","Shared","0.65,0.35","10","0.65","trustrating_stim/white_mw066.bmp","9","20","5"
"html-keyboard-response","151","425809","0.0-19.0-3.4","60234c1d5a0cf81cba76ce5d","bdp_trlrn","Fri Mar 10 2023 14:27:42 GMT-0500 (Eastern Standard Time)","800233","Untrustworthy,Trustworthy","","null","","","","feedback","","<div class='trialDiv'><img src='trustrating_stim/white_mw066.bmp'><br><font class='baseline'><strong>Jason</strong><p>Received: <strong>12</strong></font> &nbsp; &nbsp; &nbsp; &nbsp; &nbsp; &nbsp;<font class='posOutcome'>Shared back: <strong>6</strong></font></font><div class='respPicDiv'><img src='img/responseButtonOffersNo0_wht.png' class='respPic'></div></div>","null","2","Jason","9","Shared","0.65,0.35","10","0.65","trustrating_stim/white_mw066.bmp","9","26","5"
"html-keyboard-response","152","426591","0.0-19.0-1.5","60234c1d5a0cf81cba76ce5d","bdp_trlrn","Fri Mar 10 2023 14:27:42 GMT-0500 (Eastern Standard Time)","800233","Untrustworthy,Trustworthy","","774","","","","decision","","<div class='trialDiv'><img src='trustrating_stim/white_00340_940422_fa_edt.bmp'><br><font class='baseline'><strong>Anthony</strong><p>Choose number of points to send.</font><div class='respPicDiv'><img src='img/responseButtonOffersNo0L.png' class='respPic'></div></div>","3","2","Anthony","0","Kept","0.35,0.8","12","0.35","trustrating_stim/white_00340_940422_fa_edt.bmp","1","31","6"
"html-keyboard-response","153","426848","0.0-19.0-2.5","60234c1d5a0cf81cba76ce5d","bdp_trlrn","Fri Mar 10 2023 14:27:42 GMT-0500 (Eastern Standard Time)","800233","Untrustworthy,Trustworthy","","null","","","","decisionFB","","<div class='trialDiv'><img src='trustrating_stim/white_00340_940422_fa_edt.bmp'><br><font class='baseline'><strong>Anthony</strong><p>Choose number of points to send.</font><div class='respPicDiv'><img src='img/responseButtonOffersNo0L3.png' class='respPic'></div></div>","null","2","Anthony","0","Kept","0.35,0.8","12","0.35","trustrating_stim/white_00340_940422_fa_edt.bmp","1","28","6"
"html-keyboard-response","154","427856","0.0-19.0-3.5","60234c1d5a0cf81cba76ce5d","bdp_trlrn","Fri Mar 10 2023 14:27:42 GMT-0500 (Eastern Standard Time)","800233","Untrustworthy,Trustworthy","","null","","","","feedback","","<div class='trialDiv'><img src='trustrating_stim/white_00340_940422_fa_edt.bmp'><br><font class='baseline'><strong>Anthony</strong><p>Received: <strong>12</strong></font> &nbsp; &nbsp; &nbsp; &nbsp; &nbsp; &nbsp;<font class='negOutcome'>Shared back: <strong>0</strong></font></font><div class='respPicDiv'><img src='img/responseButtonOffersNo0_wht.png' class='respPic'></div></div>","null","2","Anthony","0","Kept","0.35,0.8","12","0.35","trustrating_stim/white_00340_940422_fa_edt.bmp","1","28","6"
"html-keyboard-response","155","429516","0.0-19.0-1.6","60234c1d5a0cf81cba76ce5d","bdp_trlrn","Fri Mar 10 2023 14:27:42 GMT-0500 (Eastern Standard Time)","800233","Untrustworthy,Trustworthy","","1652","","","","decision","","<div class='trialDiv'><img src='trustrating_stim/white_mw066.bmp'><br><font class='baseline'><strong>Jason</strong><p>Choose number of points to send.</font><div class='respPicDiv'><img src='img/responseButtonOffersNo0L.png' class='respPic'></div></div>","3","3","Jason","9","Kept","0.65,0.35","10","0.65","trustrating_stim/white_mw066.bmp","9","33","7"
"html-keyboard-response","156","429770","0.0-19.0-2.6","60234c1d5a0cf81cba76ce5d","bdp_trlrn","Fri Mar 10 2023 14:27:42 GMT-0500 (Eastern Standard Time)","800233","Untrustworthy,Trustworthy","","null","","","","decisionFB","","<div class='trialDiv'><img src='trustrating_stim/white_mw066.bmp'><br><font class='baseline'><strong>Jason</strong><p>Choose number of points to send.</font><div class='respPicDiv'><img src='img/responseButtonOffersNo0L3.png' class='respPic'></div></div>","null","3","Jason","9","Kept","0.65,0.35","10","0.65","trustrating_stim/white_mw066.bmp","9","30","7"
"html-keyboard-response","157","430777","0.0-19.0-3.6","60234c1d5a0cf81cba76ce5d","bdp_trlrn","Fri Mar 10 2023 14:27:42 GMT-0500 (Eastern Standard Time)","800233","Untrustworthy,Trustworthy","","null","","","","feedback","","<div class='trialDiv'><img src='trustrating_stim/white_mw066.bmp'><br><font class='baseline'><strong>Jason</strong><p>Received: <strong>12</strong></font> &nbsp; &nbsp; &nbsp; &nbsp; &nbsp; &nbsp;<font class='negOutcome'>Shared back: <strong>0</strong></font></font><div class='respPicDiv'><img src='img/responseButtonOffersNo0_wht.png' class='respPic'></div></div>","null","3","Jason","9","Kept","0.65,0.35","10","0.65","trustrating_stim/white_mw066.bmp","9","30","7"
"html-keyboard-response","158","433872","0.0-19.0-1.7","60234c1d5a0cf81cba76ce5d","bdp_trlrn","Fri Mar 10 2023 14:27:42 GMT-0500 (Eastern Standard Time)","800233","Untrustworthy,Trustworthy","","3086","","","","decision","","<div class='trialDiv'><img src='trustrating_stim/white_00340_940422_fa_edt.bmp'><br><font class='baseline'><strong>Anthony</strong><p>Choose number of points to send.</font><div class='respPicDiv'><img src='img/responseButtonOffersNo0L.png' class='respPic'></div></div>","4","3","Anthony","0","Shared","0.35,0.8","12","0.35","trustrating_stim/white_00340_940422_fa_edt.bmp","1","35","8"
"html-keyboard-response","159","434126","0.0-19.0-2.7","60234c1d5a0cf81cba76ce5d","bdp_trlrn","Fri Mar 10 2023 14:27:42 GMT-0500 (Eastern Standard Time)","800233","Untrustworthy,Trustworthy","","null","","","","decisionFB","","<div class='trialDiv'><img src='trustrating_stim/white_00340_940422_fa_edt.bmp'><br><font class='baseline'><strong>Anthony</strong><p>Choose number of points to send.</font><div class='respPicDiv'><img src='img/responseButtonOffersNo0L4.png' class='respPic'></div></div>","null","3","Anthony","0","Shared","0.35,0.8","12","0.35","trustrating_stim/white_00340_940422_fa_edt.bmp","1","31","8"
"html-keyboard-response","160","435132","0.0-19.0-3.7","60234c1d5a0cf81cba76ce5d","bdp_trlrn","Fri Mar 10 2023 14:27:42 GMT-0500 (Eastern Standard Time)","800233","Untrustworthy,Trustworthy","","null","","","","feedback","","<div class='trialDiv'><img src='trustrating_stim/white_00340_940422_fa_edt.bmp'><br><font class='baseline'><strong>Anthony</strong><p>Received: <strong>16</strong></font> &nbsp; &nbsp; &nbsp; &nbsp; &nbsp; &nbsp;<font class='posOutcome'>Shared back: <strong>8</strong></font></font><div class='respPicDiv'><img src='img/responseButtonOffersNo0_wht.png' class='respPic'></div></div>","null","3","Anthony","0","Shared","0.35,0.8","12","0.35","trustrating_stim/white_00340_940422_fa_edt.bmp","1","39","8"
"html-keyboard-response","161","438026","0.0-19.0-1.8","60234c1d5a0cf81cba76ce5d","bdp_trlrn","Fri Mar 10 2023 14:27:42 GMT-0500 (Eastern Standard Time)","800233","Untrustworthy,Trustworthy","","2885","","","","decision","","<div class='trialDiv'><img src='trustrating_stim/white_00577_940928_fa_edt.bmp'><br><font class='baseline'><strong>Ethan</strong><p>Choose number of points to send.</font><div class='respPicDiv'><img src='img/responseButtonOffersNo0L.png' class='respPic'></div></div>","2","3","Ethan","7","Shared","0.8,0.35","14","0.8","trustrating_stim/white_00577_940928_fa_edt.bmp","5","44","9"
"html-keyboard-response","162","438281","0.0-19.0-2.8","60234c1d5a0cf81cba76ce5d","bdp_trlrn","Fri Mar 10 2023 14:27:42 GMT-0500 (Eastern Standard Time)","800233","Untrustworthy,Trustworthy","","null","","","","decisionFB","","<div class='trialDiv'><img src='trustrating_stim/white_00577_940928_fa_edt.bmp'><br><font class='baseline'><strong>Ethan</strong><p>Choose number of points to send.</font><div class='respPicDiv'><img src='img/responseButtonOffersNo0L2.png' class='respPic'></div></div>","null","3","Ethan","7","Shared","0.8,0.35","14","0.8","trustrating_stim/white_00577_940928_fa_edt.bmp","5","42","9"
"html-keyboard-response","163","439290","0.0-19.0-3.8","60234c1d5a0cf81cba76ce5d","bdp_trlrn","Fri Mar 10 2023 14:27:42 GMT-0500 (Eastern Standard Time)","800233","Untrustworthy,Trustworthy","","null","","","","feedback","","<div class='trialDiv'><img src='trustrating_stim/white_00577_940928_fa_edt.bmp'><br><font class='baseline'><strong>Ethan</strong><p>Received: <strong>8</strong></font> &nbsp; &nbsp; &nbsp; &nbsp; &nbsp; &nbsp;<font class='posOutcome'>Shared back: <strong>4</strong></font></font><div class='respPicDiv'><img src='img/responseButtonOffersNo0_wht.png' class='respPic'></div></div>","null","3","Ethan","7","Shared","0.8,0.35","14","0.8","trustrating_stim/white_00577_940928_fa_edt.bmp","5","46","9"
"html-keyboard-response","164","441310","0.0-19.0-1.9","60234c1d5a0cf81cba76ce5d","bdp_trlrn","Fri Mar 10 2023 14:27:42 GMT-0500 (Eastern Standard Time)","800233","Untrustworthy,Trustworthy","","2011","","","","decision","","<div class='trialDiv'><img src='trustrating_stim/white_00340_940422_fa_edt.bmp'><br><font class='baseline'><strong>Anthony</strong><p>Choose number of points to send.</font><div class='respPicDiv'><img src='img/responseButtonOffersNo0L.png' class='respPic'></div></div>","5","4","Anthony","0","Kept","0.35,0.8","12","0.35","trustrating_stim/white_00340_940422_fa_edt.bmp","1","51","10"
"html-keyboard-response","165","441566","0.0-19.0-2.9","60234c1d5a0cf81cba76ce5d","bdp_trlrn","Fri Mar 10 2023 14:27:42 GMT-0500 (Eastern Standard Time)","800233","Untrustworthy,Trustworthy","","null","","","","decisionFB","","<div class='trialDiv'><img src='trustrating_stim/white_00340_940422_fa_edt.bmp'><br><font class='baseline'><strong>Anthony</strong><p>Choose number of points to send.</font><div class='respPicDiv'><img src='img/responseButtonOffersNo0L5.png' class='respPic'></div></div>","null","4","Anthony","0","Kept","0.35,0.8","12","0.35","trustrating_stim/white_00340_940422_fa_edt.bmp","1","46","10"
"html-keyboard-response","166","442576","0.0-19.0-3.9","60234c1d5a0cf81cba76ce5d","bdp_trlrn","Fri Mar 10 2023 14:27:42 GMT-0500 (Eastern Standard Time)","800233","Untrustworthy,Trustworthy","","null","","","","feedback","","<div class='trialDiv'><img src='trustrating_stim/white_00340_940422_fa_edt.bmp'><br><font class='baseline'><strong>Anthony</strong><p>Received: <strong>20</strong></font> &nbsp; &nbsp; &nbsp; &nbsp; &nbsp; &nbsp;<font class='negOutcome'>Shared back: <strong>0</strong></font></font><div class='respPicDiv'><img src='img/responseButtonOffersNo0_wht.png' class='respPic'></div></div>","null","4","Anthony","0","Kept","0.35,0.8","12","0.35","trustrating_stim/white_00340_940422_fa_edt.bmp","1","46","10"
"html-keyboard-response","167","443804","0.0-19.0-1.10","60234c1d5a0cf81cba76ce5d","bdp_trlrn","Fri Mar 10 2023 14:27:42 GMT-0500 (Eastern Standard Time)","800233","Untrustworthy,Trustworthy","","1221","","","","decision","","<div class='trialDiv'><img src='trustrating_stim/white_mw066.bmp'><br><font class='baseline'><strong>Jason</strong><p>Choose number of points to send.</font><div class='respPicDiv'><img src='img/responseButtonOffersNo0L.png' class='respPic'></div></div>","1","4","Jason","9","Kept","0.65,0.35","10","0.65","trustrating_stim/white_mw066.bmp","9","51","11"
"html-keyboard-response","168","444058","0.0-19.0-2.10","60234c1d5a0cf81cba76ce5d","bdp_trlrn","Fri Mar 10 2023 14:27:42 GMT-0500 (Eastern Standard Time)","800233","Untrustworthy,Trustworthy","","null","","","","decisionFB","","<div class='trialDiv'><img src='trustrating_stim/white_mw066.bmp'><br><font class='baseline'><strong>Jason</strong><p>Choose number of points to send.</font><div class='respPicDiv'><img src='img/responseButtonOffersNo0L1.png' class='respPic'></div></div>","null","4","Jason","9","Kept","0.65,0.35","10","0.65","trustrating_stim/white_mw066.bmp","9","50","11"
"html-keyboard-response","169","445066","0.0-19.0-3.10","60234c1d5a0cf81cba76ce5d","bdp_trlrn","Fri Mar 10 2023 14:27:42 GMT-0500 (Eastern Standard Time)","800233","Untrustworthy,Trustworthy","","null","","","","feedback","","<div class='trialDiv'><img src='trustrating_stim/white_mw066.bmp'><br><font class='baseline'><strong>Jason</strong><p>Received: <strong>4</strong></font> &nbsp; &nbsp; &nbsp; &nbsp; &nbsp; &nbsp;<font class='negOutcome'>Shared back: <strong>0</strong></font></font><div class='respPicDiv'><img src='img/responseButtonOffersNo0_wht.png' class='respPic'></div></div>","null","4","Jason","9","Kept","0.65,0.35","10","0.65","trustrating_stim/white_mw066.bmp","9","50","11"
"html-keyboard-response","170","446495","0.0-19.0-1.11","60234c1d5a0cf81cba76ce5d","bdp_trlrn","Fri Mar 10 2023 14:27:42 GMT-0500 (Eastern Standard Time)","800233","Untrustworthy,Trustworthy","","1420","","","","decision","","<div class='trialDiv'><img src='trustrating_stim/white_00577_940928_fa_edt.bmp'><br><font class='baseline'><strong>Ethan</strong><p>Choose number of points to send.</font><div class='respPicDiv'><img src='img/responseButtonOffersNo0L.png' class='respPic'></div></div>","2","4","Ethan","7","Shared","0.8,0.35","14","0.8","trustrating_stim/white_00577_940928_fa_edt.bmp","5","55","12"
"html-keyboard-response","171","446749","0.0-19.0-2.11","60234c1d5a0cf81cba76ce5d","bdp_trlrn","Fri Mar 10 2023 14:27:42 GMT-0500 (Eastern Standard Time)","800233","Untrustworthy,Trustworthy","","null","","","","decisionFB","","<div class='trialDiv'><img src='trustrating_stim/white_00577_940928_fa_edt.bmp'><br><font class='baseline'><strong>Ethan</strong><p>Choose number of points to send.</font><div class='respPicDiv'><img src='img/responseButtonOffersNo0L2.png' class='respPic'></div></div>","null","4","Ethan","7","Shared","0.8,0.35","14","0.8","trustrating_stim/white_00577_940928_fa_edt.bmp","5","53","12"
"html-keyboard-response","172","447758","0.0-19.0-3.11","60234c1d5a0cf81cba76ce5d","bdp_trlrn","Fri Mar 10 2023 14:27:42 GMT-0500 (Eastern Standard Time)","800233","Untrustworthy,Trustworthy","","null","","","","feedback","","<div class='trialDiv'><img src='trustrating_stim/white_00577_940928_fa_edt.bmp'><br><font class='baseline'><strong>Ethan</strong><p>Received: <strong>8</strong></font> &nbsp; &nbsp; &nbsp; &nbsp; &nbsp; &nbsp;<font class='posOutcome'>Shared back: <strong>4</strong></font></font><div class='respPicDiv'><img src='img/responseButtonOffersNo0_wht.png' class='respPic'></div></div>","null","4","Ethan","7","Shared","0.8,0.35","14","0.8","trustrating_stim/white_00577_940928_fa_edt.bmp","5","57","12"
"html-keyboard-response","173","448567","0.0-19.0-1.12","60234c1d5a0cf81cba76ce5d","bdp_trlrn","Fri Mar 10 2023 14:27:42 GMT-0500 (Eastern Standard Time)","800233","Untrustworthy,Trustworthy","","801","","","","decision","","<div class='trialDiv'><img src='trustrating_stim/white_00340_940422_fa_edt.bmp'><br><font class='baseline'><strong>Anthony</strong><p>Choose number of points to send.</font><div class='respPicDiv'><img src='img/responseButtonOffersNo0L.png' class='respPic'></div></div>","2","5","Anthony","0","Kept","0.35,0.8","12","0.35","trustrating_stim/white_00340_940422_fa_edt.bmp","1","62","13"
"html-keyboard-response","174","448821","0.0-19.0-2.12","60234c1d5a0cf81cba76ce5d","bdp_trlrn","Fri Mar 10 2023 14:27:42 GMT-0500 (Eastern Standard Time)","800233","Untrustworthy,Trustworthy","","null","","","","decisionFB","","<div class='trialDiv'><img src='trustrating_stim/white_00340_940422_fa_edt.bmp'><br><font class='baseline'><strong>Anthony</strong><p>Choose number of points to send.</font><div class='respPicDiv'><img src='img/responseButtonOffersNo0L2.png' class='respPic'></div></div>","null","5","Anthony","0","Kept","0.35,0.8","12","0.35","trustrating_stim/white_00340_940422_fa_edt.bmp","1","60","13"
"html-keyboard-response","175","449831","0.0-19.0-3.12","60234c1d5a0cf81cba76ce5d","bdp_trlrn","Fri Mar 10 2023 14:27:42 GMT-0500 (Eastern Standard Time)","800233","Untrustworthy,Trustworthy","","null","","","","feedback","","<div class='trialDiv'><img src='trustrating_stim/white_00340_940422_fa_edt.bmp'><br><font class='baseline'><strong>Anthony</strong><p>Received: <strong>8</strong></font> &nbsp; &nbsp; &nbsp; &nbsp; &nbsp; &nbsp;<font class='negOutcome'>Shared back: <strong>0</strong></font></font><div class='respPicDiv'><img src='img/responseButtonOffersNo0_wht.png' class='respPic'></div></div>","null","5","Anthony","0","Kept","0.35,0.8","12","0.35","trustrating_stim/white_00340_940422_fa_edt.bmp","1","60","13"
"html-keyboard-response","176","450824","0.0-19.0-1.13","60234c1d5a0cf81cba76ce5d","bdp_trlrn","Fri Mar 10 2023 14:27:42 GMT-0500 (Eastern Standard Time)","800233","Untrustworthy,Trustworthy","","980","","","","decision","","<div class='trialDiv'><img src='trustrating_stim/white_mw066.bmp'><br><font class='baseline'><strong>Jason</strong><p>Choose number of points to send.</font><div class='respPicDiv'><img src='img/responseButtonOffersNo0L.png' class='respPic'></div></div>","2","5","Jason","9","Shared","0.65,0.35","10","0.65","trustrating_stim/white_mw066.bmp","9","65","14"
"html-keyboard-response","177","451080","0.0-19.0-2.13","60234c1d5a0cf81cba76ce5d","bdp_trlrn","Fri Mar 10 2023 14:27:42 GMT-0500 (Eastern Standard Time)","800233","Untrustworthy,Trustworthy","","null","","","","decisionFB","","<div class='trialDiv'><img src='trustrating_stim/white_mw066.bmp'><br><font class='baseline'><strong>Jason</strong><p>Choose number of points to send.</font><div class='respPicDiv'><img src='img/responseButtonOffersNo0L2.png' class='respPic'></div></div>","null","5","Jason","9","Shared","0.65,0.35","10","0.65","trustrating_stim/white_mw066.bmp","9","63","14"
"html-keyboard-response","178","452085","0.0-19.0-3.13","60234c1d5a0cf81cba76ce5d","bdp_trlrn","Fri Mar 10 2023 14:27:42 GMT-0500 (Eastern Standard Time)","800233","Untrustworthy,Trustworthy","","null","","","","feedback","","<div class='trialDiv'><img src='trustrating_stim/white_mw066.bmp'><br><font class='baseline'><strong>Jason</strong><p>Received: <strong>8</strong></font> &nbsp; &nbsp; &nbsp; &nbsp; &nbsp; &nbsp;<font class='posOutcome'>Shared back: <strong>4</strong></font></font><div class='respPicDiv'><img src='img/responseButtonOffersNo0_wht.png' class='respPic'></div></div>","null","5","Jason","9","Shared","0.65,0.35","10","0.65","trustrating_stim/white_mw066.bmp","9","67","14"
"html-keyboard-response","179","453061","0.0-19.0-1.14","60234c1d5a0cf81cba76ce5d","bdp_trlrn","Fri Mar 10 2023 14:27:42 GMT-0500 (Eastern Standard Time)","800233","Untrustworthy,Trustworthy","","970","","","","decision","","<div class='trialDiv'><img src='trustrating_stim/white_00577_940928_fa_edt.bmp'><br><font class='baseline'><strong>Ethan</strong><p>Choose number of points to send.</font><div class='respPicDiv'><img src='img/responseButtonOffersNo0L.png' class='respPic'></div></div>","3","5","Ethan","7","Shared","0.8,0.35","14","0.8","trustrating_stim/white_00577_940928_fa_edt.bmp","5","72","15"
"html-keyboard-response","180","453317","0.0-19.0-2.14","60234c1d5a0cf81cba76ce5d","bdp_trlrn","Fri Mar 10 2023 14:27:42 GMT-0500 (Eastern Standard Time)","800233","Untrustworthy,Trustworthy","","null","","","","decisionFB","","<div class='trialDiv'><img src='trustrating_stim/white_00577_940928_fa_edt.bmp'><br><font class='baseline'><strong>Ethan</strong><p>Choose number of points to send.</font><div class='respPicDiv'><img src='img/responseButtonOffersNo0L3.png' class='respPic'></div></div>","null","5","Ethan","7","Shared","0.8,0.35","14","0.8","trustrating_stim/white_00577_940928_fa_edt.bmp","5","69","15"
"html-keyboard-response","181","454325","0.0-19.0-3.14","60234c1d5a0cf81cba76ce5d","bdp_trlrn","Fri Mar 10 2023 14:27:42 GMT-0500 (Eastern Standard Time)","800233","Untrustworthy,Trustworthy","","null","","","","feedback","","<div class='trialDiv'><img src='trustrating_stim/white_00577_940928_fa_edt.bmp'><br><font class='baseline'><strong>Ethan</strong><p>Received: <strong>12</strong></font> &nbsp; &nbsp; &nbsp; &nbsp; &nbsp; &nbsp;<font class='posOutcome'>Shared back: <strong>6</strong></font></font><div class='respPicDiv'><img src='img/responseButtonOffersNo0_wht.png' class='respPic'></div></div>","null","5","Ethan","7","Shared","0.8,0.35","14","0.8","trustrating_stim/white_00577_940928_fa_edt.bmp","5","75","15"
"html-keyboard-response","182","458993","0.0-19.0-1.15","60234c1d5a0cf81cba76ce5d","bdp_trlrn","Fri Mar 10 2023 14:27:42 GMT-0500 (Eastern Standard Time)","800233","Untrustworthy,Trustworthy","","4663","","","","decision","","<div class='trialDiv'><img src='trustrating_stim/white_mw066.bmp'><br><font class='baseline'><strong>Jason</strong><p>Choose number of points to send.</font><div class='respPicDiv'><img src='img/responseButtonOffersNo0L.png' class='respPic'></div></div>","1","6","Jason","9","Kept","0.65,0.35","10","0.65","trustrating_stim/white_mw066.bmp","9","80","16"
"html-keyboard-response","183","459249","0.0-19.0-2.15","60234c1d5a0cf81cba76ce5d","bdp_trlrn","Fri Mar 10 2023 14:27:42 GMT-0500 (Eastern Standard Time)","800233","Untrustworthy,Trustworthy","","null","","","","decisionFB","","<div class='trialDiv'><img src='trustrating_stim/white_mw066.bmp'><br><font class='baseline'><strong>Jason</strong><p>Choose number of points to send.</font><div class='respPicDiv'><img src='img/responseButtonOffersNo0L1.png' class='respPic'></div></div>","null","6","Jason","9","Kept","0.65,0.35","10","0.65","trustrating_stim/white_mw066.bmp","9","79","16"
"html-keyboard-response","184","460256","0.0-19.0-3.15","60234c1d5a0cf81cba76ce5d","bdp_trlrn","Fri Mar 10 2023 14:27:42 GMT-0500 (Eastern Standard Time)","800233","Untrustworthy,Trustworthy","","null","","","","feedback","","<div class='trialDiv'><img src='trustrating_stim/white_mw066.bmp'><br><font class='baseline'><strong>Jason</strong><p>Received: <strong>4</strong></font> &nbsp; &nbsp; &nbsp; &nbsp; &nbsp; &nbsp;<font class='negOutcome'>Shared back: <strong>0</strong></font></font><div class='respPicDiv'><img src='img/responseButtonOffersNo0_wht.png' class='respPic'></div></div>","null","6","Jason","9","Kept","0.65,0.35","10","0.65","trustrating_stim/white_mw066.bmp","9","79","16"
"html-keyboard-response","185","462148","0.0-19.0-1.16","60234c1d5a0cf81cba76ce5d","bdp_trlrn","Fri Mar 10 2023 14:27:42 GMT-0500 (Eastern Standard Time)","800233","Untrustworthy,Trustworthy","","1884","","","","decision","","<div class='trialDiv'><img src='trustrating_stim/white_00577_940928_fa_edt.bmp'><br><font class='baseline'><strong>Ethan</strong><p>Choose number of points to send.</font><div class='respPicDiv'><img src='img/responseButtonOffersNo0L.png' class='respPic'></div></div>","3","6","Ethan","7","Shared","0.8,0.35","14","0.8","trustrating_stim/white_00577_940928_fa_edt.bmp","5","84","17"
"html-keyboard-response","186","462402","0.0-19.0-2.16","60234c1d5a0cf81cba76ce5d","bdp_trlrn","Fri Mar 10 2023 14:27:42 GMT-0500 (Eastern Standard Time)","800233","Untrustworthy,Trustworthy","","null","","","","decisionFB","","<div class='trialDiv'><img src='trustrating_stim/white_00577_940928_fa_edt.bmp'><br><font class='baseline'><strong>Ethan</strong><p>Choose number of points to send.</font><div class='respPicDiv'><img src='img/responseButtonOffersNo0L3.png' class='respPic'></div></div>","null","6","Ethan","7","Shared","0.8,0.35","14","0.8","trustrating_stim/white_00577_940928_fa_edt.bmp","5","81","17"
"html-keyboard-response","187","463410","0.0-19.0-3.16","60234c1d5a0cf81cba76ce5d","bdp_trlrn","Fri Mar 10 2023 14:27:42 GMT-0500 (Eastern Standard Time)","800233","Untrustworthy,Trustworthy","","null","","","","feedback","","<div class='trialDiv'><img src='trustrating_stim/white_00577_940928_fa_edt.bmp'><br><font class='baseline'><strong>Ethan</strong><p>Received: <strong>12</strong></font> &nbsp; &nbsp; &nbsp; &nbsp; &nbsp; &nbsp;<font class='posOutcome'>Shared back: <strong>6</strong></font></font><div class='respPicDiv'><img src='img/responseButtonOffersNo0_wht.png' class='respPic'></div></div>","null","6","Ethan","7","Shared","0.8,0.35","14","0.8","trustrating_stim/white_00577_940928_fa_edt.bmp","5","87","17"
"html-keyboard-response","188","465090","0.0-19.0-1.17","60234c1d5a0cf81cba76ce5d","bdp_trlrn","Fri Mar 10 2023 14:27:42 GMT-0500 (Eastern Standard Time)","800233","Untrustworthy,Trustworthy","","1673","","","","decision","","<div class='trialDiv'><img src='trustrating_stim/white_00340_940422_fa_edt.bmp'><br><font class='baseline'><strong>Anthony</strong><p>Choose number of points to send.</font><div class='respPicDiv'><img src='img/responseButtonOffersNo0L.png' class='respPic'></div></div>","3","6","Anthony","0","Kept","0.35,0.8","12","0.35","trustrating_stim/white_00340_940422_fa_edt.bmp","1","92","18"
"html-keyboard-response","189","465346","0.0-19.0-2.17","60234c1d5a0cf81cba76ce5d","bdp_trlrn","Fri Mar 10 2023 14:27:42 GMT-0500 (Eastern Standard Time)","800233","Untrustworthy,Trustworthy","","null","","","","decisionFB","","<div class='trialDiv'><img src='trustrating_stim/white_00340_940422_fa_edt.bmp'><br><font class='baseline'><strong>Anthony</strong><p>Choose number of points to send.</font><div class='respPicDiv'><img src='img/responseButtonOffersNo0L3.png' class='respPic'></div></div>","null","6","Anthony","0","Kept","0.35,0.8","12","0.35","trustrating_stim/white_00340_940422_fa_edt.bmp","1","89","18"
"html-keyboard-response","190","466356","0.0-19.0-3.17","60234c1d5a0cf81cba76ce5d","bdp_trlrn","Fri Mar 10 2023 14:27:42 GMT-0500 (Eastern Standard Time)","800233","Untrustworthy,Trustworthy","","null","","","","feedback","","<div class='trialDiv'><img src='trustrating_stim/white_00340_940422_fa_edt.bmp'><br><font class='baseline'><strong>Anthony</strong><p>Received: <strong>12</strong></font> &nbsp; &nbsp; &nbsp; &nbsp; &nbsp; &nbsp;<font class='negOutcome'>Shared back: <strong>0</strong></font></font><div class='respPicDiv'><img src='img/responseButtonOffersNo0_wht.png' class='respPic'></div></div>","null","6","Anthony","0","Kept","0.35,0.8","12","0.35","trustrating_stim/white_00340_940422_fa_edt.bmp","1","89","18"
"html-keyboard-response","191","468358","0.0-19.0-1.18","60234c1d5a0cf81cba76ce5d","bdp_trlrn","Fri Mar 10 2023 14:27:42 GMT-0500 (Eastern Standard Time)","800233","Untrustworthy,Trustworthy","","1994","","","","decision","","<div class='trialDiv'><img src='trustrating_stim/white_mw066.bmp'><br><font class='baseline'><strong>Jason</strong><p>Choose number of points to send.</font><div class='respPicDiv'><img src='img/responseButtonOffersNo0L.png' class='respPic'></div></div>","4","7","Jason","9","Shared","0.65,0.35","10","0.65","trustrating_stim/white_mw066.bmp","9","94","19"
"html-keyboard-response","192","468615","0.0-19.0-2.18","60234c1d5a0cf81cba76ce5d","bdp_trlrn","Fri Mar 10 2023 14:27:42 GMT-0500 (Eastern Standard Time)","800233","Untrustworthy,Trustworthy","","null","","","","decisionFB","","<div class='trialDiv'><img src='trustrating_stim/white_mw066.bmp'><br><font class='baseline'><strong>Jason</strong><p>Choose number of points to send.</font><div class='respPicDiv'><img src='img/responseButtonOffersNo0L4.png' class='respPic'></div></div>","null","7","Jason","9","Shared","0.65,0.35","10","0.65","trustrating_stim/white_mw066.bmp","9","90","19"
"html-keyboard-response","193","469623","0.0-19.0-3.18","60234c1d5a0cf81cba76ce5d","bdp_trlrn","Fri Mar 10 2023 14:27:42 GMT-0500 (Eastern Standard Time)","800233","Untrustworthy,Trustworthy","","null","","","","feedback","","<div class='trialDiv'><img src='trustrating_stim/white_mw066.bmp'><br><font class='baseline'><strong>Jason</strong><p>Received: <strong>16</strong></font> &nbsp; &nbsp; &nbsp; &nbsp; &nbsp; &nbsp;<font class='posOutcome'>Shared back: <strong>8</strong></font></font><div class='respPicDiv'><img src='img/responseButtonOffersNo0_wht.png' class='respPic'></div></div>","null","7","Jason","9","Shared","0.65,0.35","10","0.65","trustrating_stim/white_mw066.bmp","9","98","19"
"html-keyboard-response","194","474256","0.0-19.0-1.19","60234c1d5a0cf81cba76ce5d","bdp_trlrn","Fri Mar 10 2023 14:27:42 GMT-0500 (Eastern Standard Time)","800233","Untrustworthy,Trustworthy","","4623","","","","decision","","<div class='trialDiv'><img src='trustrating_stim/white_00340_940422_fa_edt.bmp'><br><font class='baseline'><strong>Anthony</strong><p>Choose number of points to send.</font><div class='respPicDiv'><img src='img/responseButtonOffersNo0L.png' class='respPic'></div></div>","3","7","Anthony","0","Kept","0.35,0.8","12","0.35","trustrating_stim/white_00340_940422_fa_edt.bmp","1","103","20"
"html-keyboard-response","195","474515","0.0-19.0-2.19","60234c1d5a0cf81cba76ce5d","bdp_trlrn","Fri Mar 10 2023 14:27:42 GMT-0500 (Eastern Standard Time)","800233","Untrustworthy,Trustworthy","","null","","","","decisionFB","","<div class='trialDiv'><img src='trustrating_stim/white_00340_940422_fa_edt.bmp'><br><font class='baseline'><strong>Anthony</strong><p>Choose number of points to send.</font><div class='respPicDiv'><img src='img/responseButtonOffersNo0L3.png' class='respPic'></div></div>","null","7","Anthony","0","Kept","0.35,0.8","12","0.35","trustrating_stim/white_00340_940422_fa_edt.bmp","1","100","20"
"html-keyboard-response","196","475522","0.0-19.0-3.19","60234c1d5a0cf81cba76ce5d","bdp_trlrn","Fri Mar 10 2023 14:27:42 GMT-0500 (Eastern Standard Time)","800233","Untrustworthy,Trustworthy","","null","","","","feedback","","<div class='trialDiv'><img src='trustrating_stim/white_00340_940422_fa_edt.bmp'><br><font class='baseline'><strong>Anthony</strong><p>Received: <strong>12</strong></font> &nbsp; &nbsp; &nbsp; &nbsp; &nbsp; &nbsp;<font class='negOutcome'>Shared back: <strong>0</strong></font></font><div class='respPicDiv'><img src='img/responseButtonOffersNo0_wht.png' class='respPic'></div></div>","null","7","Anthony","0","Kept","0.35,0.8","12","0.35","trustrating_stim/white_00340_940422_fa_edt.bmp","1","100","20"
"html-keyboard-response","197","476273","0.0-19.0-1.20","60234c1d5a0cf81cba76ce5d","bdp_trlrn","Fri Mar 10 2023 14:27:42 GMT-0500 (Eastern Standard Time)","800233","Untrustworthy,Trustworthy","","738","","","","decision","","<div class='trialDiv'><img src='trustrating_stim/white_00577_940928_fa_edt.bmp'><br><font class='baseline'><strong>Ethan</strong><p>Choose number of points to send.</font><div class='respPicDiv'><img src='img/responseButtonOffersNo0L.png' class='respPic'></div></div>","3","7","Ethan","7","Shared","0.8,0.35","14","0.8","trustrating_stim/white_00577_940928_fa_edt.bmp","5","105","21"
"html-keyboard-response","198","476528","0.0-19.0-2.20","60234c1d5a0cf81cba76ce5d","bdp_trlrn","Fri Mar 10 2023 14:27:42 GMT-0500 (Eastern Standard Time)","800233","Untrustworthy,Trustworthy","","null","","","","decisionFB","","<div class='trialDiv'><img src='trustrating_stim/white_00577_940928_fa_edt.bmp'><br><font class='baseline'><strong>Ethan</strong><p>Choose number of points to send.</font><div class='respPicDiv'><img src='img/responseButtonOffersNo0L3.png' class='respPic'></div></div>","null","7","Ethan","7","Shared","0.8,0.35","14","0.8","trustrating_stim/white_00577_940928_fa_edt.bmp","5","102","21"
"html-keyboard-response","199","477532","0.0-19.0-3.20","60234c1d5a0cf81cba76ce5d","bdp_trlrn","Fri Mar 10 2023 14:27:42 GMT-0500 (Eastern Standard Time)","800233","Untrustworthy,Trustworthy","","null","","","","feedback","","<div class='trialDiv'><img src='trustrating_stim/white_00577_940928_fa_edt.bmp'><br><font class='baseline'><strong>Ethan</strong><p>Received: <strong>12</strong></font> &nbsp; &nbsp; &nbsp; &nbsp; &nbsp; &nbsp;<font class='posOutcome'>Shared back: <strong>6</strong></font></font><div class='respPicDiv'><img src='img/responseButtonOffersNo0_wht.png' class='respPic'></div></div>","null","7","Ethan","7","Shared","0.8,0.35","14","0.8","trustrating_stim/white_00577_940928_fa_edt.bmp","5","108","21"
"html-keyboard-response","200","478908","0.0-19.0-1.21","60234c1d5a0cf81cba76ce5d","bdp_trlrn","Fri Mar 10 2023 14:27:42 GMT-0500 (Eastern Standard Time)","800233","Untrustworthy,Trustworthy","","1370","","","","decision","","<div class='trialDiv'><img src='trustrating_stim/white_mw066.bmp'><br><font class='baseline'><strong>Jason</strong><p>Choose number of points to send.</font><div class='respPicDiv'><img src='img/responseButtonOffersNo0L.png' class='respPic'></div></div>","4","8","Jason","9","Shared","0.65,0.35","10","0.65","trustrating_stim/white_mw066.bmp","9","113","22"
"html-keyboard-response","201","479165","0.0-19.0-2.21","60234c1d5a0cf81cba76ce5d","bdp_trlrn","Fri Mar 10 2023 14:27:42 GMT-0500 (Eastern Standard Time)","800233","Untrustworthy,Trustworthy","","null","","","","decisionFB","","<div class='trialDiv'><img src='trustrating_stim/white_mw066.bmp'><br><font class='baseline'><strong>Jason</strong><p>Choose number of points to send.</font><div class='respPicDiv'><img src='img/responseButtonOffersNo0L4.png' class='respPic'></div></div>","null","8","Jason","9","Shared","0.65,0.35","10","0.65","trustrating_stim/white_mw066.bmp","9","109","22"
"html-keyboard-response","202","480171","0.0-19.0-3.21","60234c1d5a0cf81cba76ce5d","bdp_trlrn","Fri Mar 10 2023 14:27:42 GMT-0500 (Eastern Standard Time)","800233","Untrustworthy,Trustworthy","","null","","","","feedback","","<div class='trialDiv'><img src='trustrating_stim/white_mw066.bmp'><br><font class='baseline'><strong>Jason</strong><p>Received: <strong>16</strong></font> &nbsp; &nbsp; &nbsp; &nbsp; &nbsp; &nbsp;<font class='posOutcome'>Shared back: <strong>8</strong></font></font><div class='respPicDiv'><img src='img/responseButtonOffersNo0_wht.png' class='respPic'></div></div>","null","8","Jason","9","Shared","0.65,0.35","10","0.65","trustrating_stim/white_mw066.bmp","9","117","22"
"html-keyboard-response","203","482299","0.0-19.0-1.22","60234c1d5a0cf81cba76ce5d","bdp_trlrn","Fri Mar 10 2023 14:27:42 GMT-0500 (Eastern Standard Time)","800233","Untrustworthy,Trustworthy","","2121","","","","decision","","<div class='trialDiv'><img src='trustrating_stim/white_00577_940928_fa_edt.bmp'><br><font class='baseline'><strong>Ethan</strong><p>Choose number of points to send.</font><div class='respPicDiv'><img src='img/responseButtonOffersNo0L.png' class='respPic'></div></div>","3","8","Ethan","7","Kept","0.8,0.35","14","0.8","trustrating_stim/white_00577_940928_fa_edt.bmp","5","122","23"
"html-keyboard-response","204","482557","0.0-19.0-2.22","60234c1d5a0cf81cba76ce5d","bdp_trlrn","Fri Mar 10 2023 14:27:42 GMT-0500 (Eastern Standard Time)","800233","Untrustworthy,Trustworthy","","null","","","","decisionFB","","<div class='trialDiv'><img src='trustrating_stim/white_00577_940928_fa_edt.bmp'><br><font class='baseline'><strong>Ethan</strong><p>Choose number of points to send.</font><div class='respPicDiv'><img src='img/responseButtonOffersNo0L3.png' class='respPic'></div></div>","null","8","Ethan","7","Kept","0.8,0.35","14","0.8","trustrating_stim/white_00577_940928_fa_edt.bmp","5","119","23"
"html-keyboard-response","205","483564","0.0-19.0-3.22","60234c1d5a0cf81cba76ce5d","bdp_trlrn","Fri Mar 10 2023 14:27:42 GMT-0500 (Eastern Standard Time)","800233","Untrustworthy,Trustworthy","","null","","","","feedback","","<div class='trialDiv'><img src='trustrating_stim/white_00577_940928_fa_edt.bmp'><br><font class='baseline'><strong>Ethan</strong><p>Received: <strong>12</strong></font> &nbsp; &nbsp; &nbsp; &nbsp; &nbsp; &nbsp;<font class='negOutcome'>Shared back: <strong>0</strong></font></font><div class='respPicDiv'><img src='img/responseButtonOffersNo0_wht.png' class='respPic'></div></div>","null","8","Ethan","7","Kept","0.8,0.35","14","0.8","trustrating_stim/white_00577_940928_fa_edt.bmp","5","119","23"
"html-keyboard-response","206","484497","0.0-19.0-1.23","60234c1d5a0cf81cba76ce5d","bdp_trlrn","Fri Mar 10 2023 14:27:42 GMT-0500 (Eastern Standard Time)","800233","Untrustworthy,Trustworthy","","926","","","","decision","","<div class='trialDiv'><img src='trustrating_stim/white_00340_940422_fa_edt.bmp'><br><font class='baseline'><strong>Anthony</strong><p>Choose number of points to send.</font><div class='respPicDiv'><img src='img/responseButtonOffersNo0L.png' class='respPic'></div></div>","3","8","Anthony","0","Shared","0.35,0.8","12","0.35","trustrating_stim/white_00340_940422_fa_edt.bmp","1","124","24"
"html-keyboard-response","207","484755","0.0-19.0-2.23","60234c1d5a0cf81cba76ce5d","bdp_trlrn","Fri Mar 10 2023 14:27:42 GMT-0500 (Eastern Standard Time)","800233","Untrustworthy,Trustworthy","","null","","","","decisionFB","","<div class='trialDiv'><img src='trustrating_stim/white_00340_940422_fa_edt.bmp'><br><font class='baseline'><strong>Anthony</strong><p>Choose number of points to send.</font><div class='respPicDiv'><img src='img/responseButtonOffersNo0L3.png' class='respPic'></div></div>","null","8","Anthony","0","Shared","0.35,0.8","12","0.35","trustrating_stim/white_00340_940422_fa_edt.bmp","1","121","24"
"html-keyboard-response","208","485760","0.0-19.0-3.23","60234c1d5a0cf81cba76ce5d","bdp_trlrn","Fri Mar 10 2023 14:27:42 GMT-0500 (Eastern Standard Time)","800233","Untrustworthy,Trustworthy","","null","","","","feedback","","<div class='trialDiv'><img src='trustrating_stim/white_00340_940422_fa_edt.bmp'><br><font class='baseline'><strong>Anthony</strong><p>Received: <strong>12</strong></font> &nbsp; &nbsp; &nbsp; &nbsp; &nbsp; &nbsp;<font class='posOutcome'>Shared back: <strong>6</strong></font></font><div class='respPicDiv'><img src='img/responseButtonOffersNo0_wht.png' class='respPic'></div></div>","null","8","Anthony","0","Shared","0.35,0.8","12","0.35","trustrating_stim/white_00340_940422_fa_edt.bmp","1","127","24"
"html-keyboard-response","209","486935","0.0-19.0-1.24","60234c1d5a0cf81cba76ce5d","bdp_trlrn","Fri Mar 10 2023 14:27:42 GMT-0500 (Eastern Standard Time)","800233","Untrustworthy,Trustworthy","","1165","","","","decision","","<div class='trialDiv'><img src='trustrating_stim/white_00577_940928_fa_edt.bmp'><br><font class='baseline'><strong>Ethan</strong><p>Choose number of points to send.</font><div class='respPicDiv'><img src='img/responseButtonOffersNo0L.png' class='respPic'></div></div>","2","9","Ethan","7","Shared","0.8,0.35","14","0.8","trustrating_stim/white_00577_940928_fa_edt.bmp","5","132","25"
"html-keyboard-response","210","487192","0.0-19.0-2.24","60234c1d5a0cf81cba76ce5d","bdp_trlrn","Fri Mar 10 2023 14:27:42 GMT-0500 (Eastern Standard Time)","800233","Untrustworthy,Trustworthy","","null","","","","decisionFB","","<div class='trialDiv'><img src='trustrating_stim/white_00577_940928_fa_edt.bmp'><br><font class='baseline'><strong>Ethan</strong><p>Choose number of points to send.</font><div class='respPicDiv'><img src='img/responseButtonOffersNo0L2.png' class='respPic'></div></div>","null","9","Ethan","7","Shared","0.8,0.35","14","0.8","trustrating_stim/white_00577_940928_fa_edt.bmp","5","130","25"
"html-keyboard-response","211","488202","0.0-19.0-3.24","60234c1d5a0cf81cba76ce5d","bdp_trlrn","Fri Mar 10 2023 14:27:42 GMT-0500 (Eastern Standard Time)","800233","Untrustworthy,Trustworthy","","null","","","","feedback","","<div class='trialDiv'><img src='trustrating_stim/white_00577_940928_fa_edt.bmp'><br><font class='baseline'><strong>Ethan</strong><p>Received: <strong>8</strong></font> &nbsp; &nbsp; &nbsp; &nbsp; &nbsp; &nbsp;<font class='posOutcome'>Shared back: <strong>4</strong></font></font><div class='respPicDiv'><img src='img/responseButtonOffersNo0_wht.png' class='respPic'></div></div>","null","9","Ethan","7","Shared","0.8,0.35","14","0.8","trustrating_stim/white_00577_940928_fa_edt.bmp","5","134","25"
"html-keyboard-response","212","489589","0.0-19.0-1.25","60234c1d5a0cf81cba76ce5d","bdp_trlrn","Fri Mar 10 2023 14:27:42 GMT-0500 (Eastern Standard Time)","800233","Untrustworthy,Trustworthy","","1378","","","","decision","","<div class='trialDiv'><img src='trustrating_stim/white_00340_940422_fa_edt.bmp'><br><font class='baseline'><strong>Anthony</strong><p>Choose number of points to send.</font><div class='respPicDiv'><img src='img/responseButtonOffersNo0L.png' class='respPic'></div></div>","3","9","Anthony","0","Shared","0.35,0.8","12","0.35","trustrating_stim/white_00340_940422_fa_edt.bmp","1","139","26"
"html-keyboard-response","213","489845","0.0-19.0-2.25","60234c1d5a0cf81cba76ce5d","bdp_trlrn","Fri Mar 10 2023 14:27:42 GMT-0500 (Eastern Standard Time)","800233","Untrustworthy,Trustworthy","","null","","","","decisionFB","","<div class='trialDiv'><img src='trustrating_stim/white_00340_940422_fa_edt.bmp'><br><font class='baseline'><strong>Anthony</strong><p>Choose number of points to send.</font><div class='respPicDiv'><img src='img/responseButtonOffersNo0L3.png' class='respPic'></div></div>","null","9","Anthony","0","Shared","0.35,0.8","12","0.35","trustrating_stim/white_00340_940422_fa_edt.bmp","1","136","26"
"html-keyboard-response","214","490854","0.0-19.0-3.25","60234c1d5a0cf81cba76ce5d","bdp_trlrn","Fri Mar 10 2023 14:27:42 GMT-0500 (Eastern Standard Time)","800233","Untrustworthy,Trustworthy","","null","","","","feedback","","<div class='trialDiv'><img src='trustrating_stim/white_00340_940422_fa_edt.bmp'><br><font class='baseline'><strong>Anthony</strong><p>Received: <strong>12</strong></font> &nbsp; &nbsp; &nbsp; &nbsp; &nbsp; &nbsp;<font class='posOutcome'>Shared back: <strong>6</strong></font></font><div class='respPicDiv'><img src='img/responseButtonOffersNo0_wht.png' class='respPic'></div></div>","null","9","Anthony","0","Shared","0.35,0.8","12","0.35","trustrating_stim/white_00340_940422_fa_edt.bmp","1","142","26"
"html-keyboard-response","215","491839","0.0-19.0-1.26","60234c1d5a0cf81cba76ce5d","bdp_trlrn","Fri Mar 10 2023 14:27:42 GMT-0500 (Eastern Standard Time)","800233","Untrustworthy,Trustworthy","","977","","","","decision","","<div class='trialDiv'><img src='trustrating_stim/white_mw066.bmp'><br><font class='baseline'><strong>Jason</strong><p>Choose number of points to send.</font><div class='respPicDiv'><img src='img/responseButtonOffersNo0L.png' class='respPic'></div></div>","4","9","Jason","9","Shared","0.65,0.35","10","0.65","trustrating_stim/white_mw066.bmp","9","147","27"
"html-keyboard-response","216","492094","0.0-19.0-2.26","60234c1d5a0cf81cba76ce5d","bdp_trlrn","Fri Mar 10 2023 14:27:42 GMT-0500 (Eastern Standard Time)","800233","Untrustworthy,Trustworthy","","null","","","","decisionFB","","<div class='trialDiv'><img src='trustrating_stim/white_mw066.bmp'><br><font class='baseline'><strong>Jason</strong><p>Choose number of points to send.</font><div class='respPicDiv'><img src='img/responseButtonOffersNo0L4.png' class='respPic'></div></div>","null","9","Jason","9","Shared","0.65,0.35","10","0.65","trustrating_stim/white_mw066.bmp","9","143","27"
"html-keyboard-response","217","493099","0.0-19.0-3.26","60234c1d5a0cf81cba76ce5d","bdp_trlrn","Fri Mar 10 2023 14:27:42 GMT-0500 (Eastern Standard Time)","800233","Untrustworthy,Trustworthy","","null","","","","feedback","","<div class='trialDiv'><img src='trustrating_stim/white_mw066.bmp'><br><font class='baseline'><strong>Jason</strong><p>Received: <strong>16</strong></font> &nbsp; &nbsp; &nbsp; &nbsp; &nbsp; &nbsp;<font class='posOutcome'>Shared back: <strong>8</strong></font></font><div class='respPicDiv'><img src='img/responseButtonOffersNo0_wht.png' class='respPic'></div></div>","null","9","Jason","9","Shared","0.65,0.35","10","0.65","trustrating_stim/white_mw066.bmp","9","151","27"
"html-keyboard-response","218","496337","0.0-19.0-1.27","60234c1d5a0cf81cba76ce5d","bdp_trlrn","Fri Mar 10 2023 14:27:42 GMT-0500 (Eastern Standard Time)","800233","Untrustworthy,Trustworthy","","3232","","","","decision","","<div class='trialDiv'><img src='trustrating_stim/white_00340_940422_fa_edt.bmp'><br><font class='baseline'><strong>Anthony</strong><p>Choose number of points to send.</font><div class='respPicDiv'><img src='img/responseButtonOffersNo0L.png' class='respPic'></div></div>","3","10","Anthony","0","Kept","0.35,0.8","12","0.35","trustrating_stim/white_00340_940422_fa_edt.bmp","1","156","28"
"html-keyboard-response","219","496594","0.0-19.0-2.27","60234c1d5a0cf81cba76ce5d","bdp_trlrn","Fri Mar 10 2023 14:27:42 GMT-0500 (Eastern Standard Time)","800233","Untrustworthy,Trustworthy","","null","","","","decisionFB","","<div class='trialDiv'><img src='trustrating_stim/white_00340_940422_fa_edt.bmp'><br><font class='baseline'><strong>Anthony</strong><p>Choose number of points to send.</font><div class='respPicDiv'><img src='img/responseButtonOffersNo0L3.png' class='respPic'></div></div>","null","10","Anthony","0","Kept","0.35,0.8","12","0.35","trustrating_stim/white_00340_940422_fa_edt.bmp","1","153","28"
