"trial_type","trial_index","time_elapsed","internal_node_id","subject_id","task","startTime","totalTime","labels","view_history","rt","event","trial","time","trialtype","success","stimulus","key_press","aground","name","faceID","outcome","agenttype","agentswpt","agentcurrpshare","face","avgRating","point_total","round"
"pavlovia","0","10","0.0-0.0","641359eb0e2dc93999637e35","bdp_trlrn","Sat Apr 08 2023 09:43:46 GMT-0700 (Pacific Daylight Time)","912944","Untrustworthy,Trustworthy","","","","","","","","","","","","","","","","","","","",""
"instructions","1","4062","0.0-1.0","641359eb0e2dc93999637e35","bdp_trlrn","Sat Apr 08 2023 09:43:46 GMT-0700 (Pacific Daylight Time)","912944","Untrustworthy,Trustworthy","[{""page_index"":0,""viewing_time"":4050}]","4051","","","","","","","","","","","","","","","","","",""
"","","","","641359eb0e2dc93999637e35","bdp_trlrn","Sat Apr 08 2023 09:43:46 GMT-0700 (Pacific Daylight Time)","912944","Untrustworthy,Trustworthy","","","fullscreenenter","2","11689","fullscreenenter","","","","","","","","","","","","","",""
"fullscreen","2","12657","0.0-2.0","641359eb0e2dc93999637e35","bdp_trlrn","Sat Apr 08 2023 09:43:46 GMT-0700 (Pacific Daylight Time)","912944","Untrustworthy,Trustworthy","","","","","","","true","","","","","","","","","","","","",""
"instructions","3","37897","0.0-4.0","641359eb0e2dc93999637e35","bdp_trlrn","Sat Apr 08 2023 09:43:46 GMT-0700 (Pacific Daylight Time)","912944","Untrustworthy,Trustworthy","[{""page_index"":0,""viewing_time"":22438},{""page_index"":1,""viewing_time"":2798}]","25236","","","","","","","","","","","","","","","","","",""
"instructions","4","39602","0.0-5.0","641359eb0e2dc93999637e35","bdp_trlrn","Sat Apr 08 2023 09:43:46 GMT-0700 (Pacific Daylight Time)","912944","Untrustworthy,Trustworthy","[{""page_index"":0,""viewing_time"":1704}]","1705","","","","","","","","","","","","","","","","","",""
"image-keyboard-response","5","44009","0.0-6.0-1.0","641359eb0e2dc93999637e35","bdp_trlrn","Sat Apr 08 2023 09:43:46 GMT-0700 (Pacific Daylight Time)","912944","Untrustworthy,Trustworthy","","4301","","","","rating","","trustrating_stim/white_mw048.bmp","3","","","","","","","","","","",""
"image-keyboard-response","6","44212","0.0-6.0-2.0","641359eb0e2dc93999637e35","bdp_trlrn","Sat Apr 08 2023 09:43:46 GMT-0700 (Pacific Daylight Time)","912944","Untrustworthy,Trustworthy","","null","","","","ratingFB","","trustrating_stim/white_mw048.bmp","null","","","","","","","","","","",""
"image-keyboard-response","7","46092","0.0-6.0-1.1","641359eb0e2dc93999637e35","bdp_trlrn","Sat Apr 08 2023 09:43:46 GMT-0700 (Pacific Daylight Time)","912944","Untrustworthy,Trustworthy","","1777","","","","rating","","trustrating_stim/white_00785_941205_fb_edt.bmp","2","","","","","","","","","","",""
"image-keyboard-response","8","46295","0.0-6.0-2.1","641359eb0e2dc93999637e35","bdp_trlrn","Sat Apr 08 2023 09:43:46 GMT-0700 (Pacific Daylight Time)","912944","Untrustworthy,Trustworthy","","null","","","","ratingFB","","trustrating_stim/white_00785_941205_fb_edt.bmp","null","","","","","","","","","","",""
"image-keyboard-response","9","48963","0.0-6.0-1.2","641359eb0e2dc93999637e35","bdp_trlrn","Sat Apr 08 2023 09:43:46 GMT-0700 (Pacific Daylight Time)","912944","Untrustworthy,Trustworthy","","2564","","","","rating","","trustrating_stim/white_mw099.bmp","5","","","","","","","","","","",""
"image-keyboard-response","10","49165","0.0-6.0-2.2","641359eb0e2dc93999637e35","bdp_trlrn","Sat Apr 08 2023 09:43:46 GMT-0700 (Pacific Daylight Time)","912944","Untrustworthy,Trustworthy","","null","","","","ratingFB","","trustrating_stim/white_mw099.bmp","null","","","","","","","","","","",""
"image-keyboard-response","11","53749","0.0-6.0-1.3","641359eb0e2dc93999637e35","bdp_trlrn","Sat Apr 08 2023 09:43:46 GMT-0700 (Pacific Daylight Time)","912944","Untrustworthy,Trustworthy","","4482","","","","rating","","trustrating_stim/white_mw046.bmp","7","","","","","","","","","","",""
"image-keyboard-response","12","53953","0.0-6.0-2.3","641359eb0e2dc93999637e35","bdp_trlrn","Sat Apr 08 2023 09:43:46 GMT-0700 (Pacific Daylight Time)","912944","Untrustworthy,Trustworthy","","null","","","","ratingFB","","trustrating_stim/white_mw046.bmp","null","","","","","","","","","","",""
"image-keyboard-response","13","56327","0.0-6.0-1.4","641359eb0e2dc93999637e35","bdp_trlrn","Sat Apr 08 2023 09:43:46 GMT-0700 (Pacific Daylight Time)","912944","Untrustworthy,Trustworthy","","2272","","","","rating","","trustrating_stim/white_00120_931230_fa_edt.bmp","6","","","","","","","","","","",""
"image-keyboard-response","14","56529","0.0-6.0-2.4","641359eb0e2dc93999637e35","bdp_trlrn","Sat Apr 08 2023 09:43:46 GMT-0700 (Pacific Daylight Time)","912944","Untrustworthy,Trustworthy","","null","","","","ratingFB","","trustrating_stim/white_00120_931230_fa_edt.bmp","null","","","","","","","","","","",""
"image-keyboard-response","15","60169","0.0-6.0-1.5","641359eb0e2dc93999637e35","bdp_trlrn","Sat Apr 08 2023 09:43:46 GMT-0700 (Pacific Daylight Time)","912944","Untrustworthy,Trustworthy","","3537","","","","rating","","trustrating_stim/white_00602_940928_fb_edt.bmp","7","","","","","","","","","","",""
"image-keyboard-response","16","60371","0.0-6.0-2.5","641359eb0e2dc93999637e35","bdp_trlrn","Sat Apr 08 2023 09:43:46 GMT-0700 (Pacific Daylight Time)","912944","Untrustworthy,Trustworthy","","null","","","","ratingFB","","trustrating_stim/white_00602_940928_fb_edt.bmp","null","","","","","","","","","","",""
"image-keyboard-response","17","63947","0.0-6.0-1.6","641359eb0e2dc93999637e35","bdp_trlrn","Sat Apr 08 2023 09:43:46 GMT-0700 (Pacific Daylight Time)","912944","Untrustworthy,Trustworthy","","3472","","","","rating","","trustrating_stim/white_00519_940519_fb_edt.bmp","4","","","","","","","","","","",""
"image-keyboard-response","18","64149","0.0-6.0-2.6","641359eb0e2dc93999637e35","bdp_trlrn","Sat Apr 08 2023 09:43:46 GMT-0700 (Pacific Daylight Time)","912944","Untrustworthy,Trustworthy","","null","","","","ratingFB","","trustrating_stim/white_00519_940519_fb_edt.bmp","null","","","","","","","","","","",""
"image-keyboard-response","19","66901","0.0-6.0-1.7","641359eb0e2dc93999637e35","bdp_trlrn","Sat Apr 08 2023 09:43:46 GMT-0700 (Pacific Daylight Time)","912944","Untrustworthy,Trustworthy","","2648","","","","rating","","trustrating_stim/white_00340_940422_fa_edt.bmp","1","","","","","","","","","","",""
"image-keyboard-response","20","67103","0.0-6.0-2.7","641359eb0e2dc93999637e35","bdp_trlrn","Sat Apr 08 2023 09:43:46 GMT-0700 (Pacific Daylight Time)","912944","Untrustworthy,Trustworthy","","null","","","","ratingFB","","trustrating_stim/white_00340_940422_fa_edt.bmp","null","","","","","","","","","","",""
"image-keyboard-response","21","69868","0.0-6.0-1.8","641359eb0e2dc93999637e35","bdp_trlrn","Sat Apr 08 2023 09:43:46 GMT-0700 (Pacific Daylight Time)","912944","Untrustworthy,Trustworthy","","2662","","","","rating","","trustrating_stim/white_mw060.bmp","4","","","","","","","","","","",""
"image-keyboard-response","22","70071","0.0-6.0-2.8","641359eb0e2dc93999637e35","bdp_trlrn","Sat Apr 08 2023 09:43:46 GMT-0700 (Pacific Daylight Time)","912944","Untrustworthy,Trustworthy","","null","","","","ratingFB","","trustrating_stim/white_mw060.bmp","null","","","","","","","","","","",""
"image-keyboard-response","23","73007","0.0-6.0-1.9","641359eb0e2dc93999637e35","bdp_trlrn","Sat Apr 08 2023 09:43:46 GMT-0700 (Pacific Daylight Time)","912944","Untrustworthy,Trustworthy","","2832","","","","rating","","trustrating_stim/white_00761_941201_fb_edt.bmp","7","","","","","","","","","","",""
"image-keyboard-response","24","73209","0.0-6.0-2.9","641359eb0e2dc93999637e35","bdp_trlrn","Sat Apr 08 2023 09:43:46 GMT-0700 (Pacific Daylight Time)","912944","Untrustworthy,Trustworthy","","null","","","","ratingFB","","trustrating_stim/white_00761_941201_fb_edt.bmp","null","","","","","","","","","","",""
"image-keyboard-response","25","76010","0.0-6.0-1.10","641359eb0e2dc93999637e35","bdp_trlrn","Sat Apr 08 2023 09:43:46 GMT-0700 (Pacific Daylight Time)","912944","Untrustworthy,Trustworthy","","2699","","","","rating","","trustrating_stim/white_mw097.bmp","5","","","","","","","","","","",""
"image-keyboard-response","26","76213","0.0-6.0-2.10","641359eb0e2dc93999637e35","bdp_trlrn","Sat Apr 08 2023 09:43:46 GMT-0700 (Pacific Daylight Time)","912944","Untrustworthy,Trustworthy","","null","","","","ratingFB","","trustrating_stim/white_mw097.bmp","null","","","","","","","","","","",""
"image-keyboard-response","27","78284","0.0-6.0-1.11","641359eb0e2dc93999637e35","bdp_trlrn","Sat Apr 08 2023 09:43:46 GMT-0700 (Pacific Daylight Time)","912944","Untrustworthy,Trustworthy","","1967","","","","rating","","trustrating_stim/white_mw089.bmp","2","","","","","","","","","","",""
"image-keyboard-response","28","78486","0.0-6.0-2.11","641359eb0e2dc93999637e35","bdp_trlrn","Sat Apr 08 2023 09:43:46 GMT-0700 (Pacific Daylight Time)","912944","Untrustworthy,Trustworthy","","null","","","","ratingFB","","trustrating_stim/white_mw089.bmp","null","","","","","","","","","","",""
"image-keyboard-response","29","81636","0.0-6.0-1.12","641359eb0e2dc93999637e35","bdp_trlrn","Sat Apr 08 2023 09:43:46 GMT-0700 (Pacific Daylight Time)","912944","Untrustworthy,Trustworthy","","3047","","","","rating","","trustrating_stim/white_00898_960530_fa_edt.bmp","6","","","","","","","","","","",""
"image-keyboard-response","30","81838","0.0-6.0-2.12","641359eb0e2dc93999637e35","bdp_trlrn","Sat Apr 08 2023 09:43:46 GMT-0700 (Pacific Daylight Time)","912944","Untrustworthy,Trustworthy","","null","","","","ratingFB","","trustrating_stim/white_00898_960530_fa_edt.bmp","null","","","","","","","","","","",""
"image-keyboard-response","31","84399","0.0-6.0-1.13","641359eb0e2dc93999637e35","bdp_trlrn","Sat Apr 08 2023 09:43:46 GMT-0700 (Pacific Daylight Time)","912944","Untrustworthy,Trustworthy","","2457","","","","rating","","trustrating_stim/white_00757_941201_fa_edt.bmp","4","","","","","","","","","","",""
"image-keyboard-response","32","84601","0.0-6.0-2.13","641359eb0e2dc93999637e35","bdp_trlrn","Sat Apr 08 2023 09:43:46 GMT-0700 (Pacific Daylight Time)","912944","Untrustworthy,Trustworthy","","null","","","","ratingFB","","trustrating_stim/white_00757_941201_fa_edt.bmp","null","","","","","","","","","","",""
"image-keyboard-response","33","88913","0.0-6.0-1.14","641359eb0e2dc93999637e35","bdp_trlrn","Sat Apr 08 2023 09:43:46 GMT-0700 (Pacific Daylight Time)","912944","Untrustworthy,Trustworthy","","4210","","","","rating","","trustrating_stim/white_mw071.bmp","4","","","","","","","","","","",""
"image-keyboard-response","34","89117","0.0-6.0-2.14","641359eb0e2dc93999637e35","bdp_trlrn","Sat Apr 08 2023 09:43:46 GMT-0700 (Pacific Daylight Time)","912944","Untrustworthy,Trustworthy","","null","","","","ratingFB","","trustrating_stim/white_mw071.bmp","null","","","","","","","","","","",""
"image-keyboard-response","35","91115","0.0-6.0-1.15","641359eb0e2dc93999637e35","bdp_trlrn","Sat Apr 08 2023 09:43:46 GMT-0700 (Pacific Daylight Time)","912944","Untrustworthy,Trustworthy","","1894","","","","rating","","trustrating_stim/white_00577_940928_fa_edt.bmp","2","","","","","","","","","","",""
"image-keyboard-response","36","91317","0.0-6.0-2.15","641359eb0e2dc93999637e35","bdp_trlrn","Sat Apr 08 2023 09:43:46 GMT-0700 (Pacific Daylight Time)","912944","Untrustworthy,Trustworthy","","null","","","","ratingFB","","trustrating_stim/white_00577_940928_fa_edt.bmp","null","","","","","","","","","","",""
"image-keyboard-response","37","96954","0.0-6.0-1.16","641359eb0e2dc93999637e35","bdp_trlrn","Sat Apr 08 2023 09:43:46 GMT-0700 (Pacific Daylight Time)","912944","Untrustworthy,Trustworthy","","5536","","","","rating","","trustrating_stim/white_mw033.bmp","7","","","","","","","","","","",""
"image-keyboard-response","38","97157","0.0-6.0-2.16","641359eb0e2dc93999637e35","bdp_trlrn","Sat Apr 08 2023 09:43:46 GMT-0700 (Pacific Daylight Time)","912944","Untrustworthy,Trustworthy","","null","","","","ratingFB","","trustrating_stim/white_mw033.bmp","null","","","","","","","","","","",""
"image-keyboard-response","39","99729","0.0-6.0-1.17","641359eb0e2dc93999637e35","bdp_trlrn","Sat Apr 08 2023 09:43:46 GMT-0700 (Pacific Daylight Time)","912944","Untrustworthy,Trustworthy","","2470","","","","rating","","trustrating_stim/white_00109_931230_fa_edt.bmp","8","","","","","","","","","","",""
"image-keyboard-response","40","99931","0.0-6.0-2.17","641359eb0e2dc93999637e35","bdp_trlrn","Sat Apr 08 2023 09:43:46 GMT-0700 (Pacific Daylight Time)","912944","Untrustworthy,Trustworthy","","null","","","","ratingFB","","trustrating_stim/white_00109_931230_fa_edt.bmp","null","","","","","","","","","","",""
"image-keyboard-response","41","102458","0.0-6.0-1.18","641359eb0e2dc93999637e35","bdp_trlrn","Sat Apr 08 2023 09:43:46 GMT-0700 (Pacific Daylight Time)","912944","Untrustworthy,Trustworthy","","2424","","","","rating","","trustrating_stim/white_00223_940128_fb_edt.bmp","3","","","","","","","","","","",""
"image-keyboard-response","42","102661","0.0-6.0-2.18","641359eb0e2dc93999637e35","bdp_trlrn","Sat Apr 08 2023 09:43:46 GMT-0700 (Pacific Daylight Time)","912944","Untrustworthy,Trustworthy","","null","","","","ratingFB","","trustrating_stim/white_00223_940128_fb_edt.bmp","null","","","","","","","","","","",""
"image-keyboard-response","43","104994","0.0-6.0-1.19","641359eb0e2dc93999637e35","bdp_trlrn","Sat Apr 08 2023 09:43:46 GMT-0700 (Pacific Daylight Time)","912944","Untrustworthy,Trustworthy","","2230","","","","rating","","trustrating_stim/white_00807_941205_fb_edt.bmp","5","","","","","","","","","","",""
"image-keyboard-response","44","105196","0.0-6.0-2.19","641359eb0e2dc93999637e35","bdp_trlrn","Sat Apr 08 2023 09:43:46 GMT-0700 (Pacific Daylight Time)","912944","Untrustworthy,Trustworthy","","null","","","","ratingFB","","trustrating_stim/white_00807_941205_fb_edt.bmp","null","","","","","","","","","","",""
"image-keyboard-response","45","109344","0.0-6.0-1.20","641359eb0e2dc93999637e35","bdp_trlrn","Sat Apr 08 2023 09:43:46 GMT-0700 (Pacific Daylight Time)","912944","Untrustworthy,Trustworthy","","4045","","","","rating","","trustrating_stim/white_mw056.bmp","3","","","","","","","","","","",""
"image-keyboard-response","46","109547","0.0-6.0-2.20","641359eb0e2dc93999637e35","bdp_trlrn","Sat Apr 08 2023 09:43:46 GMT-0700 (Pacific Daylight Time)","912944","Untrustworthy,Trustworthy","","null","","","","ratingFB","","trustrating_stim/white_mw056.bmp","null","","","","","","","","","","",""
"image-keyboard-response","47","111426","0.0-6.0-1.21","641359eb0e2dc93999637e35","bdp_trlrn","Sat Apr 08 2023 09:43:46 GMT-0700 (Pacific Daylight Time)","912944","Untrustworthy,Trustworthy","","1776","","","","rating","","trustrating_stim/white_mw084.bmp","7","","","","","","","","","","",""
"image-keyboard-response","48","111628","0.0-6.0-2.21","641359eb0e2dc93999637e35","bdp_trlrn","Sat Apr 08 2023 09:43:46 GMT-0700 (Pacific Daylight Time)","912944","Untrustworthy,Trustworthy","","null","","","","ratingFB","","trustrating_stim/white_mw084.bmp","null","","","","","","","","","","",""
"image-keyboard-response","49","113283","0.0-6.0-1.22","641359eb0e2dc93999637e35","bdp_trlrn","Sat Apr 08 2023 09:43:46 GMT-0700 (Pacific Daylight Time)","912944","Untrustworthy,Trustworthy","","1550","","","","rating","","trustrating_stim/white_00129_931230_fb_edt.bmp","8","","","","","","","","","","",""
"image-keyboard-response","50","113485","0.0-6.0-2.22","641359eb0e2dc93999637e35","bdp_trlrn","Sat Apr 08 2023 09:43:46 GMT-0700 (Pacific Daylight Time)","912944","Untrustworthy,Trustworthy","","null","","","","ratingFB","","trustrating_stim/white_00129_931230_fb_edt.bmp","null","","","","","","","","","","",""
"image-keyboard-response","51","118832","0.0-6.0-1.23","641359eb0e2dc93999637e35","bdp_trlrn","Sat Apr 08 2023 09:43:46 GMT-0700 (Pacific Daylight Time)","912944","Untrustworthy,Trustworthy","","5244","","","","rating","","trustrating_stim/white_mw063.bmp","7","","","","","","","","","","",""
"image-keyboard-response","52","119034","0.0-6.0-2.23","641359eb0e2dc93999637e35","bdp_trlrn","Sat Apr 08 2023 09:43:46 GMT-0700 (Pacific Daylight Time)","912944","Untrustworthy,Trustworthy","","null","","","","ratingFB","","trustrating_stim/white_mw063.bmp","null","","","","","","","","","","",""
"image-keyboard-response","53","121197","0.0-6.0-1.24","641359eb0e2dc93999637e35","bdp_trlrn","Sat Apr 08 2023 09:43:46 GMT-0700 (Pacific Daylight Time)","912944","Untrustworthy,Trustworthy","","2059","","","","rating","","trustrating_stim/white_mw066.bmp","6","","","","","","","","","","",""
"image-keyboard-response","54","121399","0.0-6.0-2.24","641359eb0e2dc93999637e35","bdp_trlrn","Sat Apr 08 2023 09:43:46 GMT-0700 (Pacific Daylight Time)","912944","Untrustworthy,Trustworthy","","null","","","","ratingFB","","trustrating_stim/white_mw066.bmp","null","","","","","","","","","","",""
"image-keyboard-response","55","123922","0.0-6.0-1.25","641359eb0e2dc93999637e35","bdp_trlrn","Sat Apr 08 2023 09:43:46 GMT-0700 (Pacific Daylight Time)","912944","Untrustworthy,Trustworthy","","2420","","","","rating","","trustrating_stim/white_mw053.bmp","7","","","","","","","","","","",""
"image-keyboard-response","56","124125","0.0-6.0-2.25","641359eb0e2dc93999637e35","bdp_trlrn","Sat Apr 08 2023 09:43:46 GMT-0700 (Pacific Daylight Time)","912944","Untrustworthy,Trustworthy","","null","","","","ratingFB","","trustrating_stim/white_mw053.bmp","null","","","","","","","","","","",""
"image-keyboard-response","57","126738","0.0-6.0-1.26","641359eb0e2dc93999637e35","bdp_trlrn","Sat Apr 08 2023 09:43:46 GMT-0700 (Pacific Daylight Time)","912944","Untrustworthy,Trustworthy","","2510","","","","rating","","trustrating_stim/white_00299_940422_fa_edt.bmp","6","","","","","","","","","","",""
"image-keyboard-response","58","126939","0.0-6.0-2.26","641359eb0e2dc93999637e35","bdp_trlrn","Sat Apr 08 2023 09:43:46 GMT-0700 (Pacific Daylight Time)","912944","Untrustworthy,Trustworthy","","null","","","","ratingFB","","trustrating_stim/white_00299_940422_fa_edt.bmp","null","","","","","","","","","","",""
"image-keyboard-response","59","129292","0.0-6.0-1.27","641359eb0e2dc93999637e35","bdp_trlrn","Sat Apr 08 2023 09:43:46 GMT-0700 (Pacific Daylight Time)","912944","Untrustworthy,Trustworthy","","2249","","","","rating","","trustrating_stim/white_mw035.bmp","6","","","","","","","","","","",""
"image-keyboard-response","60","129494","0.0-6.0-2.27","641359eb0e2dc93999637e35","bdp_trlrn","Sat Apr 08 2023 09:43:46 GMT-0700 (Pacific Daylight Time)","912944","Untrustworthy,Trustworthy","","null","","","","ratingFB","","trustrating_stim/white_mw035.bmp","null","","","","","","","","","","",""
"image-keyboard-response","61","132364","0.0-6.0-1.28","641359eb0e2dc93999637e35","bdp_trlrn","Sat Apr 08 2023 09:43:46 GMT-0700 (Pacific Daylight Time)","912944","Untrustworthy,Trustworthy","","2766","","","","rating","","trustrating_stim/white_mw049.bmp","6","","","","","","","","","","",""
"image-keyboard-response","62","132567","0.0-6.0-2.28","641359eb0e2dc93999637e35","bdp_trlrn","Sat Apr 08 2023 09:43:46 GMT-0700 (Pacific Daylight Time)","912944","Untrustworthy,Trustworthy","","null","","","","ratingFB","","trustrating_stim/white_mw049.bmp","null","","","","","","","","","","",""
"image-keyboard-response","63","135824","0.0-6.0-1.29","641359eb0e2dc93999637e35","bdp_trlrn","Sat Apr 08 2023 09:43:46 GMT-0700 (Pacific Daylight Time)","912944","Untrustworthy,Trustworthy","","3153","","","","rating","","trustrating_stim/white_00659_941121_fa_edt.bmp","3","","","","","","","","","","",""
"image-keyboard-response","64","136026","0.0-6.0-2.29","641359eb0e2dc93999637e35","bdp_trlrn","Sat Apr 08 2023 09:43:46 GMT-0700 (Pacific Daylight Time)","912944","Untrustworthy,Trustworthy","","null","","","","ratingFB","","trustrating_stim/white_00659_941121_fa_edt.bmp","null","","","","","","","","","","",""
"image-keyboard-response","65","138903","0.0-6.0-1.30","641359eb0e2dc93999637e35","bdp_trlrn","Sat Apr 08 2023 09:43:46 GMT-0700 (Pacific Daylight Time)","912944","Untrustworthy,Trustworthy","","2773","","","","rating","","trustrating_stim/white_00519_940519_fb_edt.bmp","4","","","","","","","","","","",""
"image-keyboard-response","66","139105","0.0-6.0-2.30","641359eb0e2dc93999637e35","bdp_trlrn","Sat Apr 08 2023 09:43:46 GMT-0700 (Pacific Daylight Time)","912944","Untrustworthy,Trustworthy","","null","","","","ratingFB","","trustrating_stim/white_00519_940519_fb_edt.bmp","null","","","","","","","","","","",""
"image-keyboard-response","67","141652","0.0-6.0-1.31","641359eb0e2dc93999637e35","bdp_trlrn","Sat Apr 08 2023 09:43:46 GMT-0700 (Pacific Daylight Time)","912944","Untrustworthy,Trustworthy","","2443","","","","rating","","trustrating_stim/white_mw033.bmp","5","","","","","","","","","","",""
"image-keyboard-response","68","141855","0.0-6.0-2.31","641359eb0e2dc93999637e35","bdp_trlrn","Sat Apr 08 2023 09:43:46 GMT-0700 (Pacific Daylight Time)","912944","Untrustworthy,Trustworthy","","null","","","","ratingFB","","trustrating_stim/white_mw033.bmp","null","","","","","","","","","","",""
"image-keyboard-response","69","144240","0.0-6.0-1.32","641359eb0e2dc93999637e35","bdp_trlrn","Sat Apr 08 2023 09:43:46 GMT-0700 (Pacific Daylight Time)","912944","Untrustworthy,Trustworthy","","2282","","","","rating","","trustrating_stim/white_mw056.bmp","7","","","","","","","","","","",""
"image-keyboard-response","70","144442","0.0-6.0-2.32","641359eb0e2dc93999637e35","bdp_trlrn","Sat Apr 08 2023 09:43:46 GMT-0700 (Pacific Daylight Time)","912944","Untrustworthy,Trustworthy","","null","","","","ratingFB","","trustrating_stim/white_mw056.bmp","null","","","","","","","","","","",""
"image-keyboard-response","71","145527","0.0-6.0-1.33","641359eb0e2dc93999637e35","bdp_trlrn","Sat Apr 08 2023 09:43:46 GMT-0700 (Pacific Daylight Time)","912944","Untrustworthy,Trustworthy","","982","","","","rating","","trustrating_stim/white_mw066.bmp","7","","","","","","","","","","",""
"image-keyboard-response","72","145729","0.0-6.0-2.33","641359eb0e2dc93999637e35","bdp_trlrn","Sat Apr 08 2023 09:43:46 GMT-0700 (Pacific Daylight Time)","912944","Untrustworthy,Trustworthy","","null","","","","ratingFB","","trustrating_stim/white_mw066.bmp","null","","","","","","","","","","",""
"image-keyboard-response","73","148081","0.0-6.0-1.34","641359eb0e2dc93999637e35","bdp_trlrn","Sat Apr 08 2023 09:43:46 GMT-0700 (Pacific Daylight Time)","912944","Untrustworthy,Trustworthy","","2249","","","","rating","","trustrating_stim/white_00807_941205_fb_edt.bmp","7","","","","","","","","","","",""
"image-keyboard-response","74","148284","0.0-6.0-2.34","641359eb0e2dc93999637e35","bdp_trlrn","Sat Apr 08 2023 09:43:46 GMT-0700 (Pacific Daylight Time)","912944","Untrustworthy,Trustworthy","","null","","","","ratingFB","","trustrating_stim/white_00807_941205_fb_edt.bmp","null","","","","","","","","","","",""
"image-keyboard-response","75","149867","0.0-6.0-1.35","641359eb0e2dc93999637e35","bdp_trlrn","Sat Apr 08 2023 09:43:46 GMT-0700 (Pacific Daylight Time)","912944","Untrustworthy,Trustworthy","","1481","","","","rating","","trustrating_stim/white_00577_940928_fa_edt.bmp","3","","","","","","","","","","",""
"image-keyboard-response","76","150071","0.0-6.0-2.35","641359eb0e2dc93999637e35","bdp_trlrn","Sat Apr 08 2023 09:43:46 GMT-0700 (Pacific Daylight Time)","912944","Untrustworthy,Trustworthy","","null","","","","ratingFB","","trustrating_stim/white_00577_940928_fa_edt.bmp","null","","","","","","","","","","",""
"image-keyboard-response","77","153185","0.0-6.0-1.36","641359eb0e2dc93999637e35","bdp_trlrn","Sat Apr 08 2023 09:43:46 GMT-0700 (Pacific Daylight Time)","912944","Untrustworthy,Trustworthy","","3010","","","","rating","","trustrating_stim/white_mw046.bmp","6","","","","","","","","","","",""
"image-keyboard-response","78","153387","0.0-6.0-2.36","641359eb0e2dc93999637e35","bdp_trlrn","Sat Apr 08 2023 09:43:46 GMT-0700 (Pacific Daylight Time)","912944","Untrustworthy,Trustworthy","","null","","","","ratingFB","","trustrating_stim/white_mw046.bmp","null","","","","","","","","","","",""
"image-keyboard-response","79","155823","0.0-6.0-1.37","641359eb0e2dc93999637e35","bdp_trlrn","Sat Apr 08 2023 09:43:46 GMT-0700 (Pacific Daylight Time)","912944","Untrustworthy,Trustworthy","","2333","","","","rating","","trustrating_stim/white_00602_940928_fb_edt.bmp","7","","","","","","","","","","",""
"image-keyboard-response","80","156026","0.0-6.0-2.37","641359eb0e2dc93999637e35","bdp_trlrn","Sat Apr 08 2023 09:43:46 GMT-0700 (Pacific Daylight Time)","912944","Untrustworthy,Trustworthy","","null","","","","ratingFB","","trustrating_stim/white_00602_940928_fb_edt.bmp","null","","","","","","","","","","",""
"image-keyboard-response","81","157402","0.0-6.0-1.38","641359eb0e2dc93999637e35","bdp_trlrn","Sat Apr 08 2023 09:43:46 GMT-0700 (Pacific Daylight Time)","912944","Untrustworthy,Trustworthy","","1272","","","","rating","","trustrating_stim/white_00109_931230_fa_edt.bmp","7","","","","","","","","","","",""
"image-keyboard-response","82","157604","0.0-6.0-2.38","641359eb0e2dc93999637e35","bdp_trlrn","Sat Apr 08 2023 09:43:46 GMT-0700 (Pacific Daylight Time)","912944","Untrustworthy,Trustworthy","","null","","","","ratingFB","","trustrating_stim/white_00109_931230_fa_edt.bmp","null","","","","","","","","","","",""
"image-keyboard-response","83","159399","0.0-6.0-1.39","641359eb0e2dc93999637e35","bdp_trlrn","Sat Apr 08 2023 09:43:46 GMT-0700 (Pacific Daylight Time)","912944","Untrustworthy,Trustworthy","","1692","","","","rating","","trustrating_stim/white_mw089.bmp","3","","","","","","","","","","",""
"image-keyboard-response","84","159601","0.0-6.0-2.39","641359eb0e2dc93999637e35","bdp_trlrn","Sat Apr 08 2023 09:43:46 GMT-0700 (Pacific Daylight Time)","912944","Untrustworthy,Trustworthy","","null","","","","ratingFB","","trustrating_stim/white_mw089.bmp","null","","","","","","","","","","",""
"image-keyboard-response","85","161330","0.0-6.0-1.40","641359eb0e2dc93999637e35","bdp_trlrn","Sat Apr 08 2023 09:43:46 GMT-0700 (Pacific Daylight Time)","912944","Untrustworthy,Trustworthy","","1625","","","","rating","","trustrating_stim/white_00120_931230_fa_edt.bmp","7","","","","","","","","","","",""
"image-keyboard-response","86","161531","0.0-6.0-2.40","641359eb0e2dc93999637e35","bdp_trlrn","Sat Apr 08 2023 09:43:46 GMT-0700 (Pacific Daylight Time)","912944","Untrustworthy,Trustworthy","","null","","","","ratingFB","","trustrating_stim/white_00120_931230_fa_edt.bmp","null","","","","","","","","","","",""
"image-keyboard-response","87","163831","0.0-6.0-1.41","641359eb0e2dc93999637e35","bdp_trlrn","Sat Apr 08 2023 09:43:46 GMT-0700 (Pacific Daylight Time)","912944","Untrustworthy,Trustworthy","","2196","","","","rating","","trustrating_stim/white_mw035.bmp","8","","","","","","","","","","",""
"image-keyboard-response","88","164034","0.0-6.0-2.41","641359eb0e2dc93999637e35","bdp_trlrn","Sat Apr 08 2023 09:43:46 GMT-0700 (Pacific Daylight Time)","912944","Untrustworthy,Trustworthy","","null","","","","ratingFB","","trustrating_stim/white_mw035.bmp","null","","","","","","","","","","",""
"image-keyboard-response","89","166053","0.0-6.0-1.42","641359eb0e2dc93999637e35","bdp_trlrn","Sat Apr 08 2023 09:43:46 GMT-0700 (Pacific Daylight Time)","912944","Untrustworthy,Trustworthy","","1916","","","","rating","","trustrating_stim/white_mw060.bmp","5","","","","","","","","","","",""
"image-keyboard-response","90","166255","0.0-6.0-2.42","641359eb0e2dc93999637e35","bdp_trlrn","Sat Apr 08 2023 09:43:46 GMT-0700 (Pacific Daylight Time)","912944","Untrustworthy,Trustworthy","","null","","","","ratingFB","","trustrating_stim/white_mw060.bmp","null","","","","","","","","","","",""
"image-keyboard-response","91","167645","0.0-6.0-1.43","641359eb0e2dc93999637e35","bdp_trlrn","Sat Apr 08 2023 09:43:46 GMT-0700 (Pacific Daylight Time)","912944","Untrustworthy,Trustworthy","","1287","","","","rating","","trustrating_stim/white_mw084.bmp","6","","","","","","","","","","",""
"image-keyboard-response","92","167847","0.0-6.0-2.43","641359eb0e2dc93999637e35","bdp_trlrn","Sat Apr 08 2023 09:43:46 GMT-0700 (Pacific Daylight Time)","912944","Untrustworthy,Trustworthy","","null","","","","ratingFB","","trustrating_stim/white_mw084.bmp","null","","","","","","","","","","",""
"image-keyboard-response","93","170164","0.0-6.0-1.44","641359eb0e2dc93999637e35","bdp_trlrn","Sat Apr 08 2023 09:43:46 GMT-0700 (Pacific Daylight Time)","912944","Untrustworthy,Trustworthy","","2213","","","","rating","","trustrating_stim/white_mw097.bmp","6","","","","","","","","","","",""
"image-keyboard-response","94","170365","0.0-6.0-2.44","641359eb0e2dc93999637e35","bdp_trlrn","Sat Apr 08 2023 09:43:46 GMT-0700 (Pacific Daylight Time)","912944","Untrustworthy,Trustworthy","","null","","","","ratingFB","","trustrating_stim/white_mw097.bmp","null","","","","","","","","","","",""
"image-keyboard-response","95","172621","0.0-6.0-1.45","641359eb0e2dc93999637e35","bdp_trlrn","Sat Apr 08 2023 09:43:46 GMT-0700 (Pacific Daylight Time)","912944","Untrustworthy,Trustworthy","","2153","","","","rating","","trustrating_stim/white_00299_940422_fa_edt.bmp","8","","","","","","","","","","",""
"image-keyboard-response","96","172823","0.0-6.0-2.45","641359eb0e2dc93999637e35","bdp_trlrn","Sat Apr 08 2023 09:43:46 GMT-0700 (Pacific Daylight Time)","912944","Untrustworthy,Trustworthy","","null","","","","ratingFB","","trustrating_stim/white_00299_940422_fa_edt.bmp","null","","","","","","","","","","",""
"image-keyboard-response","97","174885","0.0-6.0-1.46","641359eb0e2dc93999637e35","bdp_trlrn","Sat Apr 08 2023 09:43:46 GMT-0700 (Pacific Daylight Time)","912944","Untrustworthy,Trustworthy","","1958","","","","rating","","trustrating_stim/white_mw099.bmp","6","","","","","","","","","","",""
"image-keyboard-response","98","175088","0.0-6.0-2.46","641359eb0e2dc93999637e35","bdp_trlrn","Sat Apr 08 2023 09:43:46 GMT-0700 (Pacific Daylight Time)","912944","Untrustworthy,Trustworthy","","null","","","","ratingFB","","trustrating_stim/white_mw099.bmp","null","","","","","","","","","","",""
"image-keyboard-response","99","176870","0.0-6.0-1.47","641359eb0e2dc93999637e35","bdp_trlrn","Sat Apr 08 2023 09:43:46 GMT-0700 (Pacific Daylight Time)","912944","Untrustworthy,Trustworthy","","1679","","","","rating","","trustrating_stim/white_mw063.bmp","7","","","","","","","","","","",""
"image-keyboard-response","100","177072","0.0-6.0-2.47","641359eb0e2dc93999637e35","bdp_trlrn","Sat Apr 08 2023 09:43:46 GMT-0700 (Pacific Daylight Time)","912944","Untrustworthy,Trustworthy","","null","","","","ratingFB","","trustrating_stim/white_mw063.bmp","null","","","","","","","","","","",""
"image-keyboard-response","101","179059","0.0-6.0-1.48","641359eb0e2dc93999637e35","bdp_trlrn","Sat Apr 08 2023 09:43:46 GMT-0700 (Pacific Daylight Time)","912944","Untrustworthy,Trustworthy","","1883","","","","rating","","trustrating_stim/white_00340_940422_fa_edt.bmp","4","","","","","","","","","","",""
"image-keyboard-response","102","179261","0.0-6.0-2.48","641359eb0e2dc93999637e35","bdp_trlrn","Sat Apr 08 2023 09:43:46 GMT-0700 (Pacific Daylight Time)","912944","Untrustworthy,Trustworthy","","null","","","","ratingFB","","trustrating_stim/white_00340_940422_fa_edt.bmp","null","","","","","","","","","","",""
"image-keyboard-response","103","181175","0.0-6.0-1.49","641359eb0e2dc93999637e35","bdp_trlrn","Sat Apr 08 2023 09:43:46 GMT-0700 (Pacific Daylight Time)","912944","Untrustworthy,Trustworthy","","1811","","","","rating","","trustrating_stim/white_00761_941201_fb_edt.bmp","7","","","","","","","","","","",""
"image-keyboard-response","104","181378","0.0-6.0-2.49","641359eb0e2dc93999637e35","bdp_trlrn","Sat Apr 08 2023 09:43:46 GMT-0700 (Pacific Daylight Time)","912944","Untrustworthy,Trustworthy","","null","","","","ratingFB","","trustrating_stim/white_00761_941201_fb_edt.bmp","null","","","","","","","","","","",""
"image-keyboard-response","105","183322","0.0-6.0-1.50","641359eb0e2dc93999637e35","bdp_trlrn","Sat Apr 08 2023 09:43:46 GMT-0700 (Pacific Daylight Time)","912944","Untrustworthy,Trustworthy","","1841","","","","rating","","trustrating_stim/white_00785_941205_fb_edt.bmp","5","","","","","","","","","","",""
"image-keyboard-response","106","183524","0.0-6.0-2.50","641359eb0e2dc93999637e35","bdp_trlrn","Sat Apr 08 2023 09:43:46 GMT-0700 (Pacific Daylight Time)","912944","Untrustworthy,Trustworthy","","null","","","","ratingFB","","trustrating_stim/white_00785_941205_fb_edt.bmp","null","","","","","","","","","","",""
"image-keyboard-response","107","184859","0.0-6.0-1.51","641359eb0e2dc93999637e35","bdp_trlrn","Sat Apr 08 2023 09:43:46 GMT-0700 (Pacific Daylight Time)","912944","Untrustworthy,Trustworthy","","1231","","","","rating","","trustrating_stim/white_mw049.bmp","7","","","","","","","","","","",""
"image-keyboard-response","108","185061","0.0-6.0-2.51","641359eb0e2dc93999637e35","bdp_trlrn","Sat Apr 08 2023 09:43:46 GMT-0700 (Pacific Daylight Time)","912944","Untrustworthy,Trustworthy","","null","","","","ratingFB","","trustrating_stim/white_mw049.bmp","null","","","","","","","","","","",""
"image-keyboard-response","109","187272","0.0-6.0-1.52","641359eb0e2dc93999637e35","bdp_trlrn","Sat Apr 08 2023 09:43:46 GMT-0700 (Pacific Daylight Time)","912944","Untrustworthy,Trustworthy","","2107","","","","rating","","trustrating_stim/white_mw053.bmp","6","","","","","","","","","","",""
"image-keyboard-response","110","187475","0.0-6.0-2.52","641359eb0e2dc93999637e35","bdp_trlrn","Sat Apr 08 2023 09:43:46 GMT-0700 (Pacific Daylight Time)","912944","Untrustworthy,Trustworthy","","null","","","","ratingFB","","trustrating_stim/white_mw053.bmp","null","","","","","","","","","","",""
"image-keyboard-response","111","191043","0.0-6.0-1.53","641359eb0e2dc93999637e35","bdp_trlrn","Sat Apr 08 2023 09:43:46 GMT-0700 (Pacific Daylight Time)","912944","Untrustworthy,Trustworthy","","3465","","","","rating","","trustrating_stim/white_mw071.bmp","4","","","","","","","","","","",""
"image-keyboard-response","112","191246","0.0-6.0-2.53","641359eb0e2dc93999637e35","bdp_trlrn","Sat Apr 08 2023 09:43:46 GMT-0700 (Pacific Daylight Time)","912944","Untrustworthy,Trustworthy","","null","","","","ratingFB","","trustrating_stim/white_mw071.bmp","null","","","","","","","","","","",""
"image-keyboard-response","113","192600","0.0-6.0-1.54","641359eb0e2dc93999637e35","bdp_trlrn","Sat Apr 08 2023 09:43:46 GMT-0700 (Pacific Daylight Time)","912944","Untrustworthy,Trustworthy","","1249","","","","rating","","trustrating_stim/white_mw048.bmp","3","","","","","","","","","","",""
"image-keyboard-response","114","192801","0.0-6.0-2.54","641359eb0e2dc93999637e35","bdp_trlrn","Sat Apr 08 2023 09:43:46 GMT-0700 (Pacific Daylight Time)","912944","Untrustworthy,Trustworthy","","null","","","","ratingFB","","trustrating_stim/white_mw048.bmp","null","","","","","","","","","","",""
"image-keyboard-response","115","194662","0.0-6.0-1.55","641359eb0e2dc93999637e35","bdp_trlrn","Sat Apr 08 2023 09:43:46 GMT-0700 (Pacific Daylight Time)","912944","Untrustworthy,Trustworthy","","1757","","","","rating","","trustrating_stim/white_00223_940128_fb_edt.bmp","5","","","","","","","","","","",""
"image-keyboard-response","116","194865","0.0-6.0-2.55","641359eb0e2dc93999637e35","bdp_trlrn","Sat Apr 08 2023 09:43:46 GMT-0700 (Pacific Daylight Time)","912944","Untrustworthy,Trustworthy","","null","","","","ratingFB","","trustrating_stim/white_00223_940128_fb_edt.bmp","null","","","","","","","","","","",""
"image-keyboard-response","117","196376","0.0-6.0-1.56","641359eb0e2dc93999637e35","bdp_trlrn","Sat Apr 08 2023 09:43:46 GMT-0700 (Pacific Daylight Time)","912944","Untrustworthy,Trustworthy","","1406","","","","rating","","trustrating_stim/white_00898_960530_fa_edt.bmp","6","","","","","","","","","","",""
"image-keyboard-response","118","196578","0.0-6.0-2.56","641359eb0e2dc93999637e35","bdp_trlrn","Sat Apr 08 2023 09:43:46 GMT-0700 (Pacific Daylight Time)","912944","Untrustworthy,Trustworthy","","null","","","","ratingFB","","trustrating_stim/white_00898_960530_fa_edt.bmp","null","","","","","","","","","","",""
"image-keyboard-response","119","198707","0.0-6.0-1.57","641359eb0e2dc93999637e35","bdp_trlrn","Sat Apr 08 2023 09:43:46 GMT-0700 (Pacific Daylight Time)","912944","Untrustworthy,Trustworthy","","2024","","","","rating","","trustrating_stim/white_00659_941121_fa_edt.bmp","3","","","","","","","","","","",""
"image-keyboard-response","120","198909","0.0-6.0-2.57","641359eb0e2dc93999637e35","bdp_trlrn","Sat Apr 08 2023 09:43:46 GMT-0700 (Pacific Daylight Time)","912944","Untrustworthy,Trustworthy","","null","","","","ratingFB","","trustrating_stim/white_00659_941121_fa_edt.bmp","null","","","","","","","","","","",""
"image-keyboard-response","121","201192","0.0-6.0-1.58","641359eb0e2dc93999637e35","bdp_trlrn","Sat Apr 08 2023 09:43:46 GMT-0700 (Pacific Daylight Time)","912944","Untrustworthy,Trustworthy","","2181","","","","rating","","trustrating_stim/white_00757_941201_fa_edt.bmp","3","","","","","","","","","","",""
"image-keyboard-response","122","201395","0.0-6.0-2.58","641359eb0e2dc93999637e35","bdp_trlrn","Sat Apr 08 2023 09:43:46 GMT-0700 (Pacific Daylight Time)","912944","Untrustworthy,Trustworthy","","null","","","","ratingFB","","trustrating_stim/white_00757_941201_fa_edt.bmp","null","","","","","","","","","","",""
"image-keyboard-response","123","203144","0.0-6.0-1.59","641359eb0e2dc93999637e35","bdp_trlrn","Sat Apr 08 2023 09:43:46 GMT-0700 (Pacific Daylight Time)","912944","Untrustworthy,Trustworthy","","1646","","","","rating","","trustrating_stim/white_00129_931230_fb_edt.bmp","6","","","","","","","","","","",""
"image-keyboard-response","124","203348","0.0-6.0-2.59","641359eb0e2dc93999637e35","bdp_trlrn","Sat Apr 08 2023 09:43:46 GMT-0700 (Pacific Daylight Time)","912944","Untrustworthy,Trustworthy","","null","","","","ratingFB","","trustrating_stim/white_00129_931230_fb_edt.bmp","null","","","","","","","","","","",""
"instructions","125","206125","0.0-7.0","641359eb0e2dc93999637e35","bdp_trlrn","Sat Apr 08 2023 09:43:46 GMT-0700 (Pacific Daylight Time)","912944","Untrustworthy,Trustworthy","[{""page_index"":0,""viewing_time"":2675}]","2675","","","","","","","","","","","","","","","","","",""
"instructions","126","371442","0.0-8.0","641359eb0e2dc93999637e35","bdp_trlrn","Sat Apr 08 2023 09:43:46 GMT-0700 (Pacific Daylight Time)","912944","Untrustworthy,Trustworthy","[{""page_index"":0,""viewing_time"":43099},{""page_index"":1,""viewing_time"":34282},{""page_index"":2,""viewing_time"":15074},{""page_index"":3,""viewing_time"":19681},{""page_index"":4,""viewing_time"":7700},{""page_index"":5,""viewing_time"":18552},{""page_index"":6,""viewing_time"":22865},{""page_index"":7,""viewing_time"":3959}]","165213","","","","","","","","","","","","","","","","","",""
"html-keyboard-response","127","379676","0.0-9.0","641359eb0e2dc93999637e35","bdp_trlrn","Sat Apr 08 2023 09:43:46 GMT-0700 (Pacific Daylight Time)","912944","Untrustworthy,Trustworthy","","8232","","","","","","<div class='header' style='text-align:left; position: absolute; top: 5%; left: 5%;'><small>Task 3 of 5</small></div><div class='instruxDiv'><p><strong>1) What is the minimum number of points you can choose to send to your partner?</strong></p><p>a) 0</p><p>b) 1</p><p>c) 5</p>","C","","","","","","","","","","",""
"html-keyboard-response","128","404834","0.0-10.0","641359eb0e2dc93999637e35","bdp_trlrn","Sat Apr 08 2023 09:43:46 GMT-0700 (Pacific Daylight Time)","912944","Untrustworthy,Trustworthy","","25053","","","","","","<div class='header' style='text-align:left; position: absolute; top: 5%; left: 5%;'><small>Task 3 of 5</small></div><div class='instruxDiv'><p><strong>1) What is the minimum number of points you can choose to send to your partner?</strong></p><p>a) 1</p><p>b) 1</p><p style='color:#FF0000'>c) 5</p><h3 style='color:#FF0000'>Incorrect!</h3><h3 class='center-content'>The correct response is b).</h3><h3 class='center-content'>The minimum number of points you can choose to send to your partner is 1 point.</h3><p><em>Press SPACEBAR to continue</em></p></div>"," ","","","","","","","","","","",""
"html-keyboard-response","129","412592","0.0-11.0","641359eb0e2dc93999637e35","bdp_trlrn","Sat Apr 08 2023 09:43:46 GMT-0700 (Pacific Daylight Time)","912944","Untrustworthy,Trustworthy","","7656","","","","","","<div class='header' style='text-align:left; position: absolute; top: 5%; left: 5%;'><small>Task 3 of 5</small></div><div class='instruxDiv'><p><strong>2) What is the maximum number of points you can choose to send to your partner?</strong></p><p>a) 8</p><p>b) 5</p><p>c) 3</p>","B","","","","","","","","","","",""
"html-keyboard-response","130","416551","0.0-12.0","641359eb0e2dc93999637e35","bdp_trlrn","Sat Apr 08 2023 09:43:46 GMT-0700 (Pacific Daylight Time)","912944","Untrustworthy,Trustworthy","","3856","","","","","","<div class='header' style='text-align:left; position: absolute; top: 5%; left: 5%;'><small>Task 3 of 5</small></div><div class='instruxDiv'><p><strong>2) What is the maximum number of points you can choose to send to your partner?</strong></p><p>a) 8</p><p style='color:#00FF00'>b) 5</p><p>c) 3</p><h3 style='color:#00FF00'>Correct!</h3><h3 class='center-content'>The correct response is b).</h3><h3 class='center-content'>The maximum number of points you can choose to send to your partner is 5 points.</h3><p><em>Press SPACEBAR to continue</em></p></div>"," ","","","","","","","","","","",""
"html-keyboard-response","131","430899","0.0-13.0","641359eb0e2dc93999637e35","bdp_trlrn","Sat Apr 08 2023 09:43:46 GMT-0700 (Pacific Daylight Time)","912944","Untrustworthy,Trustworthy","","14245","","","","","","<div class='header' style='text-align:left; position: absolute; top: 5%; left: 5%;'><small>Task 3 of 5</small></div><div class='instruxDiv'><p><strong>3) What happens to the amount of points you send to your partner?</strong></p><p>a) Nothing</p><p>b) It doubles</p><p>c) It quadruples</p>","C","","","","","","","","","","",""
"html-keyboard-response","132","433690","0.0-14.0","641359eb0e2dc93999637e35","bdp_trlrn","Sat Apr 08 2023 09:43:46 GMT-0700 (Pacific Daylight Time)","912944","Untrustworthy,Trustworthy","","2689","","","","","","<div class='header' style='text-align:left; position: absolute; top: 5%; left: 5%;'><small>Task 3 of 5</small></div><div class='instruxDiv'><p><strong>3) What happens to the amount of points you send to your partner?</strong></p><p>a) Nothing</p><p>b) It doubles</p><p style='color:#00FF00'>c) It quadruples</p><h3 style='color:#00FF00'>Correct!</h3><h3 class='center-content'>The correct response is c).</h3><h3 class='center-content'>The amount of points you send to your partner quadruples.</h3><p><em>Press SPACEBAR to continue</em></p></div>"," ","","","","","","","","","","",""
"html-keyboard-response","133","487681","0.0-15.0","641359eb0e2dc93999637e35","bdp_trlrn","Sat Apr 08 2023 09:43:46 GMT-0700 (Pacific Daylight Time)","912944","Untrustworthy,Trustworthy","","53888","","","","","","<div class='header' style='text-align:left; position: absolute; top: 5%; left: 5%;'><small>Task 3 of 5</small></div><div class='instruxDiv'><p><strong>4) If you decided to share 4 out of 5 points with your partner, and they decided to share half of the amount they received with you, how many points would you receive back from them on this round?</strong></p><p>a) 16</p><p>b) 0</p><p>c) 8</p>","C","","","","","","","","","","",""
"html-keyboard-response","134","498327","0.0-16.0","641359eb0e2dc93999637e35","bdp_trlrn","Sat Apr 08 2023 09:43:46 GMT-0700 (Pacific Daylight Time)","912944","Untrustworthy,Trustworthy","","10543","","","","","","<div class='header' style='text-align:left; position: absolute; top: 5%; left: 5%;'><small>Task 3 of 5</small></div><div class='instruxDiv'><p><strong>4) If you decided to share 4 out of 5 points with your partner, and they decided to share half of the amount they received with you, how many points would you receive back from them on this round?</strong></p><p>a) 16</p><p>b) 0</p><p style='color:#00FF00'>c) 8</p><h3 style='color:#00FF00'>Correct!</h3><h3 class='center-content'>The correct response is c).</h3><h3 class='center-content'>If you shared 4 out of 5 points with your partner and they decided to share half of the amount they received with you, you would receive 8 points back (i.e. (4 x 4)/2 = 8).</h3><p><em>Press SPACEBAR to continue</em></p></div>"," ","","","","","","","","","","",""
"html-keyboard-response","135","503431","0.0-17.0","641359eb0e2dc93999637e35","bdp_trlrn","Sat Apr 08 2023 09:43:46 GMT-0700 (Pacific Daylight Time)","912944","Untrustworthy,Trustworthy","","null","","","","","","<div class='header' style='text-align:left; position: absolute; top: 5%; left: 5%;'><small>Task 3 of 5</small></div><div class='instruxDiv'><p>Thank you for completing the quiz<p>These are the actual partners you will be interacting with in the next block:<p><div class='tc' align='center'><img class='introPic' src='trustrating_stim/white_00340_940422_fa_edt.bmp'><br><strong>Ryan</strong></div><div class='bl' align='center'><img class='introPic' src='trustrating_stim/white_mw033.bmp'><br><strong>Joseph</strong></div><div class='br' align='center'><img class='introPic' src='trustrating_stim/white_00109_931230_fa_edt.bmp'><br><strong>Matthew</strong></div></div><p>Across <strong>66 rounds</strong> you will interact with each partner <strong>22 times</strong> (in random order).<p style='align:center; color:white'><font <em>Press SPACEBAR to continue</em></p>","null","","","","","","","","","","",""
"instructions","136","511193","0.0-18.0","641359eb0e2dc93999637e35","bdp_trlrn","Sat Apr 08 2023 09:43:46 GMT-0700 (Pacific Daylight Time)","912944","Untrustworthy,Trustworthy","[{""page_index"":0,""viewing_time"":4953},{""page_index"":1,""viewing_time"":2807}]","7761","","","","","","","","","","","","","","","","","",""
"html-keyboard-response","137","516913","0.0-19.0-1.0","641359eb0e2dc93999637e35","bdp_trlrn","Sat Apr 08 2023 09:43:46 GMT-0700 (Pacific Daylight Time)","912944","Untrustworthy,Trustworthy","","5617","","","","decision","","<div class='trialDiv'><img src='trustrating_stim/white_mw033.bmp'><br><font class='baseline'><strong>Joseph</strong><p>Choose number of points to send.</font><div class='respPicDiv'><img src='img/responseButtonOffersNo0L.png' class='respPic'></div></div>","4","1","Joseph","6","Kept","0.8,0.2","14","0.8","trustrating_stim/white_mw033.bmp","6","5","1"
"html-keyboard-response","138","517167","0.0-19.0-2.0","641359eb0e2dc93999637e35","bdp_trlrn","Sat Apr 08 2023 09:43:46 GMT-0700 (Pacific Daylight Time)","912944","Untrustworthy,Trustworthy","","null","","","","decisionFB","","<div class='trialDiv'><img src='trustrating_stim/white_mw033.bmp'><br><font class='baseline'><strong>Joseph</strong><p>Choose number of points to send.</font><div class='respPicDiv'><img src='img/responseButtonOffersNo0L4.png' class='respPic'></div></div>","null","1","Joseph","6","Kept","0.8,0.2","14","0.8","trustrating_stim/white_mw033.bmp","6","1","1"
"html-keyboard-response","139","518171","0.0-19.0-3.0","641359eb0e2dc93999637e35","bdp_trlrn","Sat Apr 08 2023 09:43:46 GMT-0700 (Pacific Daylight Time)","912944","Untrustworthy,Trustworthy","","null","","","","feedback","","<div class='trialDiv'><img src='trustrating_stim/white_mw033.bmp'><br><font class='baseline'><strong>Joseph</strong><p>Received: <strong>16</strong></font> &nbsp; &nbsp; &nbsp; &nbsp; &nbsp; &nbsp;<font class='negOutcome'>Shared back: <strong>0</strong></font></font><div class='respPicDiv'><img src='img/responseButtonOffersNo0_wht.png' class='respPic'></div></div>","null","1","Joseph","6","Kept","0.8,0.2","14","0.8","trustrating_stim/white_mw033.bmp","6","1","1"
"html-keyboard-response","140","522186","0.0-19.0-1.1","641359eb0e2dc93999637e35","bdp_trlrn","Sat Apr 08 2023 09:43:46 GMT-0700 (Pacific Daylight Time)","912944","Untrustworthy,Trustworthy","","4012","","","","decision","","<div class='trialDiv'><img src='trustrating_stim/white_00109_931230_fa_edt.bmp'><br><font class='baseline'><strong>Matthew</strong><p>Choose number of points to send.</font><div class='respPicDiv'><img src='img/responseButtonOffersNo0L.png' class='respPic'></div></div>","5","1","Matthew","11","Shared","0.65,0.2","13","0.65","trustrating_stim/white_00109_931230_fa_edt.bmp","7.5","6","2"
"html-keyboard-response","141","522439","0.0-19.0-2.1","641359eb0e2dc93999637e35","bdp_trlrn","Sat Apr 08 2023 09:43:46 GMT-0700 (Pacific Daylight Time)","912944","Untrustworthy,Trustworthy","","null","","","","decisionFB","","<div class='trialDiv'><img src='trustrating_stim/white_00109_931230_fa_edt.bmp'><br><font class='baseline'><strong>Matthew</strong><p>Choose number of points to send.</font><div class='respPicDiv'><img src='img/responseButtonOffersNo0L5.png' class='respPic'></div></div>","null","1","Matthew","11","Shared","0.65,0.2","13","0.65","trustrating_stim/white_00109_931230_fa_edt.bmp","7.5","1","2"
"html-keyboard-response","142","523442","0.0-19.0-3.1","641359eb0e2dc93999637e35","bdp_trlrn","Sat Apr 08 2023 09:43:46 GMT-0700 (Pacific Daylight Time)","912944","Untrustworthy,Trustworthy","","null","","","","feedback","","<div class='trialDiv'><img src='trustrating_stim/white_00109_931230_fa_edt.bmp'><br><font class='baseline'><strong>Matthew</strong><p>Received: <strong>20</strong></font> &nbsp; &nbsp; &nbsp; &nbsp; &nbsp; &nbsp;<font class='posOutcome'>Shared back: <strong>10</strong></font></font><div class='respPicDiv'><img src='img/responseButtonOffersNo0_wht.png' class='respPic'></div></div>","null","1","Matthew","11","Shared","0.65,0.2","13","0.65","trustrating_stim/white_00109_931230_fa_edt.bmp","7.5","11","2"
"html-keyboard-response","143","526145","0.0-19.0-1.2","641359eb0e2dc93999637e35","bdp_trlrn","Sat Apr 08 2023 09:43:46 GMT-0700 (Pacific Daylight Time)","912944","Untrustworthy,Trustworthy","","2701","","","","decision","","<div class='trialDiv'><img src='trustrating_stim/white_00340_940422_fa_edt.bmp'><br><font class='baseline'><strong>Ryan</strong><p>Choose number of points to send.</font><div class='respPicDiv'><img src='img/responseButtonOffersNo0L.png' class='respPic'></div></div>","3","1","Ryan","1","Shared","0.35,0.8","12","0.35","trustrating_stim/white_00340_940422_fa_edt.bmp","2.5","16","3"
"html-keyboard-response","144","526397","0.0-19.0-2.2","641359eb0e2dc93999637e35","bdp_trlrn","Sat Apr 08 2023 09:43:46 GMT-0700 (Pacific Daylight Time)","912944","Untrustworthy,Trustworthy","","null","","","","decisionFB","","<div class='trialDiv'><img src='trustrating_stim/white_00340_940422_fa_edt.bmp'><br><font class='baseline'><strong>Ryan</strong><p>Choose number of points to send.</font><div class='respPicDiv'><img src='img/responseButtonOffersNo0L3.png' class='respPic'></div></div>","null","1","Ryan","1","Shared","0.35,0.8","12","0.35","trustrating_stim/white_00340_940422_fa_edt.bmp","2.5","13","3"
"html-keyboard-response","145","527400","0.0-19.0-3.2","641359eb0e2dc93999637e35","bdp_trlrn","Sat Apr 08 2023 09:43:46 GMT-0700 (Pacific Daylight Time)","912944","Untrustworthy,Trustworthy","","null","","","","feedback","","<div class='trialDiv'><img src='trustrating_stim/white_00340_940422_fa_edt.bmp'><br><font class='baseline'><strong>Ryan</strong><p>Received: <strong>12</strong></font> &nbsp; &nbsp; &nbsp; &nbsp; &nbsp; &nbsp;<font class='posOutcome'>Shared back: <strong>6</strong></font></font><div class='respPicDiv'><img src='img/responseButtonOffersNo0_wht.png' class='respPic'></div></div>","null","1","Ryan","1","Shared","0.35,0.8","12","0.35","trustrating_stim/white_00340_940422_fa_edt.bmp","2.5","19","3"
"html-keyboard-response","146","529900","0.0-19.0-1.3","641359eb0e2dc93999637e35","bdp_trlrn","Sat Apr 08 2023 09:43:46 GMT-0700 (Pacific Daylight Time)","912944","Untrustworthy,Trustworthy","","2497","","","","decision","","<div class='trialDiv'><img src='trustrating_stim/white_00109_931230_fa_edt.bmp'><br><font class='baseline'><strong>Matthew</strong><p>Choose number of points to send.</font><div class='respPicDiv'><img src='img/responseButtonOffersNo0L.png' class='respPic'></div></div>","5","2","Matthew","11","Kept","0.65,0.2","13","0.65","trustrating_stim/white_00109_931230_fa_edt.bmp","7.5","24","4"
"html-keyboard-response","147","530152","0.0-19.0-2.3","641359eb0e2dc93999637e35","bdp_trlrn","Sat Apr 08 2023 09:43:46 GMT-0700 (Pacific Daylight Time)","912944","Untrustworthy,Trustworthy","","null","","","","decisionFB","","<div class='trialDiv'><img src='trustrating_stim/white_00109_931230_fa_edt.bmp'><br><font class='baseline'><strong>Matthew</strong><p>Choose number of points to send.</font><div class='respPicDiv'><img src='img/responseButtonOffersNo0L5.png' class='respPic'></div></div>","null","2","Matthew","11","Kept","0.65,0.2","13","0.65","trustrating_stim/white_00109_931230_fa_edt.bmp","7.5","19","4"
"html-keyboard-response","148","531155","0.0-19.0-3.3","641359eb0e2dc93999637e35","bdp_trlrn","Sat Apr 08 2023 09:43:46 GMT-0700 (Pacific Daylight Time)","912944","Untrustworthy,Trustworthy","","null","","","","feedback","","<div class='trialDiv'><img src='trustrating_stim/white_00109_931230_fa_edt.bmp'><br><font class='baseline'><strong>Matthew</strong><p>Received: <strong>20</strong></font> &nbsp; &nbsp; &nbsp; &nbsp; &nbsp; &nbsp;<font class='negOutcome'>Shared back: <strong>0</strong></font></font><div class='respPicDiv'><img src='img/responseButtonOffersNo0_wht.png' class='respPic'></div></div>","null","2","Matthew","11","Kept","0.65,0.2","13","0.65","trustrating_stim/white_00109_931230_fa_edt.bmp","7.5","19","4"
"html-keyboard-response","149","532966","0.0-19.0-1.4","641359eb0e2dc93999637e35","bdp_trlrn","Sat Apr 08 2023 09:43:46 GMT-0700 (Pacific Daylight Time)","912944","Untrustworthy,Trustworthy","","1808","","","","decision","","<div class='trialDiv'><img src='trustrating_stim/white_00340_940422_fa_edt.bmp'><br><font class='baseline'><strong>Ryan</strong><p>Choose number of points to send.</font><div class='respPicDiv'><img src='img/responseButtonOffersNo0L.png' class='respPic'></div></div>","4","2","Ryan","1","Kept","0.35,0.8","12","0.35","trustrating_stim/white_00340_940422_fa_edt.bmp","2.5","24","5"
"html-keyboard-response","150","533219","0.0-19.0-2.4","641359eb0e2dc93999637e35","bdp_trlrn","Sat Apr 08 2023 09:43:46 GMT-0700 (Pacific Daylight Time)","912944","Untrustworthy,Trustworthy","","null","","","","decisionFB","","<div class='trialDiv'><img src='trustrating_stim/white_00340_940422_fa_edt.bmp'><br><font class='baseline'><strong>Ryan</strong><p>Choose number of points to send.</font><div class='respPicDiv'><img src='img/responseButtonOffersNo0L4.png' class='respPic'></div></div>","null","2","Ryan","1","Kept","0.35,0.8","12","0.35","trustrating_stim/white_00340_940422_fa_edt.bmp","2.5","20","5"
"html-keyboard-response","151","534222","0.0-19.0-3.4","641359eb0e2dc93999637e35","bdp_trlrn","Sat Apr 08 2023 09:43:46 GMT-0700 (Pacific Daylight Time)","912944","Untrustworthy,Trustworthy","","null","","","","feedback","","<div class='trialDiv'><img src='trustrating_stim/white_00340_940422_fa_edt.bmp'><br><font class='baseline'><strong>Ryan</strong><p>Received: <strong>16</strong></font> &nbsp; &nbsp; &nbsp; &nbsp; &nbsp; &nbsp;<font class='negOutcome'>Shared back: <strong>0</strong></font></font><div class='respPicDiv'><img src='img/responseButtonOffersNo0_wht.png' class='respPic'></div></div>","null","2","Ryan","1","Kept","0.35,0.8","12","0.35","trustrating_stim/white_00340_940422_fa_edt.bmp","2.5","20","5"
"html-keyboard-response","152","535047","0.0-19.0-1.5","641359eb0e2dc93999637e35","bdp_trlrn","Sat Apr 08 2023 09:43:46 GMT-0700 (Pacific Daylight Time)","912944","Untrustworthy,Trustworthy","","822","","","","decision","","<div class='trialDiv'><img src='trustrating_stim/white_mw033.bmp'><br><font class='baseline'><strong>Joseph</strong><p>Choose number of points to send.</font><div class='respPicDiv'><img src='img/responseButtonOffersNo0L.png' class='respPic'></div></div>","5","2","Joseph","6","Shared","0.8,0.2","14","0.8","trustrating_stim/white_mw033.bmp","6","25","6"
"html-keyboard-response","153","535299","0.0-19.0-2.5","641359eb0e2dc93999637e35","bdp_trlrn","Sat Apr 08 2023 09:43:46 GMT-0700 (Pacific Daylight Time)","912944","Untrustworthy,Trustworthy","","null","","","","decisionFB","","<div class='trialDiv'><img src='trustrating_stim/white_mw033.bmp'><br><font class='baseline'><strong>Joseph</strong><p>Choose number of points to send.</font><div class='respPicDiv'><img src='img/responseButtonOffersNo0L5.png' class='respPic'></div></div>","null","2","Joseph","6","Shared","0.8,0.2","14","0.8","trustrating_stim/white_mw033.bmp","6","20","6"
"html-keyboard-response","154","536301","0.0-19.0-3.5","641359eb0e2dc93999637e35","bdp_trlrn","Sat Apr 08 2023 09:43:46 GMT-0700 (Pacific Daylight Time)","912944","Untrustworthy,Trustworthy","","null","","","","feedback","","<div class='trialDiv'><img src='trustrating_stim/white_mw033.bmp'><br><font class='baseline'><strong>Joseph</strong><p>Received: <strong>20</strong></font> &nbsp; &nbsp; &nbsp; &nbsp; &nbsp; &nbsp;<font class='posOutcome'>Shared back: <strong>10</strong></font></font><div class='respPicDiv'><img src='img/responseButtonOffersNo0_wht.png' class='respPic'></div></div>","null","2","Joseph","6","Shared","0.8,0.2","14","0.8","trustrating_stim/white_mw033.bmp","6","30","6"
"html-keyboard-response","155","537760","0.0-19.0-1.6","641359eb0e2dc93999637e35","bdp_trlrn","Sat Apr 08 2023 09:43:46 GMT-0700 (Pacific Daylight Time)","912944","Untrustworthy,Trustworthy","","1457","","","","decision","","<div class='trialDiv'><img src='trustrating_stim/white_00109_931230_fa_edt.bmp'><br><font class='baseline'><strong>Matthew</strong><p>Choose number of points to send.</font><div class='respPicDiv'><img src='img/responseButtonOffersNo0L.png' class='respPic'></div></div>","2","3","Matthew","11","Kept","0.65,0.2","13","0.65","trustrating_stim/white_00109_931230_fa_edt.bmp","7.5","35","7"
"html-keyboard-response","156","538013","0.0-19.0-2.6","641359eb0e2dc93999637e35","bdp_trlrn","Sat Apr 08 2023 09:43:46 GMT-0700 (Pacific Daylight Time)","912944","Untrustworthy,Trustworthy","","null","","","","decisionFB","","<div class='trialDiv'><img src='trustrating_stim/white_00109_931230_fa_edt.bmp'><br><font class='baseline'><strong>Matthew</strong><p>Choose number of points to send.</font><div class='respPicDiv'><img src='img/responseButtonOffersNo0L2.png' class='respPic'></div></div>","null","3","Matthew","11","Kept","0.65,0.2","13","0.65","trustrating_stim/white_00109_931230_fa_edt.bmp","7.5","33","7"
"html-keyboard-response","157","539015","0.0-19.0-3.6","641359eb0e2dc93999637e35","bdp_trlrn","Sat Apr 08 2023 09:43:46 GMT-0700 (Pacific Daylight Time)","912944","Untrustworthy,Trustworthy","","null","","","","feedback","","<div class='trialDiv'><img src='trustrating_stim/white_00109_931230_fa_edt.bmp'><br><font class='baseline'><strong>Matthew</strong><p>Received: <strong>8</strong></font> &nbsp; &nbsp; &nbsp; &nbsp; &nbsp; &nbsp;<font class='negOutcome'>Shared back: <strong>0</strong></font></font><div class='respPicDiv'><img src='img/responseButtonOffersNo0_wht.png' class='respPic'></div></div>","null","3","Matthew","11","Kept","0.65,0.2","13","0.65","trustrating_stim/white_00109_931230_fa_edt.bmp","7.5","33","7"
"html-keyboard-response","158","539782","0.0-19.0-1.7","641359eb0e2dc93999637e35","bdp_trlrn","Sat Apr 08 2023 09:43:46 GMT-0700 (Pacific Daylight Time)","912944","Untrustworthy,Trustworthy","","764","","","","decision","","<div class='trialDiv'><img src='trustrating_stim/white_00340_940422_fa_edt.bmp'><br><font class='baseline'><strong>Ryan</strong><p>Choose number of points to send.</font><div class='respPicDiv'><img src='img/responseButtonOffersNo0L.png' class='respPic'></div></div>","5","3","Ryan","1","Shared","0.35,0.8","12","0.35","trustrating_stim/white_00340_940422_fa_edt.bmp","2.5","38","8"
"html-keyboard-response","159","540035","0.0-19.0-2.7","641359eb0e2dc93999637e35","bdp_trlrn","Sat Apr 08 2023 09:43:46 GMT-0700 (Pacific Daylight Time)","912944","Untrustworthy,Trustworthy","","null","","","","decisionFB","","<div class='trialDiv'><img src='trustrating_stim/white_00340_940422_fa_edt.bmp'><br><font class='baseline'><strong>Ryan</strong><p>Choose number of points to send.</font><div class='respPicDiv'><img src='img/responseButtonOffersNo0L5.png' class='respPic'></div></div>","null","3","Ryan","1","Shared","0.35,0.8","12","0.35","trustrating_stim/white_00340_940422_fa_edt.bmp","2.5","33","8"
"html-keyboard-response","160","541037","0.0-19.0-3.7","641359eb0e2dc93999637e35","bdp_trlrn","Sat Apr 08 2023 09:43:46 GMT-0700 (Pacific Daylight Time)","912944","Untrustworthy,Trustworthy","","null","","","","feedback","","<div class='trialDiv'><img src='trustrating_stim/white_00340_940422_fa_edt.bmp'><br><font class='baseline'><strong>Ryan</strong><p>Received: <strong>20</strong></font> &nbsp; &nbsp; &nbsp; &nbsp; &nbsp; &nbsp;<font class='posOutcome'>Shared back: <strong>10</strong></font></font><div class='respPicDiv'><img src='img/responseButtonOffersNo0_wht.png' class='respPic'></div></div>","null","3","Ryan","1","Shared","0.35,0.8","12","0.35","trustrating_stim/white_00340_940422_fa_edt.bmp","2.5","43","8"
"html-keyboard-response","161","542669","0.0-19.0-1.8","641359eb0e2dc93999637e35","bdp_trlrn","Sat Apr 08 2023 09:43:46 GMT-0700 (Pacific Daylight Time)","912944","Untrustworthy,Trustworthy","","1629","","","","decision","","<div class='trialDiv'><img src='trustrating_stim/white_mw033.bmp'><br><font class='baseline'><strong>Joseph</strong><p>Choose number of points to send.</font><div class='respPicDiv'><img src='img/responseButtonOffersNo0L.png' class='respPic'></div></div>","3","3","Joseph","6","Shared","0.8,0.2","14","0.8","trustrating_stim/white_mw033.bmp","6","48","9"
"html-keyboard-response","162","542921","0.0-19.0-2.8","641359eb0e2dc93999637e35","bdp_trlrn","Sat Apr 08 2023 09:43:46 GMT-0700 (Pacific Daylight Time)","912944","Untrustworthy,Trustworthy","","null","","","","decisionFB","","<div class='trialDiv'><img src='trustrating_stim/white_mw033.bmp'><br><font class='baseline'><strong>Joseph</strong><p>Choose number of points to send.</font><div class='respPicDiv'><img src='img/responseButtonOffersNo0L3.png' class='respPic'></div></div>","null","3","Joseph","6","Shared","0.8,0.2","14","0.8","trustrating_stim/white_mw033.bmp","6","45","9"
"html-keyboard-response","163","543924","0.0-19.0-3.8","641359eb0e2dc93999637e35","bdp_trlrn","Sat Apr 08 2023 09:43:46 GMT-0700 (Pacific Daylight Time)","912944","Untrustworthy,Trustworthy","","null","","","","feedback","","<div class='trialDiv'><img src='trustrating_stim/white_mw033.bmp'><br><font class='baseline'><strong>Joseph</strong><p>Received: <strong>12</strong></font> &nbsp; &nbsp; &nbsp; &nbsp; &nbsp; &nbsp;<font class='posOutcome'>Shared back: <strong>6</strong></font></font><div class='respPicDiv'><img src='img/responseButtonOffersNo0_wht.png' class='respPic'></div></div>","null","3","Joseph","6","Shared","0.8,0.2","14","0.8","trustrating_stim/white_mw033.bmp","6","51","9"
"html-keyboard-response","164","546020","0.0-19.0-1.9","641359eb0e2dc93999637e35","bdp_trlrn","Sat Apr 08 2023 09:43:46 GMT-0700 (Pacific Daylight Time)","912944","Untrustworthy,Trustworthy","","2094","","","","decision","","<div class='trialDiv'><img src='trustrating_stim/white_00109_931230_fa_edt.bmp'><br><font class='baseline'><strong>Matthew</strong><p>Choose number of points to send.</font><div class='respPicDiv'><img src='img/responseButtonOffersNo0L.png' class='respPic'></div></div>","4","4","Matthew","11","Kept","0.65,0.2","13","0.65","trustrating_stim/white_00109_931230_fa_edt.bmp","7.5","56","10"
"html-keyboard-response","165","546272","0.0-19.0-2.9","641359eb0e2dc93999637e35","bdp_trlrn","Sat Apr 08 2023 09:43:46 GMT-0700 (Pacific Daylight Time)","912944","Untrustworthy,Trustworthy","","null","","","","decisionFB","","<div class='trialDiv'><img src='trustrating_stim/white_00109_931230_fa_edt.bmp'><br><font class='baseline'><strong>Matthew</strong><p>Choose number of points to send.</font><div class='respPicDiv'><img src='img/responseButtonOffersNo0L4.png' class='respPic'></div></div>","null","4","Matthew","11","Kept","0.65,0.2","13","0.65","trustrating_stim/white_00109_931230_fa_edt.bmp","7.5","52","10"
"html-keyboard-response","166","547275","0.0-19.0-3.9","641359eb0e2dc93999637e35","bdp_trlrn","Sat Apr 08 2023 09:43:46 GMT-0700 (Pacific Daylight Time)","912944","Untrustworthy,Trustworthy","","null","","","","feedback","","<div class='trialDiv'><img src='trustrating_stim/white_00109_931230_fa_edt.bmp'><br><font class='baseline'><strong>Matthew</strong><p>Received: <strong>16</strong></font> &nbsp; &nbsp; &nbsp; &nbsp; &nbsp; &nbsp;<font class='negOutcome'>Shared back: <strong>0</strong></font></font><div class='respPicDiv'><img src='img/responseButtonOffersNo0_wht.png' class='respPic'></div></div>","null","4","Matthew","11","Kept","0.65,0.2","13","0.65","trustrating_stim/white_00109_931230_fa_edt.bmp","7.5","52","10"
"html-keyboard-response","167","547885","0.0-19.0-1.10","641359eb0e2dc93999637e35","bdp_trlrn","Sat Apr 08 2023 09:43:46 GMT-0700 (Pacific Daylight Time)","912944","Untrustworthy,Trustworthy","","607","","","","decision","","<div class='trialDiv'><img src='trustrating_stim/white_00340_940422_fa_edt.bmp'><br><font class='baseline'><strong>Ryan</strong><p>Choose number of points to send.</font><div class='respPicDiv'><img src='img/responseButtonOffersNo0L.png' class='respPic'></div></div>","5","4","Ryan","1","Kept","0.35,0.8","12","0.35","trustrating_stim/white_00340_940422_fa_edt.bmp","2.5","57","11"
"html-keyboard-response","168","548137","0.0-19.0-2.10","641359eb0e2dc93999637e35","bdp_trlrn","Sat Apr 08 2023 09:43:46 GMT-0700 (Pacific Daylight Time)","912944","Untrustworthy,Trustworthy","","null","","","","decisionFB","","<div class='trialDiv'><img src='trustrating_stim/white_00340_940422_fa_edt.bmp'><br><font class='baseline'><strong>Ryan</strong><p>Choose number of points to send.</font><div class='respPicDiv'><img src='img/responseButtonOffersNo0L5.png' class='respPic'></div></div>","null","4","Ryan","1","Kept","0.35,0.8","12","0.35","trustrating_stim/white_00340_940422_fa_edt.bmp","2.5","52","11"
"html-keyboard-response","169","549139","0.0-19.0-3.10","641359eb0e2dc93999637e35","bdp_trlrn","Sat Apr 08 2023 09:43:46 GMT-0700 (Pacific Daylight Time)","912944","Untrustworthy,Trustworthy","","null","","","","feedback","","<div class='trialDiv'><img src='trustrating_stim/white_00340_940422_fa_edt.bmp'><br><font class='baseline'><strong>Ryan</strong><p>Received: <strong>20</strong></font> &nbsp; &nbsp; &nbsp; &nbsp; &nbsp; &nbsp;<font class='negOutcome'>Shared back: <strong>0</strong></font></font><div class='respPicDiv'><img src='img/responseButtonOffersNo0_wht.png' class='respPic'></div></div>","null","4","Ryan","1","Kept","0.35,0.8","12","0.35","trustrating_stim/white_00340_940422_fa_edt.bmp","2.5","52","11"
"html-keyboard-response","170","550473","0.0-19.0-1.11","641359eb0e2dc93999637e35","bdp_trlrn","Sat Apr 08 2023 09:43:46 GMT-0700 (Pacific Daylight Time)","912944","Untrustworthy,Trustworthy","","1331","","","","decision","","<div class='trialDiv'><img src='trustrating_stim/white_mw033.bmp'><br><font class='baseline'><strong>Joseph</strong><p>Choose number of points to send.</font><div class='respPicDiv'><img src='img/responseButtonOffersNo0L.png' class='respPic'></div></div>","4","4","Joseph","6","Shared","0.8,0.2","14","0.8","trustrating_stim/white_mw033.bmp","6","57","12"
"html-keyboard-response","171","550725","0.0-19.0-2.11","641359eb0e2dc93999637e35","bdp_trlrn","Sat Apr 08 2023 09:43:46 GMT-0700 (Pacific Daylight Time)","912944","Untrustworthy,Trustworthy","","null","","","","decisionFB","","<div class='trialDiv'><img src='trustrating_stim/white_mw033.bmp'><br><font class='baseline'><strong>Joseph</strong><p>Choose number of points to send.</font><div class='respPicDiv'><img src='img/responseButtonOffersNo0L4.png' class='respPic'></div></div>","null","4","Joseph","6","Shared","0.8,0.2","14","0.8","trustrating_stim/white_mw033.bmp","6","53","12"
"html-keyboard-response","172","551727","0.0-19.0-3.11","641359eb0e2dc93999637e35","bdp_trlrn","Sat Apr 08 2023 09:43:46 GMT-0700 (Pacific Daylight Time)","912944","Untrustworthy,Trustworthy","","null","","","","feedback","","<div class='trialDiv'><img src='trustrating_stim/white_mw033.bmp'><br><font class='baseline'><strong>Joseph</strong><p>Received: <strong>16</strong></font> &nbsp; &nbsp; &nbsp; &nbsp; &nbsp; &nbsp;<font class='posOutcome'>Shared back: <strong>8</strong></font></font><div class='respPicDiv'><img src='img/responseButtonOffersNo0_wht.png' class='respPic'></div></div>","null","4","Joseph","6","Shared","0.8,0.2","14","0.8","trustrating_stim/white_mw033.bmp","6","61","12"
"html-keyboard-response","173","553643","0.0-19.0-1.12","641359eb0e2dc93999637e35","bdp_trlrn","Sat Apr 08 2023 09:43:46 GMT-0700 (Pacific Daylight Time)","912944","Untrustworthy,Trustworthy","","1913","","","","decision","","<div class='trialDiv'><img src='trustrating_stim/white_00109_931230_fa_edt.bmp'><br><font class='baseline'><strong>Matthew</strong><p>Choose number of points to send.</font><div class='respPicDiv'><img src='img/responseButtonOffersNo0L.png' class='respPic'></div></div>","2","5","Matthew","11","Shared","0.65,0.2","13","0.65","trustrating_stim/white_00109_931230_fa_edt.bmp","7.5","66","13"
"html-keyboard-response","174","553895","0.0-19.0-2.12","641359eb0e2dc93999637e35","bdp_trlrn","Sat Apr 08 2023 09:43:46 GMT-0700 (Pacific Daylight Time)","912944","Untrustworthy,Trustworthy","","null","","","","decisionFB","","<div class='trialDiv'><img src='trustrating_stim/white_00109_931230_fa_edt.bmp'><br><font class='baseline'><strong>Matthew</strong><p>Choose number of points to send.</font><div class='respPicDiv'><img src='img/responseButtonOffersNo0L2.png' class='respPic'></div></div>","null","5","Matthew","11","Shared","0.65,0.2","13","0.65","trustrating_stim/white_00109_931230_fa_edt.bmp","7.5","64","13"
"html-keyboard-response","175","554898","0.0-19.0-3.12","641359eb0e2dc93999637e35","bdp_trlrn","Sat Apr 08 2023 09:43:46 GMT-0700 (Pacific Daylight Time)","912944","Untrustworthy,Trustworthy","","null","","","","feedback","","<div class='trialDiv'><img src='trustrating_stim/white_00109_931230_fa_edt.bmp'><br><font class='baseline'><strong>Matthew</strong><p>Received: <strong>8</strong></font> &nbsp; &nbsp; &nbsp; &nbsp; &nbsp; &nbsp;<font class='posOutcome'>Shared back: <strong>4</strong></font></font><div class='respPicDiv'><img src='img/responseButtonOffersNo0_wht.png' class='respPic'></div></div>","null","5","Matthew","11","Shared","0.65,0.2","13","0.65","trustrating_stim/white_00109_931230_fa_edt.bmp","7.5","68","13"
"html-keyboard-response","176","555925","0.0-19.0-1.13","641359eb0e2dc93999637e35","bdp_trlrn","Sat Apr 08 2023 09:43:46 GMT-0700 (Pacific Daylight Time)","912944","Untrustworthy,Trustworthy","","1024","","","","decision","","<div class='trialDiv'><img src='trustrating_stim/white_00340_940422_fa_edt.bmp'><br><font class='baseline'><strong>Ryan</strong><p>Choose number of points to send.</font><div class='respPicDiv'><img src='img/responseButtonOffersNo0L.png' class='respPic'></div></div>","5","5","Ryan","1","Kept","0.35,0.8","12","0.35","trustrating_stim/white_00340_940422_fa_edt.bmp","2.5","73","14"
"html-keyboard-response","177","556177","0.0-19.0-2.13","641359eb0e2dc93999637e35","bdp_trlrn","Sat Apr 08 2023 09:43:46 GMT-0700 (Pacific Daylight Time)","912944","Untrustworthy,Trustworthy","","null","","","","decisionFB","","<div class='trialDiv'><img src='trustrating_stim/white_00340_940422_fa_edt.bmp'><br><font class='baseline'><strong>Ryan</strong><p>Choose number of points to send.</font><div class='respPicDiv'><img src='img/responseButtonOffersNo0L5.png' class='respPic'></div></div>","null","5","Ryan","1","Kept","0.35,0.8","12","0.35","trustrating_stim/white_00340_940422_fa_edt.bmp","2.5","68","14"
"html-keyboard-response","178","557179","0.0-19.0-3.13","641359eb0e2dc93999637e35","bdp_trlrn","Sat Apr 08 2023 09:43:46 GMT-0700 (Pacific Daylight Time)","912944","Untrustworthy,Trustworthy","","null","","","","feedback","","<div class='trialDiv'><img src='trustrating_stim/white_00340_940422_fa_edt.bmp'><br><font class='baseline'><strong>Ryan</strong><p>Received: <strong>20</strong></font> &nbsp; &nbsp; &nbsp; &nbsp; &nbsp; &nbsp;<font class='negOutcome'>Shared back: <strong>0</strong></font></font><div class='respPicDiv'><img src='img/responseButtonOffersNo0_wht.png' class='respPic'></div></div>","null","5","Ryan","1","Kept","0.35,0.8","12","0.35","trustrating_stim/white_00340_940422_fa_edt.bmp","2.5","68","14"
"html-keyboard-response","179","558651","0.0-19.0-1.14","641359eb0e2dc93999637e35","bdp_trlrn","Sat Apr 08 2023 09:43:46 GMT-0700 (Pacific Daylight Time)","912944","Untrustworthy,Trustworthy","","1470","","","","decision","","<div class='trialDiv'><img src='trustrating_stim/white_mw033.bmp'><br><font class='baseline'><strong>Joseph</strong><p>Choose number of points to send.</font><div class='respPicDiv'><img src='img/responseButtonOffersNo0L.png' class='respPic'></div></div>","5","5","Joseph","6","Shared","0.8,0.2","14","0.8","trustrating_stim/white_mw033.bmp","6","73","15"
"html-keyboard-response","180","558903","0.0-19.0-2.14","641359eb0e2dc93999637e35","bdp_trlrn","Sat Apr 08 2023 09:43:46 GMT-0700 (Pacific Daylight Time)","912944","Untrustworthy,Trustworthy","","null","","","","decisionFB","","<div class='trialDiv'><img src='trustrating_stim/white_mw033.bmp'><br><font class='baseline'><strong>Joseph</strong><p>Choose number of points to send.</font><div class='respPicDiv'><img src='img/responseButtonOffersNo0L5.png' class='respPic'></div></div>","null","5","Joseph","6","Shared","0.8,0.2","14","0.8","trustrating_stim/white_mw033.bmp","6","68","15"
"html-keyboard-response","181","559906","0.0-19.0-3.14","641359eb0e2dc93999637e35","bdp_trlrn","Sat Apr 08 2023 09:43:46 GMT-0700 (Pacific Daylight Time)","912944","Untrustworthy,Trustworthy","","null","","","","feedback","","<div class='trialDiv'><img src='trustrating_stim/white_mw033.bmp'><br><font class='baseline'><strong>Joseph</strong><p>Received: <strong>20</strong></font> &nbsp; &nbsp; &nbsp; &nbsp; &nbsp; &nbsp;<font class='posOutcome'>Shared back: <strong>10</strong></font></font><div class='respPicDiv'><img src='img/responseButtonOffersNo0_wht.png' class='respPic'></div></div>","null","5","Joseph","6","Shared","0.8,0.2","14","0.8","trustrating_stim/white_mw033.bmp","6","78","15"
"html-keyboard-response","182","561274","0.0-19.0-1.15","641359eb0e2dc93999637e35","bdp_trlrn","Sat Apr 08 2023 09:43:46 GMT-0700 (Pacific Daylight Time)","912944","Untrustworthy,Trustworthy","","1365","","","","decision","","<div class='trialDiv'><img src='trustrating_stim/white_00109_931230_fa_edt.bmp'><br><font class='baseline'><strong>Matthew</strong><p>Choose number of points to send.</font><div class='respPicDiv'><img src='img/responseButtonOffersNo0L.png' class='respPic'></div></div>","4","6","Matthew","11","Kept","0.65,0.2","13","0.65","trustrating_stim/white_00109_931230_fa_edt.bmp","7.5","83","16"
"html-keyboard-response","183","561526","0.0-19.0-2.15","641359eb0e2dc93999637e35","bdp_trlrn","Sat Apr 08 2023 09:43:46 GMT-0700 (Pacific Daylight Time)","912944","Untrustworthy,Trustworthy","","null","","","","decisionFB","","<div class='trialDiv'><img src='trustrating_stim/white_00109_931230_fa_edt.bmp'><br><font class='baseline'><strong>Matthew</strong><p>Choose number of points to send.</font><div class='respPicDiv'><img src='img/responseButtonOffersNo0L4.png' class='respPic'></div></div>","null","6","Matthew","11","Kept","0.65,0.2","13","0.65","trustrating_stim/white_00109_931230_fa_edt.bmp","7.5","79","16"
"html-keyboard-response","184","562529","0.0-19.0-3.15","641359eb0e2dc93999637e35","bdp_trlrn","Sat Apr 08 2023 09:43:46 GMT-0700 (Pacific Daylight Time)","912944","Untrustworthy,Trustworthy","","null","","","","feedback","","<div class='trialDiv'><img src='trustrating_stim/white_00109_931230_fa_edt.bmp'><br><font class='baseline'><strong>Matthew</strong><p>Received: <strong>16</strong></font> &nbsp; &nbsp; &nbsp; &nbsp; &nbsp; &nbsp;<font class='negOutcome'>Shared back: <strong>0</strong></font></font><div class='respPicDiv'><img src='img/responseButtonOffersNo0_wht.png' class='respPic'></div></div>","null","6","Matthew","11","Kept","0.65,0.2","13","0.65","trustrating_stim/white_00109_931230_fa_edt.bmp","7.5","79","16"
"html-keyboard-response","185","563460","0.0-19.0-1.16","641359eb0e2dc93999637e35","bdp_trlrn","Sat Apr 08 2023 09:43:46 GMT-0700 (Pacific Daylight Time)","912944","Untrustworthy,Trustworthy","","928","","","","decision","","<div class='trialDiv'><img src='trustrating_stim/white_00340_940422_fa_edt.bmp'><br><font class='baseline'><strong>Ryan</strong><p>Choose number of points to send.</font><div class='respPicDiv'><img src='img/responseButtonOffersNo0L.png' class='respPic'></div></div>","5","6","Ryan","1","Kept","0.35,0.8","12","0.35","trustrating_stim/white_00340_940422_fa_edt.bmp","2.5","84","17"
"html-keyboard-response","186","563712","0.0-19.0-2.16","641359eb0e2dc93999637e35","bdp_trlrn","Sat Apr 08 2023 09:43:46 GMT-0700 (Pacific Daylight Time)","912944","Untrustworthy,Trustworthy","","null","","","","decisionFB","","<div class='trialDiv'><img src='trustrating_stim/white_00340_940422_fa_edt.bmp'><br><font class='baseline'><strong>Ryan</strong><p>Choose number of points to send.</font><div class='respPicDiv'><img src='img/responseButtonOffersNo0L5.png' class='respPic'></div></div>","null","6","Ryan","1","Kept","0.35,0.8","12","0.35","trustrating_stim/white_00340_940422_fa_edt.bmp","2.5","79","17"
"html-keyboard-response","187","564728","0.0-19.0-3.16","641359eb0e2dc93999637e35","bdp_trlrn","Sat Apr 08 2023 09:43:46 GMT-0700 (Pacific Daylight Time)","912944","Untrustworthy,Trustworthy","","null","","","","feedback","","<div class='trialDiv'><img src='trustrating_stim/white_00340_940422_fa_edt.bmp'><br><font class='baseline'><strong>Ryan</strong><p>Received: <strong>20</strong></font> &nbsp; &nbsp; &nbsp; &nbsp; &nbsp; &nbsp;<font class='negOutcome'>Shared back: <strong>0</strong></font></font><div class='respPicDiv'><img src='img/responseButtonOffersNo0_wht.png' class='respPic'></div></div>","null","6","Ryan","1","Kept","0.35,0.8","12","0.35","trustrating_stim/white_00340_940422_fa_edt.bmp","2.5","79","17"
"html-keyboard-response","188","566119","0.0-19.0-1.17","641359eb0e2dc93999637e35","bdp_trlrn","Sat Apr 08 2023 09:43:46 GMT-0700 (Pacific Daylight Time)","912944","Untrustworthy,Trustworthy","","1388","","","","decision","","<div class='trialDiv'><img src='trustrating_stim/white_mw033.bmp'><br><font class='baseline'><strong>Joseph</strong><p>Choose number of points to send.</font><div class='respPicDiv'><img src='img/responseButtonOffersNo0L.png' class='respPic'></div></div>","5","6","Joseph","6","Shared","0.8,0.2","14","0.8","trustrating_stim/white_mw033.bmp","6","84","18"
"html-keyboard-response","189","566371","0.0-19.0-2.17","641359eb0e2dc93999637e35","bdp_trlrn","Sat Apr 08 2023 09:43:46 GMT-0700 (Pacific Daylight Time)","912944","Untrustworthy,Trustworthy","","null","","","","decisionFB","","<div class='trialDiv'><img src='trustrating_stim/white_mw033.bmp'><br><font class='baseline'><strong>Joseph</strong><p>Choose number of points to send.</font><div class='respPicDiv'><img src='img/responseButtonOffersNo0L5.png' class='respPic'></div></div>","null","6","Joseph","6","Shared","0.8,0.2","14","0.8","trustrating_stim/white_mw033.bmp","6","79","18"
"html-keyboard-response","190","567374","0.0-19.0-3.17","641359eb0e2dc93999637e35","bdp_trlrn","Sat Apr 08 2023 09:43:46 GMT-0700 (Pacific Daylight Time)","912944","Untrustworthy,Trustworthy","","null","","","","feedback","","<div class='trialDiv'><img src='trustrating_stim/white_mw033.bmp'><br><font class='baseline'><strong>Joseph</strong><p>Received: <strong>20</strong></font> &nbsp; &nbsp; &nbsp; &nbsp; &nbsp; &nbsp;<font class='posOutcome'>Shared back: <strong>10</strong></font></font><div class='respPicDiv'><img src='img/responseButtonOffersNo0_wht.png' class='respPic'></div></div>","null","6","Joseph","6","Shared","0.8,0.2","14","0.8","trustrating_stim/white_mw033.bmp","6","89","18"
"html-keyboard-response","191","568874","0.0-19.0-1.18","641359eb0e2dc93999637e35","bdp_trlrn","Sat Apr 08 2023 09:43:46 GMT-0700 (Pacific Daylight Time)","912944","Untrustworthy,Trustworthy","","1499","","","","decision","","<div class='trialDiv'><img src='trustrating_stim/white_00340_940422_fa_edt.bmp'><br><font class='baseline'><strong>Ryan</strong><p>Choose number of points to send.</font><div class='respPicDiv'><img src='img/responseButtonOffersNo0L.png' class='respPic'></div></div>","4","7","Ryan","1","Kept","0.35,0.8","12","0.35","trustrating_stim/white_00340_940422_fa_edt.bmp","2.5","94","19"
"html-keyboard-response","192","569126","0.0-19.0-2.18","641359eb0e2dc93999637e35","bdp_trlrn","Sat Apr 08 2023 09:43:46 GMT-0700 (Pacific Daylight Time)","912944","Untrustworthy,Trustworthy","","null","","","","decisionFB","","<div class='trialDiv'><img src='trustrating_stim/white_00340_940422_fa_edt.bmp'><br><font class='baseline'><strong>Ryan</strong><p>Choose number of points to send.</font><div class='respPicDiv'><img src='img/responseButtonOffersNo0L4.png' class='respPic'></div></div>","null","7","Ryan","1","Kept","0.35,0.8","12","0.35","trustrating_stim/white_00340_940422_fa_edt.bmp","2.5","90","19"
"html-keyboard-response","193","570129","0.0-19.0-3.18","641359eb0e2dc93999637e35","bdp_trlrn","Sat Apr 08 2023 09:43:46 GMT-0700 (Pacific Daylight Time)","912944","Untrustworthy,Trustworthy","","null","","","","feedback","","<div class='trialDiv'><img src='trustrating_stim/white_00340_940422_fa_edt.bmp'><br><font class='baseline'><strong>Ryan</strong><p>Received: <strong>16</strong></font> &nbsp; &nbsp; &nbsp; &nbsp; &nbsp; &nbsp;<font class='negOutcome'>Shared back: <strong>0</strong></font></font><div class='respPicDiv'><img src='img/responseButtonOffersNo0_wht.png' class='respPic'></div></div>","null","7","Ryan","1","Kept","0.35,0.8","12","0.35","trustrating_stim/white_00340_940422_fa_edt.bmp","2.5","90","19"
"html-keyboard-response","194","571568","0.0-19.0-1.19","641359eb0e2dc93999637e35","bdp_trlrn","Sat Apr 08 2023 09:43:46 GMT-0700 (Pacific Daylight Time)","912944","Untrustworthy,Trustworthy","","1436","","","","decision","","<div class='trialDiv'><img src='trustrating_stim/white_00109_931230_fa_edt.bmp'><br><font class='baseline'><strong>Matthew</strong><p>Choose number of points to send.</font><div class='respPicDiv'><img src='img/responseButtonOffersNo0L.png' class='respPic'></div></div>","2","7","Matthew","11","Kept","0.65,0.2","13","0.65","trustrating_stim/white_00109_931230_fa_edt.bmp","7.5","95","20"
"html-keyboard-response","195","571821","0.0-19.0-2.19","641359eb0e2dc93999637e35","bdp_trlrn","Sat Apr 08 2023 09:43:46 GMT-0700 (Pacific Daylight Time)","912944","Untrustworthy,Trustworthy","","null","","","","decisionFB","","<div class='trialDiv'><img src='trustrating_stim/white_00109_931230_fa_edt.bmp'><br><font class='baseline'><strong>Matthew</strong><p>Choose number of points to send.</font><div class='respPicDiv'><img src='img/responseButtonOffersNo0L2.png' class='respPic'></div></div>","null","7","Matthew","11","Kept","0.65,0.2","13","0.65","trustrating_stim/white_00109_931230_fa_edt.bmp","7.5","93","20"
"html-keyboard-response","196","572823","0.0-19.0-3.19","641359eb0e2dc93999637e35","bdp_trlrn","Sat Apr 08 2023 09:43:46 GMT-0700 (Pacific Daylight Time)","912944","Untrustworthy,Trustworthy","","null","","","","feedback","","<div class='trialDiv'><img src='trustrating_stim/white_00109_931230_fa_edt.bmp'><br><font class='baseline'><strong>Matthew</strong><p>Received: <strong>8</strong></font> &nbsp; &nbsp; &nbsp; &nbsp; &nbsp; &nbsp;<font class='negOutcome'>Shared back: <strong>0</strong></font></font><div class='respPicDiv'><img src='img/responseButtonOffersNo0_wht.png' class='respPic'></div></div>","null","7","Matthew","11","Kept","0.65,0.2","13","0.65","trustrating_stim/white_00109_931230_fa_edt.bmp","7.5","93","20"
"html-keyboard-response","197","574169","0.0-19.0-1.20","641359eb0e2dc93999637e35","bdp_trlrn","Sat Apr 08 2023 09:43:46 GMT-0700 (Pacific Daylight Time)","912944","Untrustworthy,Trustworthy","","1344","","","","decision","","<div class='trialDiv'><img src='trustrating_stim/white_mw033.bmp'><br><font class='baseline'><strong>Joseph</strong><p>Choose number of points to send.</font><div class='respPicDiv'><img src='img/responseButtonOffersNo0L.png' class='respPic'></div></div>","5","7","Joseph","6","Shared","0.8,0.2","14","0.8","trustrating_stim/white_mw033.bmp","6","98","21"
"html-keyboard-response","198","574423","0.0-19.0-2.20","641359eb0e2dc93999637e35","bdp_trlrn","Sat Apr 08 2023 09:43:46 GMT-0700 (Pacific Daylight Time)","912944","Untrustworthy,Trustworthy","","null","","","","decisionFB","","<div class='trialDiv'><img src='trustrating_stim/white_mw033.bmp'><br><font class='baseline'><strong>Joseph</strong><p>Choose number of points to send.</font><div class='respPicDiv'><img src='img/responseButtonOffersNo0L5.png' class='respPic'></div></div>","null","7","Joseph","6","Shared","0.8,0.2","14","0.8","trustrating_stim/white_mw033.bmp","6","93","21"
"html-keyboard-response","199","575425","0.0-19.0-3.20","641359eb0e2dc93999637e35","bdp_trlrn","Sat Apr 08 2023 09:43:46 GMT-0700 (Pacific Daylight Time)","912944","Untrustworthy,Trustworthy","","null","","","","feedback","","<div class='trialDiv'><img src='trustrating_stim/white_mw033.bmp'><br><font class='baseline'><strong>Joseph</strong><p>Received: <strong>20</strong></font> &nbsp; &nbsp; &nbsp; &nbsp; &nbsp; &nbsp;<font class='posOutcome'>Shared back: <strong>10</strong></font></font><div class='respPicDiv'><img src='img/responseButtonOffersNo0_wht.png' class='respPic'></div></div>","null","7","Joseph","6","Shared","0.8,0.2","14","0.8","trustrating_stim/white_mw033.bmp","6","103","21"
"html-keyboard-response","200","577045","0.0-19.0-1.21","641359eb0e2dc93999637e35","bdp_trlrn","Sat Apr 08 2023 09:43:46 GMT-0700 (Pacific Daylight Time)","912944","Untrustworthy,Trustworthy","","1618","","","","decision","","<div class='trialDiv'><img src='trustrating_stim/white_00340_940422_fa_edt.bmp'><br><font class='baseline'><strong>Ryan</strong><p>Choose number of points to send.</font><div class='respPicDiv'><img src='img/responseButtonOffersNo0L.png' class='respPic'></div></div>","4","8","Ryan","1","Shared","0.35,0.8","12","0.35","trustrating_stim/white_00340_940422_fa_edt.bmp","2.5","108","22"
"html-keyboard-response","201","577298","0.0-19.0-2.21","641359eb0e2dc93999637e35","bdp_trlrn","Sat Apr 08 2023 09:43:46 GMT-0700 (Pacific Daylight Time)","912944","Untrustworthy,Trustworthy","","null","","","","decisionFB","","<div class='trialDiv'><img src='trustrating_stim/white_00340_940422_fa_edt.bmp'><br><font class='baseline'><strong>Ryan</strong><p>Choose number of points to send.</font><div class='respPicDiv'><img src='img/responseButtonOffersNo0L4.png' class='respPic'></div></div>","null","8","Ryan","1","Shared","0.35,0.8","12","0.35","trustrating_stim/white_00340_940422_fa_edt.bmp","2.5","104","22"
"html-keyboard-response","202","578300","0.0-19.0-3.21","641359eb0e2dc93999637e35","bdp_trlrn","Sat Apr 08 2023 09:43:46 GMT-0700 (Pacific Daylight Time)","912944","Untrustworthy,Trustworthy","","null","","","","feedback","","<div class='trialDiv'><img src='trustrating_stim/white_00340_940422_fa_edt.bmp'><br><font class='baseline'><strong>Ryan</strong><p>Received: <strong>16</strong></font> &nbsp; &nbsp; &nbsp; &nbsp; &nbsp; &nbsp;<font class='posOutcome'>Shared back: <strong>8</strong></font></font><div class='respPicDiv'><img src='img/responseButtonOffersNo0_wht.png' class='respPic'></div></div>","null","8","Ryan","1","Shared","0.35,0.8","12","0.35","trustrating_stim/white_00340_940422_fa_edt.bmp","2.5","112","22"
"html-keyboard-response","203","579283","0.0-19.0-1.22","641359eb0e2dc93999637e35","bdp_trlrn","Sat Apr 08 2023 09:43:46 GMT-0700 (Pacific Daylight Time)","912944","Untrustworthy,Trustworthy","","980","","","","decision","","<div class='trialDiv'><img src='trustrating_stim/white_mw033.bmp'><br><font class='baseline'><strong>Joseph</strong><p>Choose number of points to send.</font><div class='respPicDiv'><img src='img/responseButtonOffersNo0L.png' class='respPic'></div></div>","5","8","Joseph","6","Shared","0.8,0.2","14","0.8","trustrating_stim/white_mw033.bmp","6","117","23"
"html-keyboard-response","204","579535","0.0-19.0-2.22","641359eb0e2dc93999637e35","bdp_trlrn","Sat Apr 08 2023 09:43:46 GMT-0700 (Pacific Daylight Time)","912944","Untrustworthy,Trustworthy","","null","","","","decisionFB","","<div class='trialDiv'><img src='trustrating_stim/white_mw033.bmp'><br><font class='baseline'><strong>Joseph</strong><p>Choose number of points to send.</font><div class='respPicDiv'><img src='img/responseButtonOffersNo0L5.png' class='respPic'></div></div>","null","8","Joseph","6","Shared","0.8,0.2","14","0.8","trustrating_stim/white_mw033.bmp","6","112","23"
"html-keyboard-response","205","580539","0.0-19.0-3.22","641359eb0e2dc93999637e35","bdp_trlrn","Sat Apr 08 2023 09:43:46 GMT-0700 (Pacific Daylight Time)","912944","Untrustworthy,Trustworthy","","null","","","","feedback","","<div class='trialDiv'><img src='trustrating_stim/white_mw033.bmp'><br><font class='baseline'><strong>Joseph</strong><p>Received: <strong>20</strong></font> &nbsp; &nbsp; &nbsp; &nbsp; &nbsp; &nbsp;<font class='posOutcome'>Shared back: <strong>10</strong></font></font><div class='respPicDiv'><img src='img/responseButtonOffersNo0_wht.png' class='respPic'></div></div>","null","8","Joseph","6","Shared","0.8,0.2","14","0.8","trustrating_stim/white_mw033.bmp","6","122","23"
"html-keyboard-response","206","582920","0.0-19.0-1.23","641359eb0e2dc93999637e35","bdp_trlrn","Sat Apr 08 2023 09:43:46 GMT-0700 (Pacific Daylight Time)","912944","Untrustworthy,Trustworthy","","2378","","","","decision","","<div class='trialDiv'><img src='trustrating_stim/white_00109_931230_fa_edt.bmp'><br><font class='baseline'><strong>Matthew</strong><p>Choose number of points to send.</font><div class='respPicDiv'><img src='img/responseButtonOffersNo0L.png' class='respPic'></div></div>","1","8","Matthew","11","Kept","0.65,0.2","13","0.65","trustrating_stim/white_00109_931230_fa_edt.bmp","7.5","127","24"
"html-keyboard-response","207","583172","0.0-19.0-2.23","641359eb0e2dc93999637e35","bdp_trlrn","Sat Apr 08 2023 09:43:46 GMT-0700 (Pacific Daylight Time)","912944","Untrustworthy,Trustworthy","","null","","","","decisionFB","","<div class='trialDiv'><img src='trustrating_stim/white_00109_931230_fa_edt.bmp'><br><font class='baseline'><strong>Matthew</strong><p>Choose number of points to send.</font><div class='respPicDiv'><img src='img/responseButtonOffersNo0L1.png' class='respPic'></div></div>","null","8","Matthew","11","Kept","0.65,0.2","13","0.65","trustrating_stim/white_00109_931230_fa_edt.bmp","7.5","126","24"
"html-keyboard-response","208","584175","0.0-19.0-3.23","641359eb0e2dc93999637e35","bdp_trlrn","Sat Apr 08 2023 09:43:46 GMT-0700 (Pacific Daylight Time)","912944","Untrustworthy,Trustworthy","","null","","","","feedback","","<div class='trialDiv'><img src='trustrating_stim/white_00109_931230_fa_edt.bmp'><br><font class='baseline'><strong>Matthew</strong><p>Received: <strong>4</strong></font> &nbsp; &nbsp; &nbsp; &nbsp; &nbsp; &nbsp;<font class='negOutcome'>Shared back: <strong>0</strong></font></font><div class='respPicDiv'><img src='img/responseButtonOffersNo0_wht.png' class='respPic'></div></div>","null","8","Matthew","11","Kept","0.65,0.2","13","0.65","trustrating_stim/white_00109_931230_fa_edt.bmp","7.5","126","24"
"html-keyboard-response","209","586235","0.0-19.0-1.24","641359eb0e2dc93999637e35","bdp_trlrn","Sat Apr 08 2023 09:43:46 GMT-0700 (Pacific Daylight Time)","912944","Untrustworthy,Trustworthy","","2059","","","","decision","","<div class='trialDiv'><img src='trustrating_stim/white_00340_940422_fa_edt.bmp'><br><font class='baseline'><strong>Ryan</strong><p>Choose number of points to send.</font><div class='respPicDiv'><img src='img/responseButtonOffersNo0L.png' class='respPic'></div></div>","4","9","Ryan","1","Kept","0.35,0.8","12","0.35","trustrating_stim/white_00340_940422_fa_edt.bmp","2.5","131","25"
"html-keyboard-response","210","586487","0.0-19.0-2.24","641359eb0e2dc93999637e35","bdp_trlrn","Sat Apr 08 2023 09:43:46 GMT-0700 (Pacific Daylight Time)","912944","Untrustworthy,Trustworthy","","null","","","","decisionFB","","<div class='trialDiv'><img src='trustrating_stim/white_00340_940422_fa_edt.bmp'><br><font class='baseline'><strong>Ryan</strong><p>Choose number of points to send.</font><div class='respPicDiv'><img src='img/responseButtonOffersNo0L4.png' class='respPic'></div></div>","null","9","Ryan","1","Kept","0.35,0.8","12","0.35","trustrating_stim/white_00340_940422_fa_edt.bmp","2.5","127","25"
"html-keyboard-response","211","587491","0.0-19.0-3.24","641359eb0e2dc93999637e35","bdp_trlrn","Sat Apr 08 2023 09:43:46 GMT-0700 (Pacific Daylight Time)","912944","Untrustworthy,Trustworthy","","null","","","","feedback","","<div class='trialDiv'><img src='trustrating_stim/white_00340_940422_fa_edt.bmp'><br><font class='baseline'><strong>Ryan</strong><p>Received: <strong>16</strong></font> &nbsp; &nbsp; &nbsp; &nbsp; &nbsp; &nbsp;<font class='negOutcome'>Shared back: <strong>0</strong></font></font><div class='respPicDiv'><img src='img/responseButtonOffersNo0_wht.png' class='respPic'></div></div>","null","9","Ryan","1","Kept","0.35,0.8","12","0.35","trustrating_stim/white_00340_940422_fa_edt.bmp","2.5","127","25"
"html-keyboard-response","212","587926","0.0-19.0-1.25","641359eb0e2dc93999637e35","bdp_trlrn","Sat Apr 08 2023 09:43:46 GMT-0700 (Pacific Daylight Time)","912944","Untrustworthy,Trustworthy","","433","","","","decision","","<div class='trialDiv'><img src='trustrating_stim/white_00109_931230_fa_edt.bmp'><br><font class='baseline'><strong>Matthew</strong><p>Choose number of points to send.</font><div class='respPicDiv'><img src='img/responseButtonOffersNo0L.png' class='respPic'></div></div>","5","9","Matthew","11","Shared","0.65,0.2","13","0.65","trustrating_stim/white_00109_931230_fa_edt.bmp","7.5","132","26"
"html-keyboard-response","213","588178","0.0-19.0-2.25","641359eb0e2dc93999637e35","bdp_trlrn","Sat Apr 08 2023 09:43:46 GMT-0700 (Pacific Daylight Time)","912944","Untrustworthy,Trustworthy","","null","","","","decisionFB","","<div class='trialDiv'><img src='trustrating_stim/white_00109_931230_fa_edt.bmp'><br><font class='baseline'><strong>Matthew</strong><p>Choose number of points to send.</font><div class='respPicDiv'><img src='img/responseButtonOffersNo0L5.png' class='respPic'></div></div>","null","9","Matthew","11","Shared","0.65,0.2","13","0.65","trustrating_stim/white_00109_931230_fa_edt.bmp","7.5","127","26"
"html-keyboard-response","214","589182","0.0-19.0-3.25","641359eb0e2dc93999637e35","bdp_trlrn","Sat Apr 08 2023 09:43:46 GMT-0700 (Pacific Daylight Time)","912944","Untrustworthy,Trustworthy","","null","","","","feedback","","<div class='trialDiv'><img src='trustrating_stim/white_00109_931230_fa_edt.bmp'><br><font class='baseline'><strong>Matthew</strong><p>Received: <strong>20</strong></font> &nbsp; &nbsp; &nbsp; &nbsp; &nbsp; &nbsp;<font class='posOutcome'>Shared back: <strong>10</strong></font></font><div class='respPicDiv'><img src='img/responseButtonOffersNo0_wht.png' class='respPic'></div></div>","null","9","Matthew","11","Shared","0.65,0.2","13","0.65","trustrating_stim/white_00109_931230_fa_edt.bmp","7.5","137","26"
"html-keyboard-response","215","589799","0.0-19.0-1.26","641359eb0e2dc93999637e35","bdp_trlrn","Sat Apr 08 2023 09:43:46 GMT-0700 (Pacific Daylight Time)","912944","Untrustworthy,Trustworthy","","616","","","","decision","","<div class='trialDiv'><img src='trustrating_stim/white_mw033.bmp'><br><font class='baseline'><strong>Joseph</strong><p>Choose number of points to send.</font><div class='respPicDiv'><img src='img/responseButtonOffersNo0L.png' class='respPic'></div></div>","5","9","Joseph","6","Shared","0.8,0.2","14","0.8","trustrating_stim/white_mw033.bmp","6","142","27"
"html-keyboard-response","216","590051","0.0-19.0-2.26","641359eb0e2dc93999637e35","bdp_trlrn","Sat Apr 08 2023 09:43:46 GMT-0700 (Pacific Daylight Time)","912944","Untrustworthy,Trustworthy","","null","","","","decisionFB","","<div class='trialDiv'><img src='trustrating_stim/white_mw033.bmp'><br><font class='baseline'><strong>Joseph</strong><p>Choose number of points to send.</font><div class='respPicDiv'><img src='img/responseButtonOffersNo0L5.png' class='respPic'></div></div>","null","9","Joseph","6","Shared","0.8,0.2","14","0.8","trustrating_stim/white_mw033.bmp","6","137","27"
"html-keyboard-response","217","591054","0.0-19.0-3.26","641359eb0e2dc93999637e35","bdp_trlrn","Sat Apr 08 2023 09:43:46 GMT-0700 (Pacific Daylight Time)","912944","Untrustworthy,Trustworthy","","null","","","","feedback","","<div class='trialDiv'><img src='trustrating_stim/white_mw033.bmp'><br><font class='baseline'><strong>Joseph</strong><p>Received: <strong>20</strong></font> &nbsp; &nbsp; &nbsp; &nbsp; &nbsp; &nbsp;<font class='posOutcome'>Shared back: <strong>10</strong></font></font><div class='respPicDiv'><img src='img/responseButtonOffersNo0_wht.png' class='respPic'></div></div>","null","9","Joseph","6","Shared","0.8,0.2","14","0.8","trustrating_stim/white_mw033.bmp","6","147","27"
"html-keyboard-response","218","593327","0.0-19.0-1.27","641359eb0e2dc93999637e35","bdp_trlrn","Sat Apr 08 2023 09:43:46 GMT-0700 (Pacific Daylight Time)","912944","Untrustworthy,Trustworthy","","2270","","","","decision","","<div class='trialDiv'><img src='trustrating_stim/white_00109_931230_fa_edt.bmp'><br><font class='baseline'><strong>Matthew</strong><p>Choose number of points to send.</font><div class='respPicDiv'><img src='img/responseButtonOffersNo0L.png' class='respPic'></div></div>","4","10","Matthew","11","Kept","0.65,0.2","13","0.65","trustrating_stim/white_00109_931230_fa_edt.bmp","7.5","152","28"
"html-keyboard-response","219","593580","0.0-19.0-2.27","641359eb0e2dc93999637e35","bdp_trlrn","Sat Apr 08 2023 09:43:46 GMT-0700 (Pacific Daylight Time)","912944","Untrustworthy,Trustworthy","","null","","","","decisionFB","","<div class='trialDiv'><img src='trustrating_stim/white_00109_931230_fa_edt.bmp'><br><font class='baseline'><strong>Matthew</strong><p>Choose number of points to send.</font><div class='respPicDiv'><img src='img/responseButtonOffersNo0L4.png' class='respPic'></div></div>","null","10","Matthew","11","Kept","0.65,0.2","13","0.65","trustrating_stim/white_00109_931230_fa_edt.bmp","7.5","148","28"
