"event","trial","time","trialtype","subject_id","task","startTime","totalTime","labels","trial_type","trial_index","time_elapsed","internal_node_id","numBlurs","view_history","rt","success","stimulus","key_press","aground","name","faceID","outcome","agenttype","agentswpt","agentcurrpshare","face","avgRating","point_total","round"
"focus","0","0","focusevent","63f3a7e45f338798fd025d99","bdp_trlrn","Wed Mar 15 2023 14:13:12 GMT-0500 (Central Daylight Time)","1025642","Trustworthy,Untrustworthy","","","","","","","","","","","","","","","","","","","","",""
"","","","","63f3a7e45f338798fd025d99","bdp_trlrn","Wed Mar 15 2023 14:13:12 GMT-0500 (Central Daylight Time)","1025642","Trustworthy,Untrustworthy","pavlovia","0","6","0.0-0.0","","","","","","","","","","","","","","","","",""
"blur","1","12007","blurevent","63f3a7e45f338798fd025d99","bdp_trlrn","Wed Mar 15 2023 14:13:12 GMT-0500 (Central Daylight Time)","1025642","Trustworthy,Untrustworthy","","","","","1","","","","","","","","","","","","","","","",""
"focus","1","14139","focusevent","63f3a7e45f338798fd025d99","bdp_trlrn","Wed Mar 15 2023 14:13:12 GMT-0500 (Central Daylight Time)","1025642","Trustworthy,Untrustworthy","","","","","","","","","","","","","","","","","","","","",""
"blur","1","16920","blurevent","63f3a7e45f338798fd025d99","bdp_trlrn","Wed Mar 15 2023 14:13:12 GMT-0500 (Central Daylight Time)","1025642","Trustworthy,Untrustworthy","","","","","","","","","","","","","","","","","","","","",""
"focus","1","18653","focusevent","63f3a7e45f338798fd025d99","bdp_trlrn","Wed Mar 15 2023 14:13:12 GMT-0500 (Central Daylight Time)","1025642","Trustworthy,Untrustworthy","","","","","","","","","","","","","","","","","","","","",""
"blur","1","19731","blurevent","63f3a7e45f338798fd025d99","bdp_trlrn","Wed Mar 15 2023 14:13:12 GMT-0500 (Central Daylight Time)","1025642","Trustworthy,Untrustworthy","","","","","","","","","","","","","","","","","","","","",""
"focus","1","20243","focusevent","63f3a7e45f338798fd025d99","bdp_trlrn","Wed Mar 15 2023 14:13:12 GMT-0500 (Central Daylight Time)","1025642","Trustworthy,Untrustworthy","","","","","","","","","","","","","","","","","","","","",""
"","","","","63f3a7e45f338798fd025d99","bdp_trlrn","Wed Mar 15 2023 14:13:12 GMT-0500 (Central Daylight Time)","1025642","Trustworthy,Untrustworthy","instructions","1","20763","0.0-1.0","","[{""page_index"":0,""viewing_time"":20756}]","20756","","","","","","","","","","","","","",""
"blur","2","23211","blurevent","63f3a7e45f338798fd025d99","bdp_trlrn","Wed Mar 15 2023 14:13:12 GMT-0500 (Central Daylight Time)","1025642","Trustworthy,Untrustworthy","","","","","2","","","","","","","","","","","","","","","",""
"focus","2","23383","focusevent","63f3a7e45f338798fd025d99","bdp_trlrn","Wed Mar 15 2023 14:13:12 GMT-0500 (Central Daylight Time)","1025642","Trustworthy,Untrustworthy","","","","","","","","","","","","","","","","","","","","",""
"fullscreenexit","2","24386","fullscreenexit","63f3a7e45f338798fd025d99","bdp_trlrn","Wed Mar 15 2023 14:13:12 GMT-0500 (Central Daylight Time)","1025642","Trustworthy,Untrustworthy","","","","","","","","","","","","","","","","","","","","",""
"","","","","63f3a7e45f338798fd025d99","bdp_trlrn","Wed Mar 15 2023 14:13:12 GMT-0500 (Central Daylight Time)","1025642","Trustworthy,Untrustworthy","fullscreen","2","25203","0.0-2.0","","","","true","","","","","","","","","","","","",""
"blur","3","31512","blurevent","63f3a7e45f338798fd025d99","bdp_trlrn","Wed Mar 15 2023 14:13:12 GMT-0500 (Central Daylight Time)","1025642","Trustworthy,Untrustworthy","","","","","3","","","","","","","","","","","","","","","",""
"focus","3","34541","focusevent","63f3a7e45f338798fd025d99","bdp_trlrn","Wed Mar 15 2023 14:13:12 GMT-0500 (Central Daylight Time)","1025642","Trustworthy,Untrustworthy","","","","","","","","","","","","","","","","","","","","",""
"","","","fullscreenfail","63f3a7e45f338798fd025d99","bdp_trlrn","Wed Mar 15 2023 14:13:12 GMT-0500 (Central Daylight Time)","1025642","Trustworthy,Untrustworthy","image-keyboard-response","3","35442","0.0-3.0-0.0","","","10236","","","32","","","","","","","","","","",""
"blur","4","38196","blurevent","63f3a7e45f338798fd025d99","bdp_trlrn","Wed Mar 15 2023 14:13:12 GMT-0500 (Central Daylight Time)","1025642","Trustworthy,Untrustworthy","","","","","4","","","","","","","","","","","","","","","",""
"focus","4","38351","focusevent","63f3a7e45f338798fd025d99","bdp_trlrn","Wed Mar 15 2023 14:13:12 GMT-0500 (Central Daylight Time)","1025642","Trustworthy,Untrustworthy","","","","","","","","","","","","","","","","","","","","",""
"blur","4","45399","blurevent","63f3a7e45f338798fd025d99","bdp_trlrn","Wed Mar 15 2023 14:13:12 GMT-0500 (Central Daylight Time)","1025642","Trustworthy,Untrustworthy","","","","","","","","","","","","","","","","","","","","",""
"focus","4","47831","focusevent","63f3a7e45f338798fd025d99","bdp_trlrn","Wed Mar 15 2023 14:13:12 GMT-0500 (Central Daylight Time)","1025642","Trustworthy,Untrustworthy","","","","","","","","","","","","","","","","","","","","",""
"","","","","63f3a7e45f338798fd025d99","bdp_trlrn","Wed Mar 15 2023 14:13:12 GMT-0500 (Central Daylight Time)","1025642","Trustworthy,Untrustworthy","instructions","4","98055","0.0-4.0","","[{""page_index"":0,""viewing_time"":54405},{""page_index"":1,""viewing_time"":7943}]","62349","","","","","","","","","","","","","",""
"","","","","63f3a7e45f338798fd025d99","bdp_trlrn","Wed Mar 15 2023 14:13:12 GMT-0500 (Central Daylight Time)","1025642","Trustworthy,Untrustworthy","instructions","5","99604","0.0-5.0","","[{""page_index"":0,""viewing_time"":1549}]","1549","","","","","","","","","","","","","",""
"","","","rating","63f3a7e45f338798fd025d99","bdp_trlrn","Wed Mar 15 2023 14:13:12 GMT-0500 (Central Daylight Time)","1025642","Trustworthy,Untrustworthy","image-keyboard-response","6","109115","0.0-6.0-1.0","","","9394","","trustrating_stim/white_mw097.bmp","3","","","","","","","","","","",""
"","","","ratingFB","63f3a7e45f338798fd025d99","bdp_trlrn","Wed Mar 15 2023 14:13:12 GMT-0500 (Central Daylight Time)","1025642","Trustworthy,Untrustworthy","image-keyboard-response","7","109319","0.0-6.0-2.0","","","null","","trustrating_stim/white_mw097.bmp","null","","","","","","","","","","",""
"","","","rating","63f3a7e45f338798fd025d99","bdp_trlrn","Wed Mar 15 2023 14:13:12 GMT-0500 (Central Daylight Time)","1025642","Trustworthy,Untrustworthy","image-keyboard-response","8","114031","0.0-6.0-1.1","","","4599","","trustrating_stim/white_mw071.bmp","4","","","","","","","","","","",""
"","","","ratingFB","63f3a7e45f338798fd025d99","bdp_trlrn","Wed Mar 15 2023 14:13:12 GMT-0500 (Central Daylight Time)","1025642","Trustworthy,Untrustworthy","image-keyboard-response","9","114236","0.0-6.0-2.1","","","null","","trustrating_stim/white_mw071.bmp","null","","","","","","","","","","",""
"","","","rating","63f3a7e45f338798fd025d99","bdp_trlrn","Wed Mar 15 2023 14:13:12 GMT-0500 (Central Daylight Time)","1025642","Trustworthy,Untrustworthy","image-keyboard-response","10","116619","0.0-6.0-1.2","","","2271","","trustrating_stim/white_mw046.bmp","4","","","","","","","","","","",""
"","","","ratingFB","63f3a7e45f338798fd025d99","bdp_trlrn","Wed Mar 15 2023 14:13:12 GMT-0500 (Central Daylight Time)","1025642","Trustworthy,Untrustworthy","image-keyboard-response","11","116833","0.0-6.0-2.2","","","null","","trustrating_stim/white_mw046.bmp","null","","","","","","","","","","",""
"","","","rating","63f3a7e45f338798fd025d99","bdp_trlrn","Wed Mar 15 2023 14:13:12 GMT-0500 (Central Daylight Time)","1025642","Trustworthy,Untrustworthy","image-keyboard-response","12","119159","0.0-6.0-1.3","","","2214","","trustrating_stim/white_mw048.bmp","2","","","","","","","","","","",""
"","","","ratingFB","63f3a7e45f338798fd025d99","bdp_trlrn","Wed Mar 15 2023 14:13:12 GMT-0500 (Central Daylight Time)","1025642","Trustworthy,Untrustworthy","image-keyboard-response","13","119361","0.0-6.0-2.3","","","null","","trustrating_stim/white_mw048.bmp","null","","","","","","","","","","",""
"","","","rating","63f3a7e45f338798fd025d99","bdp_trlrn","Wed Mar 15 2023 14:13:12 GMT-0500 (Central Daylight Time)","1025642","Trustworthy,Untrustworthy","image-keyboard-response","14","120852","0.0-6.0-1.4","","","1378","","trustrating_stim/white_mw060.bmp","1","","","","","","","","","","",""
"","","","ratingFB","63f3a7e45f338798fd025d99","bdp_trlrn","Wed Mar 15 2023 14:13:12 GMT-0500 (Central Daylight Time)","1025642","Trustworthy,Untrustworthy","image-keyboard-response","15","121053","0.0-6.0-2.4","","","null","","trustrating_stim/white_mw060.bmp","null","","","","","","","","","","",""
"","","","rating","63f3a7e45f338798fd025d99","bdp_trlrn","Wed Mar 15 2023 14:13:12 GMT-0500 (Central Daylight Time)","1025642","Trustworthy,Untrustworthy","image-keyboard-response","16","124298","0.0-6.0-1.5","","","3136","","trustrating_stim/white_mw084.bmp","3","","","","","","","","","","",""
"","","","ratingFB","63f3a7e45f338798fd025d99","bdp_trlrn","Wed Mar 15 2023 14:13:12 GMT-0500 (Central Daylight Time)","1025642","Trustworthy,Untrustworthy","image-keyboard-response","17","124502","0.0-6.0-2.5","","","null","","trustrating_stim/white_mw084.bmp","null","","","","","","","","","","",""
"","","","rating","63f3a7e45f338798fd025d99","bdp_trlrn","Wed Mar 15 2023 14:13:12 GMT-0500 (Central Daylight Time)","1025642","Trustworthy,Untrustworthy","image-keyboard-response","18","126166","0.0-6.0-1.6","","","1556","","trustrating_stim/white_00129_931230_fb_edt.bmp","5","","","","","","","","","","",""
"","","","ratingFB","63f3a7e45f338798fd025d99","bdp_trlrn","Wed Mar 15 2023 14:13:12 GMT-0500 (Central Daylight Time)","1025642","Trustworthy,Untrustworthy","image-keyboard-response","19","126371","0.0-6.0-2.6","","","null","","trustrating_stim/white_00129_931230_fb_edt.bmp","null","","","","","","","","","","",""
"","","","rating","63f3a7e45f338798fd025d99","bdp_trlrn","Wed Mar 15 2023 14:13:12 GMT-0500 (Central Daylight Time)","1025642","Trustworthy,Untrustworthy","image-keyboard-response","20","129650","0.0-6.0-1.7","","","3167","","trustrating_stim/white_00340_940422_fa_edt.bmp","4","","","","","","","","","","",""
"","","","ratingFB","63f3a7e45f338798fd025d99","bdp_trlrn","Wed Mar 15 2023 14:13:12 GMT-0500 (Central Daylight Time)","1025642","Trustworthy,Untrustworthy","image-keyboard-response","21","129852","0.0-6.0-2.7","","","null","","trustrating_stim/white_00340_940422_fa_edt.bmp","null","","","","","","","","","","",""
"","","","rating","63f3a7e45f338798fd025d99","bdp_trlrn","Wed Mar 15 2023 14:13:12 GMT-0500 (Central Daylight Time)","1025642","Trustworthy,Untrustworthy","image-keyboard-response","22","131772","0.0-6.0-1.8","","","1808","","trustrating_stim/white_mw099.bmp","6","","","","","","","","","","",""
"","","","ratingFB","63f3a7e45f338798fd025d99","bdp_trlrn","Wed Mar 15 2023 14:13:12 GMT-0500 (Central Daylight Time)","1025642","Trustworthy,Untrustworthy","image-keyboard-response","23","131981","0.0-6.0-2.8","","","null","","trustrating_stim/white_mw099.bmp","null","","","","","","","","","","",""
"","","","rating","63f3a7e45f338798fd025d99","bdp_trlrn","Wed Mar 15 2023 14:13:12 GMT-0500 (Central Daylight Time)","1025642","Trustworthy,Untrustworthy","image-keyboard-response","24","133969","0.0-6.0-1.9","","","1876","","trustrating_stim/white_00659_941121_fa_edt.bmp","4","","","","","","","","","","",""
"","","","ratingFB","63f3a7e45f338798fd025d99","bdp_trlrn","Wed Mar 15 2023 14:13:12 GMT-0500 (Central Daylight Time)","1025642","Trustworthy,Untrustworthy","image-keyboard-response","25","134185","0.0-6.0-2.9","","","null","","trustrating_stim/white_00659_941121_fa_edt.bmp","null","","","","","","","","","","",""
"","","","rating","63f3a7e45f338798fd025d99","bdp_trlrn","Wed Mar 15 2023 14:13:12 GMT-0500 (Central Daylight Time)","1025642","Trustworthy,Untrustworthy","image-keyboard-response","26","141870","0.0-6.0-1.10","","","7573","","trustrating_stim/white_00898_960530_fa_edt.bmp","3","","","","","","","","","","",""
"","","","ratingFB","63f3a7e45f338798fd025d99","bdp_trlrn","Wed Mar 15 2023 14:13:12 GMT-0500 (Central Daylight Time)","1025642","Trustworthy,Untrustworthy","image-keyboard-response","27","142077","0.0-6.0-2.10","","","null","","trustrating_stim/white_00898_960530_fa_edt.bmp","null","","","","","","","","","","",""
"","","","rating","63f3a7e45f338798fd025d99","bdp_trlrn","Wed Mar 15 2023 14:13:12 GMT-0500 (Central Daylight Time)","1025642","Trustworthy,Untrustworthy","image-keyboard-response","28","144604","0.0-6.0-1.11","","","2423","","trustrating_stim/white_00807_941205_fb_edt.bmp","4","","","","","","","","","","",""
"","","","ratingFB","63f3a7e45f338798fd025d99","bdp_trlrn","Wed Mar 15 2023 14:13:12 GMT-0500 (Central Daylight Time)","1025642","Trustworthy,Untrustworthy","image-keyboard-response","29","144805","0.0-6.0-2.11","","","null","","trustrating_stim/white_00807_941205_fb_edt.bmp","null","","","","","","","","","","",""
"","","","rating","63f3a7e45f338798fd025d99","bdp_trlrn","Wed Mar 15 2023 14:13:12 GMT-0500 (Central Daylight Time)","1025642","Trustworthy,Untrustworthy","image-keyboard-response","30","146267","0.0-6.0-1.12","","","1353","","trustrating_stim/white_mw035.bmp","6","","","","","","","","","","",""
"","","","ratingFB","63f3a7e45f338798fd025d99","bdp_trlrn","Wed Mar 15 2023 14:13:12 GMT-0500 (Central Daylight Time)","1025642","Trustworthy,Untrustworthy","image-keyboard-response","31","146478","0.0-6.0-2.12","","","null","","trustrating_stim/white_mw035.bmp","null","","","","","","","","","","",""
"","","","rating","63f3a7e45f338798fd025d99","bdp_trlrn","Wed Mar 15 2023 14:13:12 GMT-0500 (Central Daylight Time)","1025642","Trustworthy,Untrustworthy","image-keyboard-response","32","147767","0.0-6.0-1.13","","","1176","","trustrating_stim/white_00109_931230_fa_edt.bmp","7","","","","","","","","","","",""
"","","","ratingFB","63f3a7e45f338798fd025d99","bdp_trlrn","Wed Mar 15 2023 14:13:12 GMT-0500 (Central Daylight Time)","1025642","Trustworthy,Untrustworthy","image-keyboard-response","33","147974","0.0-6.0-2.13","","","null","","trustrating_stim/white_00109_931230_fa_edt.bmp","null","","","","","","","","","","",""
"","","","rating","63f3a7e45f338798fd025d99","bdp_trlrn","Wed Mar 15 2023 14:13:12 GMT-0500 (Central Daylight Time)","1025642","Trustworthy,Untrustworthy","image-keyboard-response","34","149997","0.0-6.0-1.14","","","1911","","trustrating_stim/white_mw053.bmp","8","","","","","","","","","","",""
"","","","ratingFB","63f3a7e45f338798fd025d99","bdp_trlrn","Wed Mar 15 2023 14:13:12 GMT-0500 (Central Daylight Time)","1025642","Trustworthy,Untrustworthy","image-keyboard-response","35","150203","0.0-6.0-2.14","","","null","","trustrating_stim/white_mw053.bmp","null","","","","","","","","","","",""
"","","","rating","63f3a7e45f338798fd025d99","bdp_trlrn","Wed Mar 15 2023 14:13:12 GMT-0500 (Central Daylight Time)","1025642","Trustworthy,Untrustworthy","image-keyboard-response","36","151741","0.0-6.0-1.15","","","1427","","trustrating_stim/white_mw063.bmp","4","","","","","","","","","","",""
"","","","ratingFB","63f3a7e45f338798fd025d99","bdp_trlrn","Wed Mar 15 2023 14:13:12 GMT-0500 (Central Daylight Time)","1025642","Trustworthy,Untrustworthy","image-keyboard-response","37","151947","0.0-6.0-2.15","","","null","","trustrating_stim/white_mw063.bmp","null","","","","","","","","","","",""
"","","","rating","63f3a7e45f338798fd025d99","bdp_trlrn","Wed Mar 15 2023 14:13:12 GMT-0500 (Central Daylight Time)","1025642","Trustworthy,Untrustworthy","image-keyboard-response","38","157515","0.0-6.0-1.16","","","5456","","trustrating_stim/white_00761_941201_fb_edt.bmp","5","","","","","","","","","","",""
"","","","ratingFB","63f3a7e45f338798fd025d99","bdp_trlrn","Wed Mar 15 2023 14:13:12 GMT-0500 (Central Daylight Time)","1025642","Trustworthy,Untrustworthy","image-keyboard-response","39","157723","0.0-6.0-2.16","","","null","","trustrating_stim/white_00761_941201_fb_edt.bmp","null","","","","","","","","","","",""
"","","","rating","63f3a7e45f338798fd025d99","bdp_trlrn","Wed Mar 15 2023 14:13:12 GMT-0500 (Central Daylight Time)","1025642","Trustworthy,Untrustworthy","image-keyboard-response","40","159174","0.0-6.0-1.17","","","1338","","trustrating_stim/white_mw049.bmp","6","","","","","","","","","","",""
"","","","ratingFB","63f3a7e45f338798fd025d99","bdp_trlrn","Wed Mar 15 2023 14:13:12 GMT-0500 (Central Daylight Time)","1025642","Trustworthy,Untrustworthy","image-keyboard-response","41","159387","0.0-6.0-2.17","","","null","","trustrating_stim/white_mw049.bmp","null","","","","","","","","","","",""
"","","","rating","63f3a7e45f338798fd025d99","bdp_trlrn","Wed Mar 15 2023 14:13:12 GMT-0500 (Central Daylight Time)","1025642","Trustworthy,Untrustworthy","image-keyboard-response","42","160998","0.0-6.0-1.18","","","1499","","trustrating_stim/white_00577_940928_fa_edt.bmp","3","","","","","","","","","","",""
"","","","ratingFB","63f3a7e45f338798fd025d99","bdp_trlrn","Wed Mar 15 2023 14:13:12 GMT-0500 (Central Daylight Time)","1025642","Trustworthy,Untrustworthy","image-keyboard-response","43","161212","0.0-6.0-2.18","","","null","","trustrating_stim/white_00577_940928_fa_edt.bmp","null","","","","","","","","","","",""
"","","","rating","63f3a7e45f338798fd025d99","bdp_trlrn","Wed Mar 15 2023 14:13:12 GMT-0500 (Central Daylight Time)","1025642","Trustworthy,Untrustworthy","image-keyboard-response","44","162434","0.0-6.0-1.19","","","1111","","trustrating_stim/white_00785_941205_fb_edt.bmp","2","","","","","","","","","","",""
"","","","ratingFB","63f3a7e45f338798fd025d99","bdp_trlrn","Wed Mar 15 2023 14:13:12 GMT-0500 (Central Daylight Time)","1025642","Trustworthy,Untrustworthy","image-keyboard-response","45","162649","0.0-6.0-2.19","","","null","","trustrating_stim/white_00785_941205_fb_edt.bmp","null","","","","","","","","","","",""
"","","","rating","63f3a7e45f338798fd025d99","bdp_trlrn","Wed Mar 15 2023 14:13:12 GMT-0500 (Central Daylight Time)","1025642","Trustworthy,Untrustworthy","image-keyboard-response","46","164233","0.0-6.0-1.20","","","1472","","trustrating_stim/white_mw066.bmp","5","","","","","","","","","","",""
"","","","ratingFB","63f3a7e45f338798fd025d99","bdp_trlrn","Wed Mar 15 2023 14:13:12 GMT-0500 (Central Daylight Time)","1025642","Trustworthy,Untrustworthy","image-keyboard-response","47","164441","0.0-6.0-2.20","","","null","","trustrating_stim/white_mw066.bmp","null","","","","","","","","","","",""
"","","","rating","63f3a7e45f338798fd025d99","bdp_trlrn","Wed Mar 15 2023 14:13:12 GMT-0500 (Central Daylight Time)","1025642","Trustworthy,Untrustworthy","image-keyboard-response","48","165620","0.0-6.0-1.21","","","1067","","trustrating_stim/white_00120_931230_fa_edt.bmp","6","","","","","","","","","","",""
"","","","ratingFB","63f3a7e45f338798fd025d99","bdp_trlrn","Wed Mar 15 2023 14:13:12 GMT-0500 (Central Daylight Time)","1025642","Trustworthy,Untrustworthy","image-keyboard-response","49","165832","0.0-6.0-2.21","","","null","","trustrating_stim/white_00120_931230_fa_edt.bmp","null","","","","","","","","","","",""
"","","","rating","63f3a7e45f338798fd025d99","bdp_trlrn","Wed Mar 15 2023 14:13:12 GMT-0500 (Central Daylight Time)","1025642","Trustworthy,Untrustworthy","image-keyboard-response","50","167590","0.0-6.0-1.22","","","1645","","trustrating_stim/white_mw033.bmp","6","","","","","","","","","","",""
"","","","ratingFB","63f3a7e45f338798fd025d99","bdp_trlrn","Wed Mar 15 2023 14:13:12 GMT-0500 (Central Daylight Time)","1025642","Trustworthy,Untrustworthy","image-keyboard-response","51","167800","0.0-6.0-2.22","","","null","","trustrating_stim/white_mw033.bmp","null","","","","","","","","","","",""
"","","","rating","63f3a7e45f338798fd025d99","bdp_trlrn","Wed Mar 15 2023 14:13:12 GMT-0500 (Central Daylight Time)","1025642","Trustworthy,Untrustworthy","image-keyboard-response","52","170278","0.0-6.0-1.23","","","2367","","trustrating_stim/white_mw056.bmp","5","","","","","","","","","","",""
"","","","ratingFB","63f3a7e45f338798fd025d99","bdp_trlrn","Wed Mar 15 2023 14:13:12 GMT-0500 (Central Daylight Time)","1025642","Trustworthy,Untrustworthy","image-keyboard-response","53","170487","0.0-6.0-2.23","","","null","","trustrating_stim/white_mw056.bmp","null","","","","","","","","","","",""
"","","","rating","63f3a7e45f338798fd025d99","bdp_trlrn","Wed Mar 15 2023 14:13:12 GMT-0500 (Central Daylight Time)","1025642","Trustworthy,Untrustworthy","image-keyboard-response","54","172845","0.0-6.0-1.24","","","2246","","trustrating_stim/white_00223_940128_fb_edt.bmp","7","","","","","","","","","","",""
"","","","ratingFB","63f3a7e45f338798fd025d99","bdp_trlrn","Wed Mar 15 2023 14:13:12 GMT-0500 (Central Daylight Time)","1025642","Trustworthy,Untrustworthy","image-keyboard-response","55","173060","0.0-6.0-2.24","","","null","","trustrating_stim/white_00223_940128_fb_edt.bmp","null","","","","","","","","","","",""
"","","","rating","63f3a7e45f338798fd025d99","bdp_trlrn","Wed Mar 15 2023 14:13:12 GMT-0500 (Central Daylight Time)","1025642","Trustworthy,Untrustworthy","image-keyboard-response","56","174754","0.0-6.0-1.25","","","1582","","trustrating_stim/white_00299_940422_fa_edt.bmp","8","","","","","","","","","","",""
"","","","ratingFB","63f3a7e45f338798fd025d99","bdp_trlrn","Wed Mar 15 2023 14:13:12 GMT-0500 (Central Daylight Time)","1025642","Trustworthy,Untrustworthy","image-keyboard-response","57","174964","0.0-6.0-2.25","","","null","","trustrating_stim/white_00299_940422_fa_edt.bmp","null","","","","","","","","","","",""
"","","","rating","63f3a7e45f338798fd025d99","bdp_trlrn","Wed Mar 15 2023 14:13:12 GMT-0500 (Central Daylight Time)","1025642","Trustworthy,Untrustworthy","image-keyboard-response","58","177002","0.0-6.0-1.26","","","1926","","trustrating_stim/white_00519_940519_fb_edt.bmp","6","","","","","","","","","","",""
"","","","ratingFB","63f3a7e45f338798fd025d99","bdp_trlrn","Wed Mar 15 2023 14:13:12 GMT-0500 (Central Daylight Time)","1025642","Trustworthy,Untrustworthy","image-keyboard-response","59","177214","0.0-6.0-2.26","","","null","","trustrating_stim/white_00519_940519_fb_edt.bmp","null","","","","","","","","","","",""
"","","","rating","63f3a7e45f338798fd025d99","bdp_trlrn","Wed Mar 15 2023 14:13:12 GMT-0500 (Central Daylight Time)","1025642","Trustworthy,Untrustworthy","image-keyboard-response","60","179519","0.0-6.0-1.27","","","2193","","trustrating_stim/white_00602_940928_fb_edt.bmp","8","","","","","","","","","","",""
"","","","ratingFB","63f3a7e45f338798fd025d99","bdp_trlrn","Wed Mar 15 2023 14:13:12 GMT-0500 (Central Daylight Time)","1025642","Trustworthy,Untrustworthy","image-keyboard-response","61","179726","0.0-6.0-2.27","","","null","","trustrating_stim/white_00602_940928_fb_edt.bmp","null","","","","","","","","","","",""
"","","","rating","63f3a7e45f338798fd025d99","bdp_trlrn","Wed Mar 15 2023 14:13:12 GMT-0500 (Central Daylight Time)","1025642","Trustworthy,Untrustworthy","image-keyboard-response","62","182498","0.0-6.0-1.28","","","2661","","trustrating_stim/white_mw089.bmp","6","","","","","","","","","","",""
"","","","ratingFB","63f3a7e45f338798fd025d99","bdp_trlrn","Wed Mar 15 2023 14:13:12 GMT-0500 (Central Daylight Time)","1025642","Trustworthy,Untrustworthy","image-keyboard-response","63","182709","0.0-6.0-2.28","","","null","","trustrating_stim/white_mw089.bmp","null","","","","","","","","","","",""
"","","","rating","63f3a7e45f338798fd025d99","bdp_trlrn","Wed Mar 15 2023 14:13:12 GMT-0500 (Central Daylight Time)","1025642","Trustworthy,Untrustworthy","image-keyboard-response","64","184365","0.0-6.0-1.29","","","1544","","trustrating_stim/white_00757_941201_fa_edt.bmp","5","","","","","","","","","","",""
"","","","ratingFB","63f3a7e45f338798fd025d99","bdp_trlrn","Wed Mar 15 2023 14:13:12 GMT-0500 (Central Daylight Time)","1025642","Trustworthy,Untrustworthy","image-keyboard-response","65","184567","0.0-6.0-2.29","","","null","","trustrating_stim/white_00757_941201_fa_edt.bmp","null","","","","","","","","","","",""
"","","","rating","63f3a7e45f338798fd025d99","bdp_trlrn","Wed Mar 15 2023 14:13:12 GMT-0500 (Central Daylight Time)","1025642","Trustworthy,Untrustworthy","image-keyboard-response","66","187228","0.0-6.0-1.30","","","2546","","trustrating_stim/white_mw033.bmp","4","","","","","","","","","","",""
"","","","ratingFB","63f3a7e45f338798fd025d99","bdp_trlrn","Wed Mar 15 2023 14:13:12 GMT-0500 (Central Daylight Time)","1025642","Trustworthy,Untrustworthy","image-keyboard-response","67","187442","0.0-6.0-2.30","","","null","","trustrating_stim/white_mw033.bmp","null","","","","","","","","","","",""
"","","","rating","63f3a7e45f338798fd025d99","bdp_trlrn","Wed Mar 15 2023 14:13:12 GMT-0500 (Central Daylight Time)","1025642","Trustworthy,Untrustworthy","image-keyboard-response","68","190619","0.0-6.0-1.31","","","3072","","trustrating_stim/white_00223_940128_fb_edt.bmp","5","","","","","","","","","","",""
"","","","ratingFB","63f3a7e45f338798fd025d99","bdp_trlrn","Wed Mar 15 2023 14:13:12 GMT-0500 (Central Daylight Time)","1025642","Trustworthy,Untrustworthy","image-keyboard-response","69","190826","0.0-6.0-2.31","","","null","","trustrating_stim/white_00223_940128_fb_edt.bmp","null","","","","","","","","","","",""
"","","","rating","63f3a7e45f338798fd025d99","bdp_trlrn","Wed Mar 15 2023 14:13:12 GMT-0500 (Central Daylight Time)","1025642","Trustworthy,Untrustworthy","image-keyboard-response","70","192157","0.0-6.0-1.32","","","1219","","trustrating_stim/white_mw089.bmp","6","","","","","","","","","","",""
"","","","ratingFB","63f3a7e45f338798fd025d99","bdp_trlrn","Wed Mar 15 2023 14:13:12 GMT-0500 (Central Daylight Time)","1025642","Trustworthy,Untrustworthy","image-keyboard-response","71","192366","0.0-6.0-2.32","","","null","","trustrating_stim/white_mw089.bmp","null","","","","","","","","","","",""
"","","","rating","63f3a7e45f338798fd025d99","bdp_trlrn","Wed Mar 15 2023 14:13:12 GMT-0500 (Central Daylight Time)","1025642","Trustworthy,Untrustworthy","image-keyboard-response","72","232120","0.0-6.0-1.33","","","39646","","trustrating_stim/white_mw071.bmp","5","","","","","","","","","","",""
"","","","ratingFB","63f3a7e45f338798fd025d99","bdp_trlrn","Wed Mar 15 2023 14:13:12 GMT-0500 (Central Daylight Time)","1025642","Trustworthy,Untrustworthy","image-keyboard-response","73","232321","0.0-6.0-2.33","","","null","","trustrating_stim/white_mw071.bmp","null","","","","","","","","","","",""
"","","","rating","63f3a7e45f338798fd025d99","bdp_trlrn","Wed Mar 15 2023 14:13:12 GMT-0500 (Central Daylight Time)","1025642","Trustworthy,Untrustworthy","image-keyboard-response","74","235197","0.0-6.0-1.34","","","2761","","trustrating_stim/white_mw056.bmp","3","","","","","","","","","","",""
"","","","ratingFB","63f3a7e45f338798fd025d99","bdp_trlrn","Wed Mar 15 2023 14:13:12 GMT-0500 (Central Daylight Time)","1025642","Trustworthy,Untrustworthy","image-keyboard-response","75","235411","0.0-6.0-2.34","","","null","","trustrating_stim/white_mw056.bmp","null","","","","","","","","","","",""
"","","","rating","63f3a7e45f338798fd025d99","bdp_trlrn","Wed Mar 15 2023 14:13:12 GMT-0500 (Central Daylight Time)","1025642","Trustworthy,Untrustworthy","image-keyboard-response","76","237686","0.0-6.0-1.35","","","2159","","trustrating_stim/white_00129_931230_fb_edt.bmp","9","","","","","","","","","","",""
"","","","ratingFB","63f3a7e45f338798fd025d99","bdp_trlrn","Wed Mar 15 2023 14:13:12 GMT-0500 (Central Daylight Time)","1025642","Trustworthy,Untrustworthy","image-keyboard-response","77","237888","0.0-6.0-2.35","","","null","","trustrating_stim/white_00129_931230_fb_edt.bmp","null","","","","","","","","","","",""
"","","","rating","63f3a7e45f338798fd025d99","bdp_trlrn","Wed Mar 15 2023 14:13:12 GMT-0500 (Central Daylight Time)","1025642","Trustworthy,Untrustworthy","image-keyboard-response","78","240065","0.0-6.0-1.36","","","2070","","trustrating_stim/white_mw063.bmp","4","","","","","","","","","","",""
"","","","ratingFB","63f3a7e45f338798fd025d99","bdp_trlrn","Wed Mar 15 2023 14:13:12 GMT-0500 (Central Daylight Time)","1025642","Trustworthy,Untrustworthy","image-keyboard-response","79","240276","0.0-6.0-2.36","","","null","","trustrating_stim/white_mw063.bmp","null","","","","","","","","","","",""
"","","","rating","63f3a7e45f338798fd025d99","bdp_trlrn","Wed Mar 15 2023 14:13:12 GMT-0500 (Central Daylight Time)","1025642","Trustworthy,Untrustworthy","image-keyboard-response","80","244393","0.0-6.0-1.37","","","4006","","trustrating_stim/white_mw048.bmp","6","","","","","","","","","","",""
"","","","ratingFB","63f3a7e45f338798fd025d99","bdp_trlrn","Wed Mar 15 2023 14:13:12 GMT-0500 (Central Daylight Time)","1025642","Trustworthy,Untrustworthy","image-keyboard-response","81","244609","0.0-6.0-2.37","","","null","","trustrating_stim/white_mw048.bmp","null","","","","","","","","","","",""
"","","","rating","63f3a7e45f338798fd025d99","bdp_trlrn","Wed Mar 15 2023 14:13:12 GMT-0500 (Central Daylight Time)","1025642","Trustworthy,Untrustworthy","image-keyboard-response","82","245901","0.0-6.0-1.38","","","1183","","trustrating_stim/white_mw035.bmp","7","","","","","","","","","","",""
"","","","ratingFB","63f3a7e45f338798fd025d99","bdp_trlrn","Wed Mar 15 2023 14:13:12 GMT-0500 (Central Daylight Time)","1025642","Trustworthy,Untrustworthy","image-keyboard-response","83","246117","0.0-6.0-2.38","","","null","","trustrating_stim/white_mw035.bmp","null","","","","","","","","","","",""
"","","","rating","63f3a7e45f338798fd025d99","bdp_trlrn","Wed Mar 15 2023 14:13:12 GMT-0500 (Central Daylight Time)","1025642","Trustworthy,Untrustworthy","image-keyboard-response","84","247618","0.0-6.0-1.39","","","1389","","trustrating_stim/white_00898_960530_fa_edt.bmp","9","","","","","","","","","","",""
"","","","ratingFB","63f3a7e45f338798fd025d99","bdp_trlrn","Wed Mar 15 2023 14:13:12 GMT-0500 (Central Daylight Time)","1025642","Trustworthy,Untrustworthy","image-keyboard-response","85","247822","0.0-6.0-2.39","","","null","","trustrating_stim/white_00898_960530_fa_edt.bmp","null","","","","","","","","","","",""
"","","","rating","63f3a7e45f338798fd025d99","bdp_trlrn","Wed Mar 15 2023 14:13:12 GMT-0500 (Central Daylight Time)","1025642","Trustworthy,Untrustworthy","image-keyboard-response","86","251391","0.0-6.0-1.40","","","3457","","trustrating_stim/white_00602_940928_fb_edt.bmp","9","","","","","","","","","","",""
"","","","ratingFB","63f3a7e45f338798fd025d99","bdp_trlrn","Wed Mar 15 2023 14:13:12 GMT-0500 (Central Daylight Time)","1025642","Trustworthy,Untrustworthy","image-keyboard-response","87","251599","0.0-6.0-2.40","","","null","","trustrating_stim/white_00602_940928_fb_edt.bmp","null","","","","","","","","","","",""
"","","","rating","63f3a7e45f338798fd025d99","bdp_trlrn","Wed Mar 15 2023 14:13:12 GMT-0500 (Central Daylight Time)","1025642","Trustworthy,Untrustworthy","image-keyboard-response","88","253360","0.0-6.0-1.41","","","1649","","trustrating_stim/white_00340_940422_fa_edt.bmp","4","","","","","","","","","","",""
"","","","ratingFB","63f3a7e45f338798fd025d99","bdp_trlrn","Wed Mar 15 2023 14:13:12 GMT-0500 (Central Daylight Time)","1025642","Trustworthy,Untrustworthy","image-keyboard-response","89","253563","0.0-6.0-2.41","","","null","","trustrating_stim/white_00340_940422_fa_edt.bmp","null","","","","","","","","","","",""
"","","","rating","63f3a7e45f338798fd025d99","bdp_trlrn","Wed Mar 15 2023 14:13:12 GMT-0500 (Central Daylight Time)","1025642","Trustworthy,Untrustworthy","image-keyboard-response","90","255030","0.0-6.0-1.42","","","1355","","trustrating_stim/white_mw084.bmp","2","","","","","","","","","","",""
"","","","ratingFB","63f3a7e45f338798fd025d99","bdp_trlrn","Wed Mar 15 2023 14:13:12 GMT-0500 (Central Daylight Time)","1025642","Trustworthy,Untrustworthy","image-keyboard-response","91","255239","0.0-6.0-2.42","","","null","","trustrating_stim/white_mw084.bmp","null","","","","","","","","","","",""
"","","","rating","63f3a7e45f338798fd025d99","bdp_trlrn","Wed Mar 15 2023 14:13:12 GMT-0500 (Central Daylight Time)","1025642","Trustworthy,Untrustworthy","image-keyboard-response","92","256690","0.0-6.0-1.43","","","1337","","trustrating_stim/white_00299_940422_fa_edt.bmp","6","","","","","","","","","","",""
"","","","ratingFB","63f3a7e45f338798fd025d99","bdp_trlrn","Wed Mar 15 2023 14:13:12 GMT-0500 (Central Daylight Time)","1025642","Trustworthy,Untrustworthy","image-keyboard-response","93","256891","0.0-6.0-2.43","","","null","","trustrating_stim/white_00299_940422_fa_edt.bmp","null","","","","","","","","","","",""
"","","","rating","63f3a7e45f338798fd025d99","bdp_trlrn","Wed Mar 15 2023 14:13:12 GMT-0500 (Central Daylight Time)","1025642","Trustworthy,Untrustworthy","image-keyboard-response","94","313318","0.0-6.0-1.44","","","56318","","trustrating_stim/white_00120_931230_fa_edt.bmp","7","","","","","","","","","","",""
"","","","ratingFB","63f3a7e45f338798fd025d99","bdp_trlrn","Wed Mar 15 2023 14:13:12 GMT-0500 (Central Daylight Time)","1025642","Trustworthy,Untrustworthy","image-keyboard-response","95","313525","0.0-6.0-2.44","","","null","","trustrating_stim/white_00120_931230_fa_edt.bmp","null","","","","","","","","","","",""
"","","","rating","63f3a7e45f338798fd025d99","bdp_trlrn","Wed Mar 15 2023 14:13:12 GMT-0500 (Central Daylight Time)","1025642","Trustworthy,Untrustworthy","image-keyboard-response","96","317476","0.0-6.0-1.45","","","3843","","trustrating_stim/white_mw097.bmp","5","","","","","","","","","","",""
"","","","ratingFB","63f3a7e45f338798fd025d99","bdp_trlrn","Wed Mar 15 2023 14:13:12 GMT-0500 (Central Daylight Time)","1025642","Trustworthy,Untrustworthy","image-keyboard-response","97","317677","0.0-6.0-2.45","","","null","","trustrating_stim/white_mw097.bmp","null","","","","","","","","","","",""
"","","","rating","63f3a7e45f338798fd025d99","bdp_trlrn","Wed Mar 15 2023 14:13:12 GMT-0500 (Central Daylight Time)","1025642","Trustworthy,Untrustworthy","image-keyboard-response","98","344892","0.0-6.0-1.46","","","27102","","trustrating_stim/white_00757_941201_fa_edt.bmp","4","","","","","","","","","","",""
"","","","ratingFB","63f3a7e45f338798fd025d99","bdp_trlrn","Wed Mar 15 2023 14:13:12 GMT-0500 (Central Daylight Time)","1025642","Trustworthy,Untrustworthy","image-keyboard-response","99","345101","0.0-6.0-2.46","","","null","","trustrating_stim/white_00757_941201_fa_edt.bmp","null","","","","","","","","","","",""
"","","","rating","63f3a7e45f338798fd025d99","bdp_trlrn","Wed Mar 15 2023 14:13:12 GMT-0500 (Central Daylight Time)","1025642","Trustworthy,Untrustworthy","image-keyboard-response","100","347876","0.0-6.0-1.47","","","2663","","trustrating_stim/white_00577_940928_fa_edt.bmp","3","","","","","","","","","","",""
"","","","ratingFB","63f3a7e45f338798fd025d99","bdp_trlrn","Wed Mar 15 2023 14:13:12 GMT-0500 (Central Daylight Time)","1025642","Trustworthy,Untrustworthy","image-keyboard-response","101","348090","0.0-6.0-2.47","","","null","","trustrating_stim/white_00577_940928_fa_edt.bmp","null","","","","","","","","","","",""
"","","","rating","63f3a7e45f338798fd025d99","bdp_trlrn","Wed Mar 15 2023 14:13:12 GMT-0500 (Central Daylight Time)","1025642","Trustworthy,Untrustworthy","image-keyboard-response","102","351338","0.0-6.0-1.48","","","3135","","trustrating_stim/white_00659_941121_fa_edt.bmp","6","","","","","","","","","","",""
"","","","ratingFB","63f3a7e45f338798fd025d99","bdp_trlrn","Wed Mar 15 2023 14:13:12 GMT-0500 (Central Daylight Time)","1025642","Trustworthy,Untrustworthy","image-keyboard-response","103","351546","0.0-6.0-2.48","","","null","","trustrating_stim/white_00659_941121_fa_edt.bmp","null","","","","","","","","","","",""
"","","","rating","63f3a7e45f338798fd025d99","bdp_trlrn","Wed Mar 15 2023 14:13:12 GMT-0500 (Central Daylight Time)","1025642","Trustworthy,Untrustworthy","image-keyboard-response","104","353402","0.0-6.0-1.49","","","1743","","trustrating_stim/white_mw066.bmp","8","","","","","","","","","","",""
"","","","ratingFB","63f3a7e45f338798fd025d99","bdp_trlrn","Wed Mar 15 2023 14:13:12 GMT-0500 (Central Daylight Time)","1025642","Trustworthy,Untrustworthy","image-keyboard-response","105","353610","0.0-6.0-2.49","","","null","","trustrating_stim/white_mw066.bmp","null","","","","","","","","","","",""
"","","","rating","63f3a7e45f338798fd025d99","bdp_trlrn","Wed Mar 15 2023 14:13:12 GMT-0500 (Central Daylight Time)","1025642","Trustworthy,Untrustworthy","image-keyboard-response","106","355681","0.0-6.0-1.50","","","1959","","trustrating_stim/white_00807_941205_fb_edt.bmp","6","","","","","","","","","","",""
"","","","ratingFB","63f3a7e45f338798fd025d99","bdp_trlrn","Wed Mar 15 2023 14:13:12 GMT-0500 (Central Daylight Time)","1025642","Trustworthy,Untrustworthy","image-keyboard-response","107","355897","0.0-6.0-2.50","","","null","","trustrating_stim/white_00807_941205_fb_edt.bmp","null","","","","","","","","","","",""
"","","","rating","63f3a7e45f338798fd025d99","bdp_trlrn","Wed Mar 15 2023 14:13:12 GMT-0500 (Central Daylight Time)","1025642","Trustworthy,Untrustworthy","image-keyboard-response","108","357815","0.0-6.0-1.51","","","1806","","trustrating_stim/white_00109_931230_fa_edt.bmp","8","","","","","","","","","","",""
"","","","ratingFB","63f3a7e45f338798fd025d99","bdp_trlrn","Wed Mar 15 2023 14:13:12 GMT-0500 (Central Daylight Time)","1025642","Trustworthy,Untrustworthy","image-keyboard-response","109","358025","0.0-6.0-2.51","","","null","","trustrating_stim/white_00109_931230_fa_edt.bmp","null","","","","","","","","","","",""
"","","","rating","63f3a7e45f338798fd025d99","bdp_trlrn","Wed Mar 15 2023 14:13:12 GMT-0500 (Central Daylight Time)","1025642","Trustworthy,Untrustworthy","image-keyboard-response","110","360278","0.0-6.0-1.52","","","2140","","trustrating_stim/white_00519_940519_fb_edt.bmp","9","","","","","","","","","","",""
"","","","ratingFB","63f3a7e45f338798fd025d99","bdp_trlrn","Wed Mar 15 2023 14:13:12 GMT-0500 (Central Daylight Time)","1025642","Trustworthy,Untrustworthy","image-keyboard-response","111","360489","0.0-6.0-2.52","","","null","","trustrating_stim/white_00519_940519_fb_edt.bmp","null","","","","","","","","","","",""
"","","","rating","63f3a7e45f338798fd025d99","bdp_trlrn","Wed Mar 15 2023 14:13:12 GMT-0500 (Central Daylight Time)","1025642","Trustworthy,Untrustworthy","image-keyboard-response","112","362275","0.0-6.0-1.53","","","1674","","trustrating_stim/white_mw060.bmp","2","","","","","","","","","","",""
"","","","ratingFB","63f3a7e45f338798fd025d99","bdp_trlrn","Wed Mar 15 2023 14:13:12 GMT-0500 (Central Daylight Time)","1025642","Trustworthy,Untrustworthy","image-keyboard-response","113","362476","0.0-6.0-2.53","","","null","","trustrating_stim/white_mw060.bmp","null","","","","","","","","","","",""
"","","","rating","63f3a7e45f338798fd025d99","bdp_trlrn","Wed Mar 15 2023 14:13:12 GMT-0500 (Central Daylight Time)","1025642","Trustworthy,Untrustworthy","image-keyboard-response","114","363833","0.0-6.0-1.54","","","1249","","trustrating_stim/white_00785_941205_fb_edt.bmp","2","","","","","","","","","","",""
"","","","ratingFB","63f3a7e45f338798fd025d99","bdp_trlrn","Wed Mar 15 2023 14:13:12 GMT-0500 (Central Daylight Time)","1025642","Trustworthy,Untrustworthy","image-keyboard-response","115","364039","0.0-6.0-2.54","","","null","","trustrating_stim/white_00785_941205_fb_edt.bmp","null","","","","","","","","","","",""
"","","","rating","63f3a7e45f338798fd025d99","bdp_trlrn","Wed Mar 15 2023 14:13:12 GMT-0500 (Central Daylight Time)","1025642","Trustworthy,Untrustworthy","image-keyboard-response","116","366433","0.0-6.0-1.55","","","2283","","trustrating_stim/white_mw049.bmp","7","","","","","","","","","","",""
"","","","ratingFB","63f3a7e45f338798fd025d99","bdp_trlrn","Wed Mar 15 2023 14:13:12 GMT-0500 (Central Daylight Time)","1025642","Trustworthy,Untrustworthy","image-keyboard-response","117","366645","0.0-6.0-2.55","","","null","","trustrating_stim/white_mw049.bmp","null","","","","","","","","","","",""
"","","","rating","63f3a7e45f338798fd025d99","bdp_trlrn","Wed Mar 15 2023 14:13:12 GMT-0500 (Central Daylight Time)","1025642","Trustworthy,Untrustworthy","image-keyboard-response","118","368034","0.0-6.0-1.56","","","1281","","trustrating_stim/white_mw053.bmp","7","","","","","","","","","","",""
"","","","ratingFB","63f3a7e45f338798fd025d99","bdp_trlrn","Wed Mar 15 2023 14:13:12 GMT-0500 (Central Daylight Time)","1025642","Trustworthy,Untrustworthy","image-keyboard-response","119","368241","0.0-6.0-2.56","","","null","","trustrating_stim/white_mw053.bmp","null","","","","","","","","","","",""
"","","","rating","63f3a7e45f338798fd025d99","bdp_trlrn","Wed Mar 15 2023 14:13:12 GMT-0500 (Central Daylight Time)","1025642","Trustworthy,Untrustworthy","image-keyboard-response","120","369959","0.0-6.0-1.57","","","1603","","trustrating_stim/white_mw099.bmp","8","","","","","","","","","","",""
"","","","ratingFB","63f3a7e45f338798fd025d99","bdp_trlrn","Wed Mar 15 2023 14:13:12 GMT-0500 (Central Daylight Time)","1025642","Trustworthy,Untrustworthy","image-keyboard-response","121","370171","0.0-6.0-2.57","","","null","","trustrating_stim/white_mw099.bmp","null","","","","","","","","","","",""
"","","","rating","63f3a7e45f338798fd025d99","bdp_trlrn","Wed Mar 15 2023 14:13:12 GMT-0500 (Central Daylight Time)","1025642","Trustworthy,Untrustworthy","image-keyboard-response","122","374324","0.0-6.0-1.58","","","4042","","trustrating_stim/white_00761_941201_fb_edt.bmp","3","","","","","","","","","","",""
"","","","ratingFB","63f3a7e45f338798fd025d99","bdp_trlrn","Wed Mar 15 2023 14:13:12 GMT-0500 (Central Daylight Time)","1025642","Trustworthy,Untrustworthy","image-keyboard-response","123","374531","0.0-6.0-2.58","","","null","","trustrating_stim/white_00761_941201_fb_edt.bmp","null","","","","","","","","","","",""
"","","","rating","63f3a7e45f338798fd025d99","bdp_trlrn","Wed Mar 15 2023 14:13:12 GMT-0500 (Central Daylight Time)","1025642","Trustworthy,Untrustworthy","image-keyboard-response","124","377489","0.0-6.0-1.59","","","2846","","trustrating_stim/white_mw046.bmp","6","","","","","","","","","","",""
"","","","ratingFB","63f3a7e45f338798fd025d99","bdp_trlrn","Wed Mar 15 2023 14:13:12 GMT-0500 (Central Daylight Time)","1025642","Trustworthy,Untrustworthy","image-keyboard-response","125","377700","0.0-6.0-2.59","","","null","","trustrating_stim/white_mw046.bmp","null","","","","","","","","","","",""
"","","","","63f3a7e45f338798fd025d99","bdp_trlrn","Wed Mar 15 2023 14:13:12 GMT-0500 (Central Daylight Time)","1025642","Trustworthy,Untrustworthy","instructions","126","381134","0.0-7.0","","[{""page_index"":0,""viewing_time"":3329}]","3329","","","","","","","","","","","","","",""
"","","","","63f3a7e45f338798fd025d99","bdp_trlrn","Wed Mar 15 2023 14:13:12 GMT-0500 (Central Daylight Time)","1025642","Trustworthy,Untrustworthy","instructions","127","483515","0.0-8.0","","[{""page_index"":0,""viewing_time"":17680},{""page_index"":1,""viewing_time"":19027},{""page_index"":2,""viewing_time"":6816},{""page_index"":3,""viewing_time"":9430},{""page_index"":4,""viewing_time"":6023},{""page_index"":5,""viewing_time"":4770},{""page_index"":6,""viewing_time"":20961},{""page_index"":7,""viewing_time"":17567}]","102274","","","","","","","","","","","","","",""
"","","","","63f3a7e45f338798fd025d99","bdp_trlrn","Wed Mar 15 2023 14:13:12 GMT-0500 (Central Daylight Time)","1025642","Trustworthy,Untrustworthy","html-keyboard-response","128","489580","0.0-9.0","","","6064","","<div class='header' style='text-align:left; position: absolute; top: 5%; left: 5%;'><small>Task 2 of 5</small></div><div class='instruxDiv'><p><strong>1) What is the minimum number of points you can choose to send to your partner?</strong></p><p>a) 0</p><p>b) 1</p><p>c) 5</p>","C","","","","","","","","","","",""
"","","","","63f3a7e45f338798fd025d99","bdp_trlrn","Wed Mar 15 2023 14:13:12 GMT-0500 (Central Daylight Time)","1025642","Trustworthy,Untrustworthy","html-keyboard-response","129","496322","0.0-10.0","","","6640","","<div class='header' style='text-align:left; position: absolute; top: 5%; left: 5%;'><small>Task 2 of 5</small></div><div class='instruxDiv'><p><strong>1) What is the minimum number of points you can choose to send to your partner?</strong></p><p>a) 1</p><p>b) 1</p><p style='color:#FF0000'>c) 5</p><h3 style='color:#FF0000'>Incorrect!</h3><h3 class='center-content'>The correct response is b).</h3><h3 class='center-content'>The minimum number of points you can choose to send to your partner is 1 point.</h3><p><em>Press SPACEBAR to continue</em></p></div>"," ","","","","","","","","","","",""
"","","","","63f3a7e45f338798fd025d99","bdp_trlrn","Wed Mar 15 2023 14:13:12 GMT-0500 (Central Daylight Time)","1025642","Trustworthy,Untrustworthy","html-keyboard-response","130","502642","0.0-11.0","","","6207","","<div class='header' style='text-align:left; position: absolute; top: 5%; left: 5%;'><small>Task 2 of 5</small></div><div class='instruxDiv'><p><strong>2) What is the maximum number of points you can choose to send to your partner?</strong></p><p>a) 8</p><p>b) 5</p><p>c) 3</p>","B","","","","","","","","","","",""
"","","","","63f3a7e45f338798fd025d99","bdp_trlrn","Wed Mar 15 2023 14:13:12 GMT-0500 (Central Daylight Time)","1025642","Trustworthy,Untrustworthy","html-keyboard-response","131","504636","0.0-12.0","","","1882","","<div class='header' style='text-align:left; position: absolute; top: 5%; left: 5%;'><small>Task 2 of 5</small></div><div class='instruxDiv'><p><strong>2) What is the maximum number of points you can choose to send to your partner?</strong></p><p>a) 8</p><p style='color:#00FF00'>b) 5</p><p>c) 3</p><h3 style='color:#00FF00'>Correct!</h3><h3 class='center-content'>The correct response is b).</h3><h3 class='center-content'>The maximum number of points you can choose to send to your partner is 5 points.</h3><p><em>Press SPACEBAR to continue</em></p></div>"," ","","","","","","","","","","",""
"","","","","63f3a7e45f338798fd025d99","bdp_trlrn","Wed Mar 15 2023 14:13:12 GMT-0500 (Central Daylight Time)","1025642","Trustworthy,Untrustworthy","html-keyboard-response","132","509746","0.0-13.0","","","5009","","<div class='header' style='text-align:left; position: absolute; top: 5%; left: 5%;'><small>Task 2 of 5</small></div><div class='instruxDiv'><p><strong>3) What happens to the amount of points you send to your partner?</strong></p><p>a) Nothing</p><p>b) It doubles</p><p>c) It quadruples</p>","B","","","","","","","","","","",""
"","","","","63f3a7e45f338798fd025d99","bdp_trlrn","Wed Mar 15 2023 14:13:12 GMT-0500 (Central Daylight Time)","1025642","Trustworthy,Untrustworthy","html-keyboard-response","133","512926","0.0-14.0","","","3070","","<div class='header' style='text-align:left; position: absolute; top: 5%; left: 5%;'><small>Task 2 of 5</small></div><div class='instruxDiv'><p><strong>3) What happens to the amount of points you send to your partner?</strong></p><p>a) Nothing</p><p style='color:#FF0000'>b) It doubles</p><p>c) It quadruples</p><h3 style='color:#FF0000'>Incorrect!</h3><h3 class='center-content'>The correct response is c).</h3><h3 class='center-content'>The amount of points you send to your partner quadruples.</h3><p><em>Press SPACEBAR to continue</em></p></div>"," ","","","","","","","","","","",""
"","","","","63f3a7e45f338798fd025d99","bdp_trlrn","Wed Mar 15 2023 14:13:12 GMT-0500 (Central Daylight Time)","1025642","Trustworthy,Untrustworthy","html-keyboard-response","134","546174","0.0-15.0","","","33137","","<div class='header' style='text-align:left; position: absolute; top: 5%; left: 5%;'><small>Task 2 of 5</small></div><div class='instruxDiv'><p><strong>4) If you decided to share 4 out of 5 points with your partner, and they decided to share half of the amount they received with you, how many points would you receive back from them on this round?</strong></p><p>a) 16</p><p>b) 0</p><p>c) 8</p>","C","","","","","","","","","","",""
"","","","","63f3a7e45f338798fd025d99","bdp_trlrn","Wed Mar 15 2023 14:13:12 GMT-0500 (Central Daylight Time)","1025642","Trustworthy,Untrustworthy","html-keyboard-response","135","562418","0.0-16.0","","","16142","","<div class='header' style='text-align:left; position: absolute; top: 5%; left: 5%;'><small>Task 2 of 5</small></div><div class='instruxDiv'><p><strong>4) If you decided to share 4 out of 5 points with your partner, and they decided to share half of the amount they received with you, how many points would you receive back from them on this round?</strong></p><p>a) 16</p><p>b) 0</p><p style='color:#00FF00'>c) 8</p><h3 style='color:#00FF00'>Correct!</h3><h3 class='center-content'>The correct response is c).</h3><h3 class='center-content'>If you shared 4 out of 5 points with your partner and they decided to share half of the amount they received with you, you would receive 8 points back (i.e. (4 x 4)/2 = 8).</h3><p><em>Press SPACEBAR to continue</em></p></div>"," ","","","","","","","","","","",""
"","","","","63f3a7e45f338798fd025d99","bdp_trlrn","Wed Mar 15 2023 14:13:12 GMT-0500 (Central Daylight Time)","1025642","Trustworthy,Untrustworthy","html-keyboard-response","136","567541","0.0-17.0","","","null","","<div class='header' style='text-align:left; position: absolute; top: 5%; left: 5%;'><small>Task 2 of 5</small></div><div class='instruxDiv'><p>Thank you for completing the quiz<p>These are the actual partners you will be interacting with in the next block:<p><div class='tc' align='center'><img class='introPic' src='trustrating_stim/white_mw060.bmp'><br><strong>Michael</strong></div><div class='bl' align='center'><img class='introPic' src='trustrating_stim/white_mw033.bmp'><br><strong>Jacob</strong></div><div class='br' align='center'><img class='introPic' src='trustrating_stim/white_00519_940519_fb_edt.bmp'><br><strong>Benjamin</strong></div></div><p>Across <strong>66 rounds</strong> you will interact with each partner <strong>22 times</strong> (in random order).<p style='align:center; color:white'><font <em>Press SPACEBAR to continue</em></p>","null","","","","","","","","","","",""
"","","","","63f3a7e45f338798fd025d99","bdp_trlrn","Wed Mar 15 2023 14:13:12 GMT-0500 (Central Daylight Time)","1025642","Trustworthy,Untrustworthy","instructions","137","577194","0.0-18.0","","[{""page_index"":0,""viewing_time"":6498},{""page_index"":1,""viewing_time"":3155}]","9653","","","","","","","","","","","","","",""
"","","","decision","63f3a7e45f338798fd025d99","bdp_trlrn","Wed Mar 15 2023 14:13:12 GMT-0500 (Central Daylight Time)","1025642","Trustworthy,Untrustworthy","html-keyboard-response","138","587880","0.0-19.0-1.0","","","10570","","<div class='trialDiv'><img src='trustrating_stim/white_mw033.bmp'><br><font class='baseline'><strong>Jacob</strong><p>Choose number of points to send.</font><div class='respPicDiv'><img src='img/responseButtonOffersNo0L.png' class='respPic'></div></div>","4","1","Jacob","5","Shared","0.2,0.65","11","0.2","trustrating_stim/white_mw033.bmp","5","5","1"
"","","","decisionFB","63f3a7e45f338798fd025d99","bdp_trlrn","Wed Mar 15 2023 14:13:12 GMT-0500 (Central Daylight Time)","1025642","Trustworthy,Untrustworthy","html-keyboard-response","139","588131","0.0-19.0-2.0","","","null","","<div class='trialDiv'><img src='trustrating_stim/white_mw033.bmp'><br><font class='baseline'><strong>Jacob</strong><p>Choose number of points to send.</font><div class='respPicDiv'><img src='img/responseButtonOffersNo0L4.png' class='respPic'></div></div>","null","1","Jacob","5","Shared","0.2,0.65","11","0.2","trustrating_stim/white_mw033.bmp","5","1","1"
"","","","feedback","63f3a7e45f338798fd025d99","bdp_trlrn","Wed Mar 15 2023 14:13:12 GMT-0500 (Central Daylight Time)","1025642","Trustworthy,Untrustworthy","html-keyboard-response","140","589147","0.0-19.0-3.0","","","null","","<div class='trialDiv'><img src='trustrating_stim/white_mw033.bmp'><br><font class='baseline'><strong>Jacob</strong><p>Received: <strong>16</strong></font> &nbsp; &nbsp; &nbsp; &nbsp; &nbsp; &nbsp;<font class='posOutcome'>Shared back: <strong>8</strong></font></font><div class='respPicDiv'><img src='img/responseButtonOffersNo0_wht.png' class='respPic'></div></div>","null","1","Jacob","5","Shared","0.2,0.65","11","0.2","trustrating_stim/white_mw033.bmp","5","9","1"
"","","","decision","63f3a7e45f338798fd025d99","bdp_trlrn","Wed Mar 15 2023 14:13:12 GMT-0500 (Central Daylight Time)","1025642","Trustworthy,Untrustworthy","html-keyboard-response","141","594867","0.0-19.0-1.1","","","5718","","<div class='trialDiv'><img src='trustrating_stim/white_00519_940519_fb_edt.bmp'><br><font class='baseline'><strong>Benjamin</strong><p>Choose number of points to send.</font><div class='respPicDiv'><img src='img/responseButtonOffersNo0L.png' class='respPic'></div></div>","5","1","Benjamin","8","Shared","0.65,0.35","14","0.65","trustrating_stim/white_00519_940519_fb_edt.bmp","7.5","14","2"
"","","","decisionFB","63f3a7e45f338798fd025d99","bdp_trlrn","Wed Mar 15 2023 14:13:12 GMT-0500 (Central Daylight Time)","1025642","Trustworthy,Untrustworthy","html-keyboard-response","142","595133","0.0-19.0-2.1","","","null","","<div class='trialDiv'><img src='trustrating_stim/white_00519_940519_fb_edt.bmp'><br><font class='baseline'><strong>Benjamin</strong><p>Choose number of points to send.</font><div class='respPicDiv'><img src='img/responseButtonOffersNo0L5.png' class='respPic'></div></div>","null","1","Benjamin","8","Shared","0.65,0.35","14","0.65","trustrating_stim/white_00519_940519_fb_edt.bmp","7.5","9","2"
"","","","feedback","63f3a7e45f338798fd025d99","bdp_trlrn","Wed Mar 15 2023 14:13:12 GMT-0500 (Central Daylight Time)","1025642","Trustworthy,Untrustworthy","html-keyboard-response","143","596142","0.0-19.0-3.1","","","null","","<div class='trialDiv'><img src='trustrating_stim/white_00519_940519_fb_edt.bmp'><br><font class='baseline'><strong>Benjamin</strong><p>Received: <strong>20</strong></font> &nbsp; &nbsp; &nbsp; &nbsp; &nbsp; &nbsp;<font class='posOutcome'>Shared back: <strong>10</strong></font></font><div class='respPicDiv'><img src='img/responseButtonOffersNo0_wht.png' class='respPic'></div></div>","null","1","Benjamin","8","Shared","0.65,0.35","14","0.65","trustrating_stim/white_00519_940519_fb_edt.bmp","7.5","19","2"
"","","","decision","63f3a7e45f338798fd025d99","bdp_trlrn","Wed Mar 15 2023 14:13:12 GMT-0500 (Central Daylight Time)","1025642","Trustworthy,Untrustworthy","html-keyboard-response","144","603831","0.0-19.0-1.2","","","7689","","<div class='trialDiv'><img src='trustrating_stim/white_mw060.bmp'><br><font class='baseline'><strong>Michael</strong><p>Choose number of points to send.</font><div class='respPicDiv'><img src='img/responseButtonOffersNo0L.png' class='respPic'></div></div>","3","1","Michael","0","Shared","0.65,0.2","13","0.65","trustrating_stim/white_mw060.bmp","1.5","24","3"
"","","","decisionFB","63f3a7e45f338798fd025d99","bdp_trlrn","Wed Mar 15 2023 14:13:12 GMT-0500 (Central Daylight Time)","1025642","Trustworthy,Untrustworthy","html-keyboard-response","145","604088","0.0-19.0-2.2","","","null","","<div class='trialDiv'><img src='trustrating_stim/white_mw060.bmp'><br><font class='baseline'><strong>Michael</strong><p>Choose number of points to send.</font><div class='respPicDiv'><img src='img/responseButtonOffersNo0L3.png' class='respPic'></div></div>","null","1","Michael","0","Shared","0.65,0.2","13","0.65","trustrating_stim/white_mw060.bmp","1.5","21","3"
"","","","feedback","63f3a7e45f338798fd025d99","bdp_trlrn","Wed Mar 15 2023 14:13:12 GMT-0500 (Central Daylight Time)","1025642","Trustworthy,Untrustworthy","html-keyboard-response","146","605096","0.0-19.0-3.2","","","null","","<div class='trialDiv'><img src='trustrating_stim/white_mw060.bmp'><br><font class='baseline'><strong>Michael</strong><p>Received: <strong>12</strong></font> &nbsp; &nbsp; &nbsp; &nbsp; &nbsp; &nbsp;<font class='posOutcome'>Shared back: <strong>6</strong></font></font><div class='respPicDiv'><img src='img/responseButtonOffersNo0_wht.png' class='respPic'></div></div>","null","1","Michael","0","Shared","0.65,0.2","13","0.65","trustrating_stim/white_mw060.bmp","1.5","27","3"
"","","","decision","63f3a7e45f338798fd025d99","bdp_trlrn","Wed Mar 15 2023 14:13:12 GMT-0500 (Central Daylight Time)","1025642","Trustworthy,Untrustworthy","html-keyboard-response","147","612359","0.0-19.0-1.3","","","7262","","<div class='trialDiv'><img src='trustrating_stim/white_00519_940519_fb_edt.bmp'><br><font class='baseline'><strong>Benjamin</strong><p>Choose number of points to send.</font><div class='respPicDiv'><img src='img/responseButtonOffersNo0L.png' class='respPic'></div></div>","5","2","Benjamin","8","Shared","0.65,0.35","14","0.65","trustrating_stim/white_00519_940519_fb_edt.bmp","7.5","32","4"
"","","","decisionFB","63f3a7e45f338798fd025d99","bdp_trlrn","Wed Mar 15 2023 14:13:12 GMT-0500 (Central Daylight Time)","1025642","Trustworthy,Untrustworthy","html-keyboard-response","148","612625","0.0-19.0-2.3","","","null","","<div class='trialDiv'><img src='trustrating_stim/white_00519_940519_fb_edt.bmp'><br><font class='baseline'><strong>Benjamin</strong><p>Choose number of points to send.</font><div class='respPicDiv'><img src='img/responseButtonOffersNo0L5.png' class='respPic'></div></div>","null","2","Benjamin","8","Shared","0.65,0.35","14","0.65","trustrating_stim/white_00519_940519_fb_edt.bmp","7.5","27","4"
"","","","feedback","63f3a7e45f338798fd025d99","bdp_trlrn","Wed Mar 15 2023 14:13:12 GMT-0500 (Central Daylight Time)","1025642","Trustworthy,Untrustworthy","html-keyboard-response","149","613630","0.0-19.0-3.3","","","null","","<div class='trialDiv'><img src='trustrating_stim/white_00519_940519_fb_edt.bmp'><br><font class='baseline'><strong>Benjamin</strong><p>Received: <strong>20</strong></font> &nbsp; &nbsp; &nbsp; &nbsp; &nbsp; &nbsp;<font class='posOutcome'>Shared back: <strong>10</strong></font></font><div class='respPicDiv'><img src='img/responseButtonOffersNo0_wht.png' class='respPic'></div></div>","null","2","Benjamin","8","Shared","0.65,0.35","14","0.65","trustrating_stim/white_00519_940519_fb_edt.bmp","7.5","37","4"
"","","","decision","63f3a7e45f338798fd025d99","bdp_trlrn","Wed Mar 15 2023 14:13:12 GMT-0500 (Central Daylight Time)","1025642","Trustworthy,Untrustworthy","html-keyboard-response","150","617449","0.0-19.0-1.4","","","3818","","<div class='trialDiv'><img src='trustrating_stim/white_mw060.bmp'><br><font class='baseline'><strong>Michael</strong><p>Choose number of points to send.</font><div class='respPicDiv'><img src='img/responseButtonOffersNo0L.png' class='respPic'></div></div>","5","2","Michael","0","Kept","0.65,0.2","13","0.65","trustrating_stim/white_mw060.bmp","1.5","42","5"
"","","","decisionFB","63f3a7e45f338798fd025d99","bdp_trlrn","Wed Mar 15 2023 14:13:12 GMT-0500 (Central Daylight Time)","1025642","Trustworthy,Untrustworthy","html-keyboard-response","151","617707","0.0-19.0-2.4","","","null","","<div class='trialDiv'><img src='trustrating_stim/white_mw060.bmp'><br><font class='baseline'><strong>Michael</strong><p>Choose number of points to send.</font><div class='respPicDiv'><img src='img/responseButtonOffersNo0L5.png' class='respPic'></div></div>","null","2","Michael","0","Kept","0.65,0.2","13","0.65","trustrating_stim/white_mw060.bmp","1.5","37","5"
"","","","feedback","63f3a7e45f338798fd025d99","bdp_trlrn","Wed Mar 15 2023 14:13:12 GMT-0500 (Central Daylight Time)","1025642","Trustworthy,Untrustworthy","html-keyboard-response","152","618720","0.0-19.0-3.4","","","null","","<div class='trialDiv'><img src='trustrating_stim/white_mw060.bmp'><br><font class='baseline'><strong>Michael</strong><p>Received: <strong>20</strong></font> &nbsp; &nbsp; &nbsp; &nbsp; &nbsp; &nbsp;<font class='negOutcome'>Shared back: <strong>0</strong></font></font><div class='respPicDiv'><img src='img/responseButtonOffersNo0_wht.png' class='respPic'></div></div>","null","2","Michael","0","Kept","0.65,0.2","13","0.65","trustrating_stim/white_mw060.bmp","1.5","37","5"
"","","","decision","63f3a7e45f338798fd025d99","bdp_trlrn","Wed Mar 15 2023 14:13:12 GMT-0500 (Central Daylight Time)","1025642","Trustworthy,Untrustworthy","html-keyboard-response","153","621946","0.0-19.0-1.5","","","3226","","<div class='trialDiv'><img src='trustrating_stim/white_mw033.bmp'><br><font class='baseline'><strong>Jacob</strong><p>Choose number of points to send.</font><div class='respPicDiv'><img src='img/responseButtonOffersNo0L.png' class='respPic'></div></div>","4","2","Jacob","5","Kept","0.2,0.65","11","0.2","trustrating_stim/white_mw033.bmp","5","42","6"
"","","","decisionFB","63f3a7e45f338798fd025d99","bdp_trlrn","Wed Mar 15 2023 14:13:12 GMT-0500 (Central Daylight Time)","1025642","Trustworthy,Untrustworthy","html-keyboard-response","154","622200","0.0-19.0-2.5","","","null","","<div class='trialDiv'><img src='trustrating_stim/white_mw033.bmp'><br><font class='baseline'><strong>Jacob</strong><p>Choose number of points to send.</font><div class='respPicDiv'><img src='img/responseButtonOffersNo0L4.png' class='respPic'></div></div>","null","2","Jacob","5","Kept","0.2,0.65","11","0.2","trustrating_stim/white_mw033.bmp","5","38","6"
"","","","feedback","63f3a7e45f338798fd025d99","bdp_trlrn","Wed Mar 15 2023 14:13:12 GMT-0500 (Central Daylight Time)","1025642","Trustworthy,Untrustworthy","html-keyboard-response","155","623213","0.0-19.0-3.5","","","null","","<div class='trialDiv'><img src='trustrating_stim/white_mw033.bmp'><br><font class='baseline'><strong>Jacob</strong><p>Received: <strong>16</strong></font> &nbsp; &nbsp; &nbsp; &nbsp; &nbsp; &nbsp;<font class='negOutcome'>Shared back: <strong>0</strong></font></font><div class='respPicDiv'><img src='img/responseButtonOffersNo0_wht.png' class='respPic'></div></div>","null","2","Jacob","5","Kept","0.2,0.65","11","0.2","trustrating_stim/white_mw033.bmp","5","38","6"
"","","","decision","63f3a7e45f338798fd025d99","bdp_trlrn","Wed Mar 15 2023 14:13:12 GMT-0500 (Central Daylight Time)","1025642","Trustworthy,Untrustworthy","html-keyboard-response","156","626447","0.0-19.0-1.6","","","3234","","<div class='trialDiv'><img src='trustrating_stim/white_00519_940519_fb_edt.bmp'><br><font class='baseline'><strong>Benjamin</strong><p>Choose number of points to send.</font><div class='respPicDiv'><img src='img/responseButtonOffersNo0L.png' class='respPic'></div></div>","5","3","Benjamin","8","Kept","0.65,0.35","14","0.65","trustrating_stim/white_00519_940519_fb_edt.bmp","7.5","43","7"
"","","","decisionFB","63f3a7e45f338798fd025d99","bdp_trlrn","Wed Mar 15 2023 14:13:12 GMT-0500 (Central Daylight Time)","1025642","Trustworthy,Untrustworthy","html-keyboard-response","157","626709","0.0-19.0-2.6","","","null","","<div class='trialDiv'><img src='trustrating_stim/white_00519_940519_fb_edt.bmp'><br><font class='baseline'><strong>Benjamin</strong><p>Choose number of points to send.</font><div class='respPicDiv'><img src='img/responseButtonOffersNo0L5.png' class='respPic'></div></div>","null","3","Benjamin","8","Kept","0.65,0.35","14","0.65","trustrating_stim/white_00519_940519_fb_edt.bmp","7.5","38","7"
"","","","feedback","63f3a7e45f338798fd025d99","bdp_trlrn","Wed Mar 15 2023 14:13:12 GMT-0500 (Central Daylight Time)","1025642","Trustworthy,Untrustworthy","html-keyboard-response","158","627726","0.0-19.0-3.6","","","null","","<div class='trialDiv'><img src='trustrating_stim/white_00519_940519_fb_edt.bmp'><br><font class='baseline'><strong>Benjamin</strong><p>Received: <strong>20</strong></font> &nbsp; &nbsp; &nbsp; &nbsp; &nbsp; &nbsp;<font class='negOutcome'>Shared back: <strong>0</strong></font></font><div class='respPicDiv'><img src='img/responseButtonOffersNo0_wht.png' class='respPic'></div></div>","null","3","Benjamin","8","Kept","0.65,0.35","14","0.65","trustrating_stim/white_00519_940519_fb_edt.bmp","7.5","38","7"
"","","","decision","63f3a7e45f338798fd025d99","bdp_trlrn","Wed Mar 15 2023 14:13:12 GMT-0500 (Central Daylight Time)","1025642","Trustworthy,Untrustworthy","html-keyboard-response","159","631789","0.0-19.0-1.7","","","4062","","<div class='trialDiv'><img src='trustrating_stim/white_mw033.bmp'><br><font class='baseline'><strong>Jacob</strong><p>Choose number of points to send.</font><div class='respPicDiv'><img src='img/responseButtonOffersNo0L.png' class='respPic'></div></div>","2","3","Jacob","5","Kept","0.2,0.65","11","0.2","trustrating_stim/white_mw033.bmp","5","43","8"
"","","","decisionFB","63f3a7e45f338798fd025d99","bdp_trlrn","Wed Mar 15 2023 14:13:12 GMT-0500 (Central Daylight Time)","1025642","Trustworthy,Untrustworthy","html-keyboard-response","160","632043","0.0-19.0-2.7","","","null","","<div class='trialDiv'><img src='trustrating_stim/white_mw033.bmp'><br><font class='baseline'><strong>Jacob</strong><p>Choose number of points to send.</font><div class='respPicDiv'><img src='img/responseButtonOffersNo0L2.png' class='respPic'></div></div>","null","3","Jacob","5","Kept","0.2,0.65","11","0.2","trustrating_stim/white_mw033.bmp","5","41","8"
"","","","feedback","63f3a7e45f338798fd025d99","bdp_trlrn","Wed Mar 15 2023 14:13:12 GMT-0500 (Central Daylight Time)","1025642","Trustworthy,Untrustworthy","html-keyboard-response","161","633055","0.0-19.0-3.7","","","null","","<div class='trialDiv'><img src='trustrating_stim/white_mw033.bmp'><br><font class='baseline'><strong>Jacob</strong><p>Received: <strong>8</strong></font> &nbsp; &nbsp; &nbsp; &nbsp; &nbsp; &nbsp;<font class='negOutcome'>Shared back: <strong>0</strong></font></font><div class='respPicDiv'><img src='img/responseButtonOffersNo0_wht.png' class='respPic'></div></div>","null","3","Jacob","5","Kept","0.2,0.65","11","0.2","trustrating_stim/white_mw033.bmp","5","41","8"
"","","","decision","63f3a7e45f338798fd025d99","bdp_trlrn","Wed Mar 15 2023 14:13:12 GMT-0500 (Central Daylight Time)","1025642","Trustworthy,Untrustworthy","html-keyboard-response","162","635865","0.0-19.0-1.8","","","2810","","<div class='trialDiv'><img src='trustrating_stim/white_mw060.bmp'><br><font class='baseline'><strong>Michael</strong><p>Choose number of points to send.</font><div class='respPicDiv'><img src='img/responseButtonOffersNo0L.png' class='respPic'></div></div>","1","3","Michael","0","Kept","0.65,0.2","13","0.65","trustrating_stim/white_mw060.bmp","1.5","46","9"
"","","","decisionFB","63f3a7e45f338798fd025d99","bdp_trlrn","Wed Mar 15 2023 14:13:12 GMT-0500 (Central Daylight Time)","1025642","Trustworthy,Untrustworthy","html-keyboard-response","163","636116","0.0-19.0-2.8","","","null","","<div class='trialDiv'><img src='trustrating_stim/white_mw060.bmp'><br><font class='baseline'><strong>Michael</strong><p>Choose number of points to send.</font><div class='respPicDiv'><img src='img/responseButtonOffersNo0L1.png' class='respPic'></div></div>","null","3","Michael","0","Kept","0.65,0.2","13","0.65","trustrating_stim/white_mw060.bmp","1.5","45","9"
"","","","feedback","63f3a7e45f338798fd025d99","bdp_trlrn","Wed Mar 15 2023 14:13:12 GMT-0500 (Central Daylight Time)","1025642","Trustworthy,Untrustworthy","html-keyboard-response","164","637120","0.0-19.0-3.8","","","null","","<div class='trialDiv'><img src='trustrating_stim/white_mw060.bmp'><br><font class='baseline'><strong>Michael</strong><p>Received: <strong>4</strong></font> &nbsp; &nbsp; &nbsp; &nbsp; &nbsp; &nbsp;<font class='negOutcome'>Shared back: <strong>0</strong></font></font><div class='respPicDiv'><img src='img/responseButtonOffersNo0_wht.png' class='respPic'></div></div>","null","3","Michael","0","Kept","0.65,0.2","13","0.65","trustrating_stim/white_mw060.bmp","1.5","45","9"
"","","","decision","63f3a7e45f338798fd025d99","bdp_trlrn","Wed Mar 15 2023 14:13:12 GMT-0500 (Central Daylight Time)","1025642","Trustworthy,Untrustworthy","html-keyboard-response","165","637922","0.0-19.0-1.9","","","801","","<div class='trialDiv'><img src='trustrating_stim/white_00519_940519_fb_edt.bmp'><br><font class='baseline'><strong>Benjamin</strong><p>Choose number of points to send.</font><div class='respPicDiv'><img src='img/responseButtonOffersNo0L.png' class='respPic'></div></div>","1","4","Benjamin","8","Shared","0.65,0.35","14","0.65","trustrating_stim/white_00519_940519_fb_edt.bmp","7.5","50","10"
"","","","decisionFB","63f3a7e45f338798fd025d99","bdp_trlrn","Wed Mar 15 2023 14:13:12 GMT-0500 (Central Daylight Time)","1025642","Trustworthy,Untrustworthy","html-keyboard-response","166","638180","0.0-19.0-2.9","","","null","","<div class='trialDiv'><img src='trustrating_stim/white_00519_940519_fb_edt.bmp'><br><font class='baseline'><strong>Benjamin</strong><p>Choose number of points to send.</font><div class='respPicDiv'><img src='img/responseButtonOffersNo0L1.png' class='respPic'></div></div>","null","4","Benjamin","8","Shared","0.65,0.35","14","0.65","trustrating_stim/white_00519_940519_fb_edt.bmp","7.5","49","10"
"","","","feedback","63f3a7e45f338798fd025d99","bdp_trlrn","Wed Mar 15 2023 14:13:12 GMT-0500 (Central Daylight Time)","1025642","Trustworthy,Untrustworthy","html-keyboard-response","167","639189","0.0-19.0-3.9","","","null","","<div class='trialDiv'><img src='trustrating_stim/white_00519_940519_fb_edt.bmp'><br><font class='baseline'><strong>Benjamin</strong><p>Received: <strong>4</strong></font> &nbsp; &nbsp; &nbsp; &nbsp; &nbsp; &nbsp;<font class='posOutcome'>Shared back: <strong>2</strong></font></font><div class='respPicDiv'><img src='img/responseButtonOffersNo0_wht.png' class='respPic'></div></div>","null","4","Benjamin","8","Shared","0.65,0.35","14","0.65","trustrating_stim/white_00519_940519_fb_edt.bmp","7.5","51","10"
"","","","decision","63f3a7e45f338798fd025d99","bdp_trlrn","Wed Mar 15 2023 14:13:12 GMT-0500 (Central Daylight Time)","1025642","Trustworthy,Untrustworthy","html-keyboard-response","168","640981","0.0-19.0-1.10","","","1791","","<div class='trialDiv'><img src='trustrating_stim/white_mw060.bmp'><br><font class='baseline'><strong>Michael</strong><p>Choose number of points to send.</font><div class='respPicDiv'><img src='img/responseButtonOffersNo0L.png' class='respPic'></div></div>","2","4","Michael","0","Kept","0.65,0.2","13","0.65","trustrating_stim/white_mw060.bmp","1.5","56","11"
"","","","decisionFB","63f3a7e45f338798fd025d99","bdp_trlrn","Wed Mar 15 2023 14:13:12 GMT-0500 (Central Daylight Time)","1025642","Trustworthy,Untrustworthy","html-keyboard-response","169","641237","0.0-19.0-2.10","","","null","","<div class='trialDiv'><img src='trustrating_stim/white_mw060.bmp'><br><font class='baseline'><strong>Michael</strong><p>Choose number of points to send.</font><div class='respPicDiv'><img src='img/responseButtonOffersNo0L2.png' class='respPic'></div></div>","null","4","Michael","0","Kept","0.65,0.2","13","0.65","trustrating_stim/white_mw060.bmp","1.5","54","11"
"","","","feedback","63f3a7e45f338798fd025d99","bdp_trlrn","Wed Mar 15 2023 14:13:12 GMT-0500 (Central Daylight Time)","1025642","Trustworthy,Untrustworthy","html-keyboard-response","170","642253","0.0-19.0-3.10","","","null","","<div class='trialDiv'><img src='trustrating_stim/white_mw060.bmp'><br><font class='baseline'><strong>Michael</strong><p>Received: <strong>8</strong></font> &nbsp; &nbsp; &nbsp; &nbsp; &nbsp; &nbsp;<font class='negOutcome'>Shared back: <strong>0</strong></font></font><div class='respPicDiv'><img src='img/responseButtonOffersNo0_wht.png' class='respPic'></div></div>","null","4","Michael","0","Kept","0.65,0.2","13","0.65","trustrating_stim/white_mw060.bmp","1.5","54","11"
"","","","decision","63f3a7e45f338798fd025d99","bdp_trlrn","Wed Mar 15 2023 14:13:12 GMT-0500 (Central Daylight Time)","1025642","Trustworthy,Untrustworthy","html-keyboard-response","171","643880","0.0-19.0-1.11","","","1626","","<div class='trialDiv'><img src='trustrating_stim/white_mw033.bmp'><br><font class='baseline'><strong>Jacob</strong><p>Choose number of points to send.</font><div class='respPicDiv'><img src='img/responseButtonOffersNo0L.png' class='respPic'></div></div>","1","4","Jacob","5","Kept","0.2,0.65","11","0.2","trustrating_stim/white_mw033.bmp","5","59","12"
"","","","decisionFB","63f3a7e45f338798fd025d99","bdp_trlrn","Wed Mar 15 2023 14:13:12 GMT-0500 (Central Daylight Time)","1025642","Trustworthy,Untrustworthy","html-keyboard-response","172","644134","0.0-19.0-2.11","","","null","","<div class='trialDiv'><img src='trustrating_stim/white_mw033.bmp'><br><font class='baseline'><strong>Jacob</strong><p>Choose number of points to send.</font><div class='respPicDiv'><img src='img/responseButtonOffersNo0L1.png' class='respPic'></div></div>","null","4","Jacob","5","Kept","0.2,0.65","11","0.2","trustrating_stim/white_mw033.bmp","5","58","12"
"","","","feedback","63f3a7e45f338798fd025d99","bdp_trlrn","Wed Mar 15 2023 14:13:12 GMT-0500 (Central Daylight Time)","1025642","Trustworthy,Untrustworthy","html-keyboard-response","173","645151","0.0-19.0-3.11","","","null","","<div class='trialDiv'><img src='trustrating_stim/white_mw033.bmp'><br><font class='baseline'><strong>Jacob</strong><p>Received: <strong>4</strong></font> &nbsp; &nbsp; &nbsp; &nbsp; &nbsp; &nbsp;<font class='negOutcome'>Shared back: <strong>0</strong></font></font><div class='respPicDiv'><img src='img/responseButtonOffersNo0_wht.png' class='respPic'></div></div>","null","4","Jacob","5","Kept","0.2,0.65","11","0.2","trustrating_stim/white_mw033.bmp","5","58","12"
"","","","decision","63f3a7e45f338798fd025d99","bdp_trlrn","Wed Mar 15 2023 14:13:12 GMT-0500 (Central Daylight Time)","1025642","Trustworthy,Untrustworthy","html-keyboard-response","174","649006","0.0-19.0-1.12","","","3855","","<div class='trialDiv'><img src='trustrating_stim/white_mw060.bmp'><br><font class='baseline'><strong>Michael</strong><p>Choose number of points to send.</font><div class='respPicDiv'><img src='img/responseButtonOffersNo0L.png' class='respPic'></div></div>","4","5","Michael","0","Shared","0.65,0.2","13","0.65","trustrating_stim/white_mw060.bmp","1.5","63","13"
"","","","decisionFB","63f3a7e45f338798fd025d99","bdp_trlrn","Wed Mar 15 2023 14:13:12 GMT-0500 (Central Daylight Time)","1025642","Trustworthy,Untrustworthy","html-keyboard-response","175","649267","0.0-19.0-2.12","","","null","","<div class='trialDiv'><img src='trustrating_stim/white_mw060.bmp'><br><font class='baseline'><strong>Michael</strong><p>Choose number of points to send.</font><div class='respPicDiv'><img src='img/responseButtonOffersNo0L4.png' class='respPic'></div></div>","null","5","Michael","0","Shared","0.65,0.2","13","0.65","trustrating_stim/white_mw060.bmp","1.5","59","13"
"","","","feedback","63f3a7e45f338798fd025d99","bdp_trlrn","Wed Mar 15 2023 14:13:12 GMT-0500 (Central Daylight Time)","1025642","Trustworthy,Untrustworthy","html-keyboard-response","176","650272","0.0-19.0-3.12","","","null","","<div class='trialDiv'><img src='trustrating_stim/white_mw060.bmp'><br><font class='baseline'><strong>Michael</strong><p>Received: <strong>16</strong></font> &nbsp; &nbsp; &nbsp; &nbsp; &nbsp; &nbsp;<font class='posOutcome'>Shared back: <strong>8</strong></font></font><div class='respPicDiv'><img src='img/responseButtonOffersNo0_wht.png' class='respPic'></div></div>","null","5","Michael","0","Shared","0.65,0.2","13","0.65","trustrating_stim/white_mw060.bmp","1.5","67","13"
"","","","decision","63f3a7e45f338798fd025d99","bdp_trlrn","Wed Mar 15 2023 14:13:12 GMT-0500 (Central Daylight Time)","1025642","Trustworthy,Untrustworthy","html-keyboard-response","177","652770","0.0-19.0-1.13","","","2498","","<div class='trialDiv'><img src='trustrating_stim/white_00519_940519_fb_edt.bmp'><br><font class='baseline'><strong>Benjamin</strong><p>Choose number of points to send.</font><div class='respPicDiv'><img src='img/responseButtonOffersNo0L.png' class='respPic'></div></div>","4","5","Benjamin","8","Shared","0.65,0.35","14","0.65","trustrating_stim/white_00519_940519_fb_edt.bmp","7.5","72","14"
"","","","decisionFB","63f3a7e45f338798fd025d99","bdp_trlrn","Wed Mar 15 2023 14:13:12 GMT-0500 (Central Daylight Time)","1025642","Trustworthy,Untrustworthy","html-keyboard-response","178","653032","0.0-19.0-2.13","","","null","","<div class='trialDiv'><img src='trustrating_stim/white_00519_940519_fb_edt.bmp'><br><font class='baseline'><strong>Benjamin</strong><p>Choose number of points to send.</font><div class='respPicDiv'><img src='img/responseButtonOffersNo0L4.png' class='respPic'></div></div>","null","5","Benjamin","8","Shared","0.65,0.35","14","0.65","trustrating_stim/white_00519_940519_fb_edt.bmp","7.5","68","14"
"","","","feedback","63f3a7e45f338798fd025d99","bdp_trlrn","Wed Mar 15 2023 14:13:12 GMT-0500 (Central Daylight Time)","1025642","Trustworthy,Untrustworthy","html-keyboard-response","179","654036","0.0-19.0-3.13","","","null","","<div class='trialDiv'><img src='trustrating_stim/white_00519_940519_fb_edt.bmp'><br><font class='baseline'><strong>Benjamin</strong><p>Received: <strong>16</strong></font> &nbsp; &nbsp; &nbsp; &nbsp; &nbsp; &nbsp;<font class='posOutcome'>Shared back: <strong>8</strong></font></font><div class='respPicDiv'><img src='img/responseButtonOffersNo0_wht.png' class='respPic'></div></div>","null","5","Benjamin","8","Shared","0.65,0.35","14","0.65","trustrating_stim/white_00519_940519_fb_edt.bmp","7.5","76","14"
"","","","decision","63f3a7e45f338798fd025d99","bdp_trlrn","Wed Mar 15 2023 14:13:12 GMT-0500 (Central Daylight Time)","1025642","Trustworthy,Untrustworthy","html-keyboard-response","180","656109","0.0-19.0-1.14","","","2072","","<div class='trialDiv'><img src='trustrating_stim/white_mw033.bmp'><br><font class='baseline'><strong>Jacob</strong><p>Choose number of points to send.</font><div class='respPicDiv'><img src='img/responseButtonOffersNo0L.png' class='respPic'></div></div>","1","5","Jacob","5","Kept","0.2,0.65","11","0.2","trustrating_stim/white_mw033.bmp","5","81","15"
"","","","decisionFB","63f3a7e45f338798fd025d99","bdp_trlrn","Wed Mar 15 2023 14:13:12 GMT-0500 (Central Daylight Time)","1025642","Trustworthy,Untrustworthy","html-keyboard-response","181","656369","0.0-19.0-2.14","","","null","","<div class='trialDiv'><img src='trustrating_stim/white_mw033.bmp'><br><font class='baseline'><strong>Jacob</strong><p>Choose number of points to send.</font><div class='respPicDiv'><img src='img/responseButtonOffersNo0L1.png' class='respPic'></div></div>","null","5","Jacob","5","Kept","0.2,0.65","11","0.2","trustrating_stim/white_mw033.bmp","5","80","15"
"","","","feedback","63f3a7e45f338798fd025d99","bdp_trlrn","Wed Mar 15 2023 14:13:12 GMT-0500 (Central Daylight Time)","1025642","Trustworthy,Untrustworthy","html-keyboard-response","182","657385","0.0-19.0-3.14","","","null","","<div class='trialDiv'><img src='trustrating_stim/white_mw033.bmp'><br><font class='baseline'><strong>Jacob</strong><p>Received: <strong>4</strong></font> &nbsp; &nbsp; &nbsp; &nbsp; &nbsp; &nbsp;<font class='negOutcome'>Shared back: <strong>0</strong></font></font><div class='respPicDiv'><img src='img/responseButtonOffersNo0_wht.png' class='respPic'></div></div>","null","5","Jacob","5","Kept","0.2,0.65","11","0.2","trustrating_stim/white_mw033.bmp","5","80","15"
"","","","decision","63f3a7e45f338798fd025d99","bdp_trlrn","Wed Mar 15 2023 14:13:12 GMT-0500 (Central Daylight Time)","1025642","Trustworthy,Untrustworthy","html-keyboard-response","183","659251","0.0-19.0-1.15","","","1865","","<div class='trialDiv'><img src='trustrating_stim/white_mw060.bmp'><br><font class='baseline'><strong>Michael</strong><p>Choose number of points to send.</font><div class='respPicDiv'><img src='img/responseButtonOffersNo0L.png' class='respPic'></div></div>","1","6","Michael","0","Shared","0.65,0.2","13","0.65","trustrating_stim/white_mw060.bmp","1.5","85","16"
"","","","decisionFB","63f3a7e45f338798fd025d99","bdp_trlrn","Wed Mar 15 2023 14:13:12 GMT-0500 (Central Daylight Time)","1025642","Trustworthy,Untrustworthy","html-keyboard-response","184","659506","0.0-19.0-2.15","","","null","","<div class='trialDiv'><img src='trustrating_stim/white_mw060.bmp'><br><font class='baseline'><strong>Michael</strong><p>Choose number of points to send.</font><div class='respPicDiv'><img src='img/responseButtonOffersNo0L1.png' class='respPic'></div></div>","null","6","Michael","0","Shared","0.65,0.2","13","0.65","trustrating_stim/white_mw060.bmp","1.5","84","16"
"","","","feedback","63f3a7e45f338798fd025d99","bdp_trlrn","Wed Mar 15 2023 14:13:12 GMT-0500 (Central Daylight Time)","1025642","Trustworthy,Untrustworthy","html-keyboard-response","185","660522","0.0-19.0-3.15","","","null","","<div class='trialDiv'><img src='trustrating_stim/white_mw060.bmp'><br><font class='baseline'><strong>Michael</strong><p>Received: <strong>4</strong></font> &nbsp; &nbsp; &nbsp; &nbsp; &nbsp; &nbsp;<font class='posOutcome'>Shared back: <strong>2</strong></font></font><div class='respPicDiv'><img src='img/responseButtonOffersNo0_wht.png' class='respPic'></div></div>","null","6","Michael","0","Shared","0.65,0.2","13","0.65","trustrating_stim/white_mw060.bmp","1.5","86","16"
"","","","decision","63f3a7e45f338798fd025d99","bdp_trlrn","Wed Mar 15 2023 14:13:12 GMT-0500 (Central Daylight Time)","1025642","Trustworthy,Untrustworthy","html-keyboard-response","186","663030","0.0-19.0-1.16","","","2508","","<div class='trialDiv'><img src='trustrating_stim/white_00519_940519_fb_edt.bmp'><br><font class='baseline'><strong>Benjamin</strong><p>Choose number of points to send.</font><div class='respPicDiv'><img src='img/responseButtonOffersNo0L.png' class='respPic'></div></div>","4","6","Benjamin","8","Shared","0.65,0.35","14","0.65","trustrating_stim/white_00519_940519_fb_edt.bmp","7.5","91","17"
"","","","decisionFB","63f3a7e45f338798fd025d99","bdp_trlrn","Wed Mar 15 2023 14:13:12 GMT-0500 (Central Daylight Time)","1025642","Trustworthy,Untrustworthy","html-keyboard-response","187","663295","0.0-19.0-2.16","","","null","","<div class='trialDiv'><img src='trustrating_stim/white_00519_940519_fb_edt.bmp'><br><font class='baseline'><strong>Benjamin</strong><p>Choose number of points to send.</font><div class='respPicDiv'><img src='img/responseButtonOffersNo0L4.png' class='respPic'></div></div>","null","6","Benjamin","8","Shared","0.65,0.35","14","0.65","trustrating_stim/white_00519_940519_fb_edt.bmp","7.5","87","17"
"","","","feedback","63f3a7e45f338798fd025d99","bdp_trlrn","Wed Mar 15 2023 14:13:12 GMT-0500 (Central Daylight Time)","1025642","Trustworthy,Untrustworthy","html-keyboard-response","188","664311","0.0-19.0-3.16","","","null","","<div class='trialDiv'><img src='trustrating_stim/white_00519_940519_fb_edt.bmp'><br><font class='baseline'><strong>Benjamin</strong><p>Received: <strong>16</strong></font> &nbsp; &nbsp; &nbsp; &nbsp; &nbsp; &nbsp;<font class='posOutcome'>Shared back: <strong>8</strong></font></font><div class='respPicDiv'><img src='img/responseButtonOffersNo0_wht.png' class='respPic'></div></div>","null","6","Benjamin","8","Shared","0.65,0.35","14","0.65","trustrating_stim/white_00519_940519_fb_edt.bmp","7.5","95","17"
"","","","decision","63f3a7e45f338798fd025d99","bdp_trlrn","Wed Mar 15 2023 14:13:12 GMT-0500 (Central Daylight Time)","1025642","Trustworthy,Untrustworthy","html-keyboard-response","189","667295","0.0-19.0-1.17","","","2984","","<div class='trialDiv'><img src='trustrating_stim/white_mw033.bmp'><br><font class='baseline'><strong>Jacob</strong><p>Choose number of points to send.</font><div class='respPicDiv'><img src='img/responseButtonOffersNo0L.png' class='respPic'></div></div>","3","6","Jacob","5","Kept","0.2,0.65","11","0.2","trustrating_stim/white_mw033.bmp","5","100","18"
"","","","decisionFB","63f3a7e45f338798fd025d99","bdp_trlrn","Wed Mar 15 2023 14:13:12 GMT-0500 (Central Daylight Time)","1025642","Trustworthy,Untrustworthy","html-keyboard-response","190","667552","0.0-19.0-2.17","","","null","","<div class='trialDiv'><img src='trustrating_stim/white_mw033.bmp'><br><font class='baseline'><strong>Jacob</strong><p>Choose number of points to send.</font><div class='respPicDiv'><img src='img/responseButtonOffersNo0L3.png' class='respPic'></div></div>","null","6","Jacob","5","Kept","0.2,0.65","11","0.2","trustrating_stim/white_mw033.bmp","5","97","18"
"","","","feedback","63f3a7e45f338798fd025d99","bdp_trlrn","Wed Mar 15 2023 14:13:12 GMT-0500 (Central Daylight Time)","1025642","Trustworthy,Untrustworthy","html-keyboard-response","191","668560","0.0-19.0-3.17","","","null","","<div class='trialDiv'><img src='trustrating_stim/white_mw033.bmp'><br><font class='baseline'><strong>Jacob</strong><p>Received: <strong>12</strong></font> &nbsp; &nbsp; &nbsp; &nbsp; &nbsp; &nbsp;<font class='negOutcome'>Shared back: <strong>0</strong></font></font><div class='respPicDiv'><img src='img/responseButtonOffersNo0_wht.png' class='respPic'></div></div>","null","6","Jacob","5","Kept","0.2,0.65","11","0.2","trustrating_stim/white_mw033.bmp","5","97","18"
"","","","decision","63f3a7e45f338798fd025d99","bdp_trlrn","Wed Mar 15 2023 14:13:12 GMT-0500 (Central Daylight Time)","1025642","Trustworthy,Untrustworthy","html-keyboard-response","192","672362","0.0-19.0-1.18","","","3800","","<div class='trialDiv'><img src='trustrating_stim/white_00519_940519_fb_edt.bmp'><br><font class='baseline'><strong>Benjamin</strong><p>Choose number of points to send.</font><div class='respPicDiv'><img src='img/responseButtonOffersNo0L.png' class='respPic'></div></div>","5","7","Benjamin","8","Shared","0.65,0.35","14","0.65","trustrating_stim/white_00519_940519_fb_edt.bmp","7.5","102","19"
"","","","decisionFB","63f3a7e45f338798fd025d99","bdp_trlrn","Wed Mar 15 2023 14:13:12 GMT-0500 (Central Daylight Time)","1025642","Trustworthy,Untrustworthy","html-keyboard-response","193","672621","0.0-19.0-2.18","","","null","","<div class='trialDiv'><img src='trustrating_stim/white_00519_940519_fb_edt.bmp'><br><font class='baseline'><strong>Benjamin</strong><p>Choose number of points to send.</font><div class='respPicDiv'><img src='img/responseButtonOffersNo0L5.png' class='respPic'></div></div>","null","7","Benjamin","8","Shared","0.65,0.35","14","0.65","trustrating_stim/white_00519_940519_fb_edt.bmp","7.5","97","19"
"","","","feedback","63f3a7e45f338798fd025d99","bdp_trlrn","Wed Mar 15 2023 14:13:12 GMT-0500 (Central Daylight Time)","1025642","Trustworthy,Untrustworthy","html-keyboard-response","194","673625","0.0-19.0-3.18","","","null","","<div class='trialDiv'><img src='trustrating_stim/white_00519_940519_fb_edt.bmp'><br><font class='baseline'><strong>Benjamin</strong><p>Received: <strong>20</strong></font> &nbsp; &nbsp; &nbsp; &nbsp; &nbsp; &nbsp;<font class='posOutcome'>Shared back: <strong>10</strong></font></font><div class='respPicDiv'><img src='img/responseButtonOffersNo0_wht.png' class='respPic'></div></div>","null","7","Benjamin","8","Shared","0.65,0.35","14","0.65","trustrating_stim/white_00519_940519_fb_edt.bmp","7.5","107","19"
"","","","decision","63f3a7e45f338798fd025d99","bdp_trlrn","Wed Mar 15 2023 14:13:12 GMT-0500 (Central Daylight Time)","1025642","Trustworthy,Untrustworthy","html-keyboard-response","195","678586","0.0-19.0-1.19","","","4960","","<div class='trialDiv'><img src='trustrating_stim/white_mw060.bmp'><br><font class='baseline'><strong>Michael</strong><p>Choose number of points to send.</font><div class='respPicDiv'><img src='img/responseButtonOffersNo0L.png' class='respPic'></div></div>","4","7","Michael","0","Shared","0.65,0.2","13","0.65","trustrating_stim/white_mw060.bmp","1.5","112","20"
"","","","decisionFB","63f3a7e45f338798fd025d99","bdp_trlrn","Wed Mar 15 2023 14:13:12 GMT-0500 (Central Daylight Time)","1025642","Trustworthy,Untrustworthy","html-keyboard-response","196","678851","0.0-19.0-2.19","","","null","","<div class='trialDiv'><img src='trustrating_stim/white_mw060.bmp'><br><font class='baseline'><strong>Michael</strong><p>Choose number of points to send.</font><div class='respPicDiv'><img src='img/responseButtonOffersNo0L4.png' class='respPic'></div></div>","null","7","Michael","0","Shared","0.65,0.2","13","0.65","trustrating_stim/white_mw060.bmp","1.5","108","20"
"","","","feedback","63f3a7e45f338798fd025d99","bdp_trlrn","Wed Mar 15 2023 14:13:12 GMT-0500 (Central Daylight Time)","1025642","Trustworthy,Untrustworthy","html-keyboard-response","197","679860","0.0-19.0-3.19","","","null","","<div class='trialDiv'><img src='trustrating_stim/white_mw060.bmp'><br><font class='baseline'><strong>Michael</strong><p>Received: <strong>16</strong></font> &nbsp; &nbsp; &nbsp; &nbsp; &nbsp; &nbsp;<font class='posOutcome'>Shared back: <strong>8</strong></font></font><div class='respPicDiv'><img src='img/responseButtonOffersNo0_wht.png' class='respPic'></div></div>","null","7","Michael","0","Shared","0.65,0.2","13","0.65","trustrating_stim/white_mw060.bmp","1.5","116","20"
"","","","decision","63f3a7e45f338798fd025d99","bdp_trlrn","Wed Mar 15 2023 14:13:12 GMT-0500 (Central Daylight Time)","1025642","Trustworthy,Untrustworthy","html-keyboard-response","198","681568","0.0-19.0-1.20","","","1708","","<div class='trialDiv'><img src='trustrating_stim/white_mw033.bmp'><br><font class='baseline'><strong>Jacob</strong><p>Choose number of points to send.</font><div class='respPicDiv'><img src='img/responseButtonOffersNo0L.png' class='respPic'></div></div>","1","7","Jacob","5","Kept","0.2,0.65","11","0.2","trustrating_stim/white_mw033.bmp","5","121","21"
"","","","decisionFB","63f3a7e45f338798fd025d99","bdp_trlrn","Wed Mar 15 2023 14:13:12 GMT-0500 (Central Daylight Time)","1025642","Trustworthy,Untrustworthy","html-keyboard-response","199","681819","0.0-19.0-2.20","","","null","","<div class='trialDiv'><img src='trustrating_stim/white_mw033.bmp'><br><font class='baseline'><strong>Jacob</strong><p>Choose number of points to send.</font><div class='respPicDiv'><img src='img/responseButtonOffersNo0L1.png' class='respPic'></div></div>","null","7","Jacob","5","Kept","0.2,0.65","11","0.2","trustrating_stim/white_mw033.bmp","5","120","21"
"","","","feedback","63f3a7e45f338798fd025d99","bdp_trlrn","Wed Mar 15 2023 14:13:12 GMT-0500 (Central Daylight Time)","1025642","Trustworthy,Untrustworthy","html-keyboard-response","200","682832","0.0-19.0-3.20","","","null","","<div class='trialDiv'><img src='trustrating_stim/white_mw033.bmp'><br><font class='baseline'><strong>Jacob</strong><p>Received: <strong>4</strong></font> &nbsp; &nbsp; &nbsp; &nbsp; &nbsp; &nbsp;<font class='negOutcome'>Shared back: <strong>0</strong></font></font><div class='respPicDiv'><img src='img/responseButtonOffersNo0_wht.png' class='respPic'></div></div>","null","7","Jacob","5","Kept","0.2,0.65","11","0.2","trustrating_stim/white_mw033.bmp","5","120","21"
"","","","decision","63f3a7e45f338798fd025d99","bdp_trlrn","Wed Mar 15 2023 14:13:12 GMT-0500 (Central Daylight Time)","1025642","Trustworthy,Untrustworthy","html-keyboard-response","201","685793","0.0-19.0-1.21","","","2960","","<div class='trialDiv'><img src='trustrating_stim/white_mw060.bmp'><br><font class='baseline'><strong>Michael</strong><p>Choose number of points to send.</font><div class='respPicDiv'><img src='img/responseButtonOffersNo0L.png' class='respPic'></div></div>","4","8","Michael","0","Kept","0.65,0.2","13","0.65","trustrating_stim/white_mw060.bmp","1.5","125","22"
"","","","decisionFB","63f3a7e45f338798fd025d99","bdp_trlrn","Wed Mar 15 2023 14:13:12 GMT-0500 (Central Daylight Time)","1025642","Trustworthy,Untrustworthy","html-keyboard-response","202","686053","0.0-19.0-2.21","","","null","","<div class='trialDiv'><img src='trustrating_stim/white_mw060.bmp'><br><font class='baseline'><strong>Michael</strong><p>Choose number of points to send.</font><div class='respPicDiv'><img src='img/responseButtonOffersNo0L4.png' class='respPic'></div></div>","null","8","Michael","0","Kept","0.65,0.2","13","0.65","trustrating_stim/white_mw060.bmp","1.5","121","22"
"","","","feedback","63f3a7e45f338798fd025d99","bdp_trlrn","Wed Mar 15 2023 14:13:12 GMT-0500 (Central Daylight Time)","1025642","Trustworthy,Untrustworthy","html-keyboard-response","203","687061","0.0-19.0-3.21","","","null","","<div class='trialDiv'><img src='trustrating_stim/white_mw060.bmp'><br><font class='baseline'><strong>Michael</strong><p>Received: <strong>16</strong></font> &nbsp; &nbsp; &nbsp; &nbsp; &nbsp; &nbsp;<font class='negOutcome'>Shared back: <strong>0</strong></font></font><div class='respPicDiv'><img src='img/responseButtonOffersNo0_wht.png' class='respPic'></div></div>","null","8","Michael","0","Kept","0.65,0.2","13","0.65","trustrating_stim/white_mw060.bmp","1.5","121","22"
"","","","decision","63f3a7e45f338798fd025d99","bdp_trlrn","Wed Mar 15 2023 14:13:12 GMT-0500 (Central Daylight Time)","1025642","Trustworthy,Untrustworthy","html-keyboard-response","204","689153","0.0-19.0-1.22","","","2092","","<div class='trialDiv'><img src='trustrating_stim/white_mw033.bmp'><br><font class='baseline'><strong>Jacob</strong><p>Choose number of points to send.</font><div class='respPicDiv'><img src='img/responseButtonOffersNo0L.png' class='respPic'></div></div>","1","8","Jacob","5","Kept","0.2,0.65","11","0.2","trustrating_stim/white_mw033.bmp","5","126","23"
"","","","decisionFB","63f3a7e45f338798fd025d99","bdp_trlrn","Wed Mar 15 2023 14:13:12 GMT-0500 (Central Daylight Time)","1025642","Trustworthy,Untrustworthy","html-keyboard-response","205","689406","0.0-19.0-2.22","","","null","","<div class='trialDiv'><img src='trustrating_stim/white_mw033.bmp'><br><font class='baseline'><strong>Jacob</strong><p>Choose number of points to send.</font><div class='respPicDiv'><img src='img/responseButtonOffersNo0L1.png' class='respPic'></div></div>","null","8","Jacob","5","Kept","0.2,0.65","11","0.2","trustrating_stim/white_mw033.bmp","5","125","23"
"","","","feedback","63f3a7e45f338798fd025d99","bdp_trlrn","Wed Mar 15 2023 14:13:12 GMT-0500 (Central Daylight Time)","1025642","Trustworthy,Untrustworthy","html-keyboard-response","206","690422","0.0-19.0-3.22","","","null","","<div class='trialDiv'><img src='trustrating_stim/white_mw033.bmp'><br><font class='baseline'><strong>Jacob</strong><p>Received: <strong>4</strong></font> &nbsp; &nbsp; &nbsp; &nbsp; &nbsp; &nbsp;<font class='negOutcome'>Shared back: <strong>0</strong></font></font><div class='respPicDiv'><img src='img/responseButtonOffersNo0_wht.png' class='respPic'></div></div>","null","8","Jacob","5","Kept","0.2,0.65","11","0.2","trustrating_stim/white_mw033.bmp","5","125","23"
"","","","decision","63f3a7e45f338798fd025d99","bdp_trlrn","Wed Mar 15 2023 14:13:12 GMT-0500 (Central Daylight Time)","1025642","Trustworthy,Untrustworthy","html-keyboard-response","207","692855","0.0-19.0-1.23","","","2433","","<div class='trialDiv'><img src='trustrating_stim/white_00519_940519_fb_edt.bmp'><br><font class='baseline'><strong>Benjamin</strong><p>Choose number of points to send.</font><div class='respPicDiv'><img src='img/responseButtonOffersNo0L.png' class='respPic'></div></div>","4","8","Benjamin","8","Kept","0.65,0.35","14","0.65","trustrating_stim/white_00519_940519_fb_edt.bmp","7.5","130","24"
"","","","decisionFB","63f3a7e45f338798fd025d99","bdp_trlrn","Wed Mar 15 2023 14:13:12 GMT-0500 (Central Daylight Time)","1025642","Trustworthy,Untrustworthy","html-keyboard-response","208","693118","0.0-19.0-2.23","","","null","","<div class='trialDiv'><img src='trustrating_stim/white_00519_940519_fb_edt.bmp'><br><font class='baseline'><strong>Benjamin</strong><p>Choose number of points to send.</font><div class='respPicDiv'><img src='img/responseButtonOffersNo0L4.png' class='respPic'></div></div>","null","8","Benjamin","8","Kept","0.65,0.35","14","0.65","trustrating_stim/white_00519_940519_fb_edt.bmp","7.5","126","24"
"","","","feedback","63f3a7e45f338798fd025d99","bdp_trlrn","Wed Mar 15 2023 14:13:12 GMT-0500 (Central Daylight Time)","1025642","Trustworthy,Untrustworthy","html-keyboard-response","209","694127","0.0-19.0-3.23","","","null","","<div class='trialDiv'><img src='trustrating_stim/white_00519_940519_fb_edt.bmp'><br><font class='baseline'><strong>Benjamin</strong><p>Received: <strong>16</strong></font> &nbsp; &nbsp; &nbsp; &nbsp; &nbsp; &nbsp;<font class='negOutcome'>Shared back: <strong>0</strong></font></font><div class='respPicDiv'><img src='img/responseButtonOffersNo0_wht.png' class='respPic'></div></div>","null","8","Benjamin","8","Kept","0.65,0.35","14","0.65","trustrating_stim/white_00519_940519_fb_edt.bmp","7.5","126","24"
"","","","decision","63f3a7e45f338798fd025d99","bdp_trlrn","Wed Mar 15 2023 14:13:12 GMT-0500 (Central Daylight Time)","1025642","Trustworthy,Untrustworthy","html-keyboard-response","210","696183","0.0-19.0-1.24","","","2056","","<div class='trialDiv'><img src='trustrating_stim/white_mw033.bmp'><br><font class='baseline'><strong>Jacob</strong><p>Choose number of points to send.</font><div class='respPicDiv'><img src='img/responseButtonOffersNo0L.png' class='respPic'></div></div>","1","9","Jacob","5","Kept","0.2,0.65","11","0.2","trustrating_stim/white_mw033.bmp","5","131","25"
"","","","decisionFB","63f3a7e45f338798fd025d99","bdp_trlrn","Wed Mar 15 2023 14:13:12 GMT-0500 (Central Daylight Time)","1025642","Trustworthy,Untrustworthy","html-keyboard-response","211","696436","0.0-19.0-2.24","","","null","","<div class='trialDiv'><img src='trustrating_stim/white_mw033.bmp'><br><font class='baseline'><strong>Jacob</strong><p>Choose number of points to send.</font><div class='respPicDiv'><img src='img/responseButtonOffersNo0L1.png' class='respPic'></div></div>","null","9","Jacob","5","Kept","0.2,0.65","11","0.2","trustrating_stim/white_mw033.bmp","5","130","25"
"","","","feedback","63f3a7e45f338798fd025d99","bdp_trlrn","Wed Mar 15 2023 14:13:12 GMT-0500 (Central Daylight Time)","1025642","Trustworthy,Untrustworthy","html-keyboard-response","212","697440","0.0-19.0-3.24","","","null","","<div class='trialDiv'><img src='trustrating_stim/white_mw033.bmp'><br><font class='baseline'><strong>Jacob</strong><p>Received: <strong>4</strong></font> &nbsp; &nbsp; &nbsp; &nbsp; &nbsp; &nbsp;<font class='negOutcome'>Shared back: <strong>0</strong></font></font><div class='respPicDiv'><img src='img/responseButtonOffersNo0_wht.png' class='respPic'></div></div>","null","9","Jacob","5","Kept","0.2,0.65","11","0.2","trustrating_stim/white_mw033.bmp","5","130","25"
"","","","decision","63f3a7e45f338798fd025d99","bdp_trlrn","Wed Mar 15 2023 14:13:12 GMT-0500 (Central Daylight Time)","1025642","Trustworthy,Untrustworthy","html-keyboard-response","213","699988","0.0-19.0-1.25","","","2547","","<div class='trialDiv'><img src='trustrating_stim/white_mw060.bmp'><br><font class='baseline'><strong>Michael</strong><p>Choose number of points to send.</font><div class='respPicDiv'><img src='img/responseButtonOffersNo0L.png' class='respPic'></div></div>","3","9","Michael","0","Shared","0.65,0.2","13","0.65","trustrating_stim/white_mw060.bmp","1.5","135","26"
"","","","decisionFB","63f3a7e45f338798fd025d99","bdp_trlrn","Wed Mar 15 2023 14:13:12 GMT-0500 (Central Daylight Time)","1025642","Trustworthy,Untrustworthy","html-keyboard-response","214","700245","0.0-19.0-2.25","","","null","","<div class='trialDiv'><img src='trustrating_stim/white_mw060.bmp'><br><font class='baseline'><strong>Michael</strong><p>Choose number of points to send.</font><div class='respPicDiv'><img src='img/responseButtonOffersNo0L3.png' class='respPic'></div></div>","null","9","Michael","0","Shared","0.65,0.2","13","0.65","trustrating_stim/white_mw060.bmp","1.5","132","26"
