"trial_type","trial_index","time_elapsed","internal_node_id","subject_id","task","startTime","totalTime","labels","view_history","rt","event","trial","time","trialtype","success","stimulus","key_press","aground","name","faceID","outcome","agenttype","agentswpt","agentcurrpshare","face","avgRating","point_total","round"
"pavlovia","0","2","0.0-0.0","60ef02ab65677c7c8803c120","bdp_trlrn","Wed Jul 27 2022 22:48:44 GMT-0500 (Central Daylight Time)","703930","Untrustworthy,Trustworthy","","","","","","","","","","","","","","","","","","","",""
"instructions","1","5737","0.0-1.0","60ef02ab65677c7c8803c120","bdp_trlrn","Wed Jul 27 2022 22:48:44 GMT-0500 (Central Daylight Time)","703930","Untrustworthy,Trustworthy","[{""page_index"":0,""viewing_time"":5735}]","5735","","","","","","","","","","","","","","","","","",""
"","","","","60ef02ab65677c7c8803c120","bdp_trlrn","Wed Jul 27 2022 22:48:44 GMT-0500 (Central Daylight Time)","703930","Untrustworthy,Trustworthy","","","fullscreenenter","2","9655","fullscreenenter","","","","","","","","","","","","","",""
"fullscreen","2","10656","0.0-2.0","60ef02ab65677c7c8803c120","bdp_trlrn","Wed Jul 27 2022 22:48:44 GMT-0500 (Central Daylight Time)","703930","Untrustworthy,Trustworthy","","","","","","","true","","","","","","","","","","","","",""
"instructions","3","30104","0.0-4.0","60ef02ab65677c7c8803c120","bdp_trlrn","Wed Jul 27 2022 22:48:44 GMT-0500 (Central Daylight Time)","703930","Untrustworthy,Trustworthy","[{""page_index"":0,""viewing_time"":7458},{""page_index"":1,""viewing_time"":11987}]","19445","","","","","","","","","","","","","","","","","",""
"instructions","4","31070","0.0-5.0","60ef02ab65677c7c8803c120","bdp_trlrn","Wed Jul 27 2022 22:48:44 GMT-0500 (Central Daylight Time)","703930","Untrustworthy,Trustworthy","[{""page_index"":0,""viewing_time"":966}]","966","","","","","","","","","","","","","","","","","",""
"image-keyboard-response","5","41622","0.0-6.0-1.0","60ef02ab65677c7c8803c120","bdp_trlrn","Wed Jul 27 2022 22:48:44 GMT-0500 (Central Daylight Time)","703930","Untrustworthy,Trustworthy","","10450","","","","rating","","trustrating_stim/white_mw056.bmp","7","","","","","","","","","","",""
"image-keyboard-response","6","41824","0.0-6.0-2.0","60ef02ab65677c7c8803c120","bdp_trlrn","Wed Jul 27 2022 22:48:44 GMT-0500 (Central Daylight Time)","703930","Untrustworthy,Trustworthy","","null","","","","ratingFB","","trustrating_stim/white_mw056.bmp","null","","","","","","","","","","",""
"image-keyboard-response","7","44944","0.0-6.0-1.1","60ef02ab65677c7c8803c120","bdp_trlrn","Wed Jul 27 2022 22:48:44 GMT-0500 (Central Daylight Time)","703930","Untrustworthy,Trustworthy","","3016","","","","rating","","trustrating_stim/white_00602_940928_fb_edt.bmp","4","","","","","","","","","","",""
"image-keyboard-response","8","45145","0.0-6.0-2.1","60ef02ab65677c7c8803c120","bdp_trlrn","Wed Jul 27 2022 22:48:44 GMT-0500 (Central Daylight Time)","703930","Untrustworthy,Trustworthy","","null","","","","ratingFB","","trustrating_stim/white_00602_940928_fb_edt.bmp","null","","","","","","","","","","",""
"image-keyboard-response","9","49276","0.0-6.0-1.2","60ef02ab65677c7c8803c120","bdp_trlrn","Wed Jul 27 2022 22:48:44 GMT-0500 (Central Daylight Time)","703930","Untrustworthy,Trustworthy","","4029","","","","rating","","trustrating_stim/white_00898_960530_fa_edt.bmp","6","","","","","","","","","","",""
"image-keyboard-response","10","49477","0.0-6.0-2.2","60ef02ab65677c7c8803c120","bdp_trlrn","Wed Jul 27 2022 22:48:44 GMT-0500 (Central Daylight Time)","703930","Untrustworthy,Trustworthy","","null","","","","ratingFB","","trustrating_stim/white_00898_960530_fa_edt.bmp","null","","","","","","","","","","",""
"image-keyboard-response","11","51455","0.0-6.0-1.3","60ef02ab65677c7c8803c120","bdp_trlrn","Wed Jul 27 2022 22:48:44 GMT-0500 (Central Daylight Time)","703930","Untrustworthy,Trustworthy","","1876","","","","rating","","trustrating_stim/white_00340_940422_fa_edt.bmp","2","","","","","","","","","","",""
"image-keyboard-response","12","51656","0.0-6.0-2.3","60ef02ab65677c7c8803c120","bdp_trlrn","Wed Jul 27 2022 22:48:44 GMT-0500 (Central Daylight Time)","703930","Untrustworthy,Trustworthy","","null","","","","ratingFB","","trustrating_stim/white_00340_940422_fa_edt.bmp","null","","","","","","","","","","",""
"image-keyboard-response","13","55526","0.0-6.0-1.4","60ef02ab65677c7c8803c120","bdp_trlrn","Wed Jul 27 2022 22:48:44 GMT-0500 (Central Daylight Time)","703930","Untrustworthy,Trustworthy","","3769","","","","rating","","trustrating_stim/white_00109_931230_fa_edt.bmp","6","","","","","","","","","","",""
"image-keyboard-response","14","55729","0.0-6.0-2.4","60ef02ab65677c7c8803c120","bdp_trlrn","Wed Jul 27 2022 22:48:44 GMT-0500 (Central Daylight Time)","703930","Untrustworthy,Trustworthy","","null","","","","ratingFB","","trustrating_stim/white_00109_931230_fa_edt.bmp","null","","","","","","","","","","",""
"image-keyboard-response","15","63410","0.0-6.0-1.5","60ef02ab65677c7c8803c120","bdp_trlrn","Wed Jul 27 2022 22:48:44 GMT-0500 (Central Daylight Time)","703930","Untrustworthy,Trustworthy","","7574","","","","rating","","trustrating_stim/white_mw046.bmp","2","","","","","","","","","","",""
"image-keyboard-response","16","63613","0.0-6.0-2.5","60ef02ab65677c7c8803c120","bdp_trlrn","Wed Jul 27 2022 22:48:44 GMT-0500 (Central Daylight Time)","703930","Untrustworthy,Trustworthy","","null","","","","ratingFB","","trustrating_stim/white_mw046.bmp","null","","","","","","","","","","",""
"image-keyboard-response","17","64929","0.0-6.0-1.6","60ef02ab65677c7c8803c120","bdp_trlrn","Wed Jul 27 2022 22:48:44 GMT-0500 (Central Daylight Time)","703930","Untrustworthy,Trustworthy","","1216","","","","rating","","trustrating_stim/white_00519_940519_fb_edt.bmp","1","","","","","","","","","","",""
"image-keyboard-response","18","65131","0.0-6.0-2.6","60ef02ab65677c7c8803c120","bdp_trlrn","Wed Jul 27 2022 22:48:44 GMT-0500 (Central Daylight Time)","703930","Untrustworthy,Trustworthy","","null","","","","ratingFB","","trustrating_stim/white_00519_940519_fb_edt.bmp","null","","","","","","","","","","",""
"image-keyboard-response","19","67123","0.0-6.0-1.7","60ef02ab65677c7c8803c120","bdp_trlrn","Wed Jul 27 2022 22:48:44 GMT-0500 (Central Daylight Time)","703930","Untrustworthy,Trustworthy","","1885","","","","rating","","trustrating_stim/white_mw060.bmp","1","","","","","","","","","","",""
"image-keyboard-response","20","67324","0.0-6.0-2.7","60ef02ab65677c7c8803c120","bdp_trlrn","Wed Jul 27 2022 22:48:44 GMT-0500 (Central Daylight Time)","703930","Untrustworthy,Trustworthy","","null","","","","ratingFB","","trustrating_stim/white_mw060.bmp","null","","","","","","","","","","",""
"image-keyboard-response","21","68806","0.0-6.0-1.8","60ef02ab65677c7c8803c120","bdp_trlrn","Wed Jul 27 2022 22:48:44 GMT-0500 (Central Daylight Time)","703930","Untrustworthy,Trustworthy","","1379","","","","rating","","trustrating_stim/white_mw063.bmp","1","","","","","","","","","","",""
"image-keyboard-response","22","69008","0.0-6.0-2.8","60ef02ab65677c7c8803c120","bdp_trlrn","Wed Jul 27 2022 22:48:44 GMT-0500 (Central Daylight Time)","703930","Untrustworthy,Trustworthy","","null","","","","ratingFB","","trustrating_stim/white_mw063.bmp","null","","","","","","","","","","",""
"image-keyboard-response","23","70809","0.0-6.0-1.9","60ef02ab65677c7c8803c120","bdp_trlrn","Wed Jul 27 2022 22:48:44 GMT-0500 (Central Daylight Time)","703930","Untrustworthy,Trustworthy","","1699","","","","rating","","trustrating_stim/white_00223_940128_fb_edt.bmp","2","","","","","","","","","","",""
"image-keyboard-response","24","71011","0.0-6.0-2.9","60ef02ab65677c7c8803c120","bdp_trlrn","Wed Jul 27 2022 22:48:44 GMT-0500 (Central Daylight Time)","703930","Untrustworthy,Trustworthy","","null","","","","ratingFB","","trustrating_stim/white_00223_940128_fb_edt.bmp","null","","","","","","","","","","",""
"image-keyboard-response","25","74364","0.0-6.0-1.10","60ef02ab65677c7c8803c120","bdp_trlrn","Wed Jul 27 2022 22:48:44 GMT-0500 (Central Daylight Time)","703930","Untrustworthy,Trustworthy","","3251","","","","rating","","trustrating_stim/white_mw099.bmp","2","","","","","","","","","","",""
"image-keyboard-response","26","74566","0.0-6.0-2.10","60ef02ab65677c7c8803c120","bdp_trlrn","Wed Jul 27 2022 22:48:44 GMT-0500 (Central Daylight Time)","703930","Untrustworthy,Trustworthy","","null","","","","ratingFB","","trustrating_stim/white_mw099.bmp","null","","","","","","","","","","",""
"image-keyboard-response","27","75886","0.0-6.0-1.11","60ef02ab65677c7c8803c120","bdp_trlrn","Wed Jul 27 2022 22:48:44 GMT-0500 (Central Daylight Time)","703930","Untrustworthy,Trustworthy","","1218","","","","rating","","trustrating_stim/white_00807_941205_fb_edt.bmp","1","","","","","","","","","","",""
"image-keyboard-response","28","76088","0.0-6.0-2.11","60ef02ab65677c7c8803c120","bdp_trlrn","Wed Jul 27 2022 22:48:44 GMT-0500 (Central Daylight Time)","703930","Untrustworthy,Trustworthy","","null","","","","ratingFB","","trustrating_stim/white_00807_941205_fb_edt.bmp","null","","","","","","","","","","",""
"image-keyboard-response","29","77176","0.0-6.0-1.12","60ef02ab65677c7c8803c120","bdp_trlrn","Wed Jul 27 2022 22:48:44 GMT-0500 (Central Daylight Time)","703930","Untrustworthy,Trustworthy","","986","","","","rating","","trustrating_stim/white_mw071.bmp","1","","","","","","","","","","",""
"image-keyboard-response","30","77378","0.0-6.0-2.12","60ef02ab65677c7c8803c120","bdp_trlrn","Wed Jul 27 2022 22:48:44 GMT-0500 (Central Daylight Time)","703930","Untrustworthy,Trustworthy","","null","","","","ratingFB","","trustrating_stim/white_mw071.bmp","null","","","","","","","","","","",""
"image-keyboard-response","31","80074","0.0-6.0-1.13","60ef02ab65677c7c8803c120","bdp_trlrn","Wed Jul 27 2022 22:48:44 GMT-0500 (Central Daylight Time)","703930","Untrustworthy,Trustworthy","","2595","","","","rating","","trustrating_stim/white_00659_941121_fa_edt.bmp","2","","","","","","","","","","",""
"image-keyboard-response","32","80276","0.0-6.0-2.13","60ef02ab65677c7c8803c120","bdp_trlrn","Wed Jul 27 2022 22:48:44 GMT-0500 (Central Daylight Time)","703930","Untrustworthy,Trustworthy","","null","","","","ratingFB","","trustrating_stim/white_00659_941121_fa_edt.bmp","null","","","","","","","","","","",""
"image-keyboard-response","33","81259","0.0-6.0-1.14","60ef02ab65677c7c8803c120","bdp_trlrn","Wed Jul 27 2022 22:48:44 GMT-0500 (Central Daylight Time)","703930","Untrustworthy,Trustworthy","","881","","","","rating","","trustrating_stim/white_00577_940928_fa_edt.bmp","1","","","","","","","","","","",""
"image-keyboard-response","34","81461","0.0-6.0-2.14","60ef02ab65677c7c8803c120","bdp_trlrn","Wed Jul 27 2022 22:48:44 GMT-0500 (Central Daylight Time)","703930","Untrustworthy,Trustworthy","","null","","","","ratingFB","","trustrating_stim/white_00577_940928_fa_edt.bmp","null","","","","","","","","","","",""
"image-keyboard-response","35","83512","0.0-6.0-1.15","60ef02ab65677c7c8803c120","bdp_trlrn","Wed Jul 27 2022 22:48:44 GMT-0500 (Central Daylight Time)","703930","Untrustworthy,Trustworthy","","1949","","","","rating","","trustrating_stim/white_00299_940422_fa_edt.bmp","3","","","","","","","","","","",""
"image-keyboard-response","36","83716","0.0-6.0-2.15","60ef02ab65677c7c8803c120","bdp_trlrn","Wed Jul 27 2022 22:48:44 GMT-0500 (Central Daylight Time)","703930","Untrustworthy,Trustworthy","","null","","","","ratingFB","","trustrating_stim/white_00299_940422_fa_edt.bmp","null","","","","","","","","","","",""
"image-keyboard-response","37","87125","0.0-6.0-1.16","60ef02ab65677c7c8803c120","bdp_trlrn","Wed Jul 27 2022 22:48:44 GMT-0500 (Central Daylight Time)","703930","Untrustworthy,Trustworthy","","3308","","","","rating","","trustrating_stim/white_mw049.bmp","4","","","","","","","","","","",""
"image-keyboard-response","38","87327","0.0-6.0-2.16","60ef02ab65677c7c8803c120","bdp_trlrn","Wed Jul 27 2022 22:48:44 GMT-0500 (Central Daylight Time)","703930","Untrustworthy,Trustworthy","","null","","","","ratingFB","","trustrating_stim/white_mw049.bmp","null","","","","","","","","","","",""
"image-keyboard-response","39","88625","0.0-6.0-1.17","60ef02ab65677c7c8803c120","bdp_trlrn","Wed Jul 27 2022 22:48:44 GMT-0500 (Central Daylight Time)","703930","Untrustworthy,Trustworthy","","1196","","","","rating","","trustrating_stim/white_mw048.bmp","1","","","","","","","","","","",""
"image-keyboard-response","40","88826","0.0-6.0-2.17","60ef02ab65677c7c8803c120","bdp_trlrn","Wed Jul 27 2022 22:48:44 GMT-0500 (Central Daylight Time)","703930","Untrustworthy,Trustworthy","","null","","","","ratingFB","","trustrating_stim/white_mw048.bmp","null","","","","","","","","","","",""
"image-keyboard-response","41","89962","0.0-6.0-1.18","60ef02ab65677c7c8803c120","bdp_trlrn","Wed Jul 27 2022 22:48:44 GMT-0500 (Central Daylight Time)","703930","Untrustworthy,Trustworthy","","1034","","","","rating","","trustrating_stim/white_mw035.bmp","1","","","","","","","","","","",""
"image-keyboard-response","42","90164","0.0-6.0-2.18","60ef02ab65677c7c8803c120","bdp_trlrn","Wed Jul 27 2022 22:48:44 GMT-0500 (Central Daylight Time)","703930","Untrustworthy,Trustworthy","","null","","","","ratingFB","","trustrating_stim/white_mw035.bmp","null","","","","","","","","","","",""
"image-keyboard-response","43","91058","0.0-6.0-1.19","60ef02ab65677c7c8803c120","bdp_trlrn","Wed Jul 27 2022 22:48:44 GMT-0500 (Central Daylight Time)","703930","Untrustworthy,Trustworthy","","792","","","","rating","","trustrating_stim/white_mw097.bmp","1","","","","","","","","","","",""
"image-keyboard-response","44","91259","0.0-6.0-2.19","60ef02ab65677c7c8803c120","bdp_trlrn","Wed Jul 27 2022 22:48:44 GMT-0500 (Central Daylight Time)","703930","Untrustworthy,Trustworthy","","null","","","","ratingFB","","trustrating_stim/white_mw097.bmp","null","","","","","","","","","","",""
"image-keyboard-response","45","92147","0.0-6.0-1.20","60ef02ab65677c7c8803c120","bdp_trlrn","Wed Jul 27 2022 22:48:44 GMT-0500 (Central Daylight Time)","703930","Untrustworthy,Trustworthy","","786","","","","rating","","trustrating_stim/white_mw089.bmp","1","","","","","","","","","","",""
"image-keyboard-response","46","92349","0.0-6.0-2.20","60ef02ab65677c7c8803c120","bdp_trlrn","Wed Jul 27 2022 22:48:44 GMT-0500 (Central Daylight Time)","703930","Untrustworthy,Trustworthy","","null","","","","ratingFB","","trustrating_stim/white_mw089.bmp","null","","","","","","","","","","",""
"image-keyboard-response","47","95129","0.0-6.0-1.21","60ef02ab65677c7c8803c120","bdp_trlrn","Wed Jul 27 2022 22:48:44 GMT-0500 (Central Daylight Time)","703930","Untrustworthy,Trustworthy","","2678","","","","rating","","trustrating_stim/white_00757_941201_fa_edt.bmp","1","","","","","","","","","","",""
"image-keyboard-response","48","95331","0.0-6.0-2.21","60ef02ab65677c7c8803c120","bdp_trlrn","Wed Jul 27 2022 22:48:44 GMT-0500 (Central Daylight Time)","703930","Untrustworthy,Trustworthy","","null","","","","ratingFB","","trustrating_stim/white_00757_941201_fa_edt.bmp","null","","","","","","","","","","",""
"image-keyboard-response","49","98152","0.0-6.0-1.22","60ef02ab65677c7c8803c120","bdp_trlrn","Wed Jul 27 2022 22:48:44 GMT-0500 (Central Daylight Time)","703930","Untrustworthy,Trustworthy","","2719","","","","rating","","trustrating_stim/white_mw053.bmp","6","","","","","","","","","","",""
"image-keyboard-response","50","98355","0.0-6.0-2.22","60ef02ab65677c7c8803c120","bdp_trlrn","Wed Jul 27 2022 22:48:44 GMT-0500 (Central Daylight Time)","703930","Untrustworthy,Trustworthy","","null","","","","ratingFB","","trustrating_stim/white_mw053.bmp","null","","","","","","","","","","",""
"image-keyboard-response","51","101271","0.0-6.0-1.23","60ef02ab65677c7c8803c120","bdp_trlrn","Wed Jul 27 2022 22:48:44 GMT-0500 (Central Daylight Time)","703930","Untrustworthy,Trustworthy","","2814","","","","rating","","trustrating_stim/white_00129_931230_fb_edt.bmp","5","","","","","","","","","","",""
"image-keyboard-response","52","101479","0.0-6.0-2.23","60ef02ab65677c7c8803c120","bdp_trlrn","Wed Jul 27 2022 22:48:44 GMT-0500 (Central Daylight Time)","703930","Untrustworthy,Trustworthy","","null","","","","ratingFB","","trustrating_stim/white_00129_931230_fb_edt.bmp","null","","","","","","","","","","",""
"image-keyboard-response","53","103830","0.0-6.0-1.24","60ef02ab65677c7c8803c120","bdp_trlrn","Wed Jul 27 2022 22:48:44 GMT-0500 (Central Daylight Time)","703930","Untrustworthy,Trustworthy","","2249","","","","rating","","trustrating_stim/white_00120_931230_fa_edt.bmp","8","","","","","","","","","","",""
"image-keyboard-response","54","104043","0.0-6.0-2.24","60ef02ab65677c7c8803c120","bdp_trlrn","Wed Jul 27 2022 22:48:44 GMT-0500 (Central Daylight Time)","703930","Untrustworthy,Trustworthy","","null","","","","ratingFB","","trustrating_stim/white_00120_931230_fa_edt.bmp","null","","","","","","","","","","",""
"image-keyboard-response","55","106892","0.0-6.0-1.25","60ef02ab65677c7c8803c120","bdp_trlrn","Wed Jul 27 2022 22:48:44 GMT-0500 (Central Daylight Time)","703930","Untrustworthy,Trustworthy","","2739","","","","rating","","trustrating_stim/white_00761_941201_fb_edt.bmp","2","","","","","","","","","","",""
"image-keyboard-response","56","107094","0.0-6.0-2.25","60ef02ab65677c7c8803c120","bdp_trlrn","Wed Jul 27 2022 22:48:44 GMT-0500 (Central Daylight Time)","703930","Untrustworthy,Trustworthy","","null","","","","ratingFB","","trustrating_stim/white_00761_941201_fb_edt.bmp","null","","","","","","","","","","",""
"image-keyboard-response","57","108097","0.0-6.0-1.26","60ef02ab65677c7c8803c120","bdp_trlrn","Wed Jul 27 2022 22:48:44 GMT-0500 (Central Daylight Time)","703930","Untrustworthy,Trustworthy","","901","","","","rating","","trustrating_stim/white_00785_941205_fb_edt.bmp","1","","","","","","","","","","",""
"image-keyboard-response","58","108298","0.0-6.0-2.26","60ef02ab65677c7c8803c120","bdp_trlrn","Wed Jul 27 2022 22:48:44 GMT-0500 (Central Daylight Time)","703930","Untrustworthy,Trustworthy","","null","","","","ratingFB","","trustrating_stim/white_00785_941205_fb_edt.bmp","null","","","","","","","","","","",""
"image-keyboard-response","59","112245","0.0-6.0-1.27","60ef02ab65677c7c8803c120","bdp_trlrn","Wed Jul 27 2022 22:48:44 GMT-0500 (Central Daylight Time)","703930","Untrustworthy,Trustworthy","","3846","","","","rating","","trustrating_stim/white_mw066.bmp","5","","","","","","","","","","",""
"image-keyboard-response","60","112447","0.0-6.0-2.27","60ef02ab65677c7c8803c120","bdp_trlrn","Wed Jul 27 2022 22:48:44 GMT-0500 (Central Daylight Time)","703930","Untrustworthy,Trustworthy","","null","","","","ratingFB","","trustrating_stim/white_mw066.bmp","null","","","","","","","","","","",""
"image-keyboard-response","61","115183","0.0-6.0-1.28","60ef02ab65677c7c8803c120","bdp_trlrn","Wed Jul 27 2022 22:48:44 GMT-0500 (Central Daylight Time)","703930","Untrustworthy,Trustworthy","","2635","","","","rating","","trustrating_stim/white_mw084.bmp","4","","","","","","","","","","",""
"image-keyboard-response","62","115385","0.0-6.0-2.28","60ef02ab65677c7c8803c120","bdp_trlrn","Wed Jul 27 2022 22:48:44 GMT-0500 (Central Daylight Time)","703930","Untrustworthy,Trustworthy","","null","","","","ratingFB","","trustrating_stim/white_mw084.bmp","null","","","","","","","","","","",""
"image-keyboard-response","63","118676","0.0-6.0-1.29","60ef02ab65677c7c8803c120","bdp_trlrn","Wed Jul 27 2022 22:48:44 GMT-0500 (Central Daylight Time)","703930","Untrustworthy,Trustworthy","","3189","","","","rating","","trustrating_stim/white_mw033.bmp","3","","","","","","","","","","",""
"image-keyboard-response","64","118878","0.0-6.0-2.29","60ef02ab65677c7c8803c120","bdp_trlrn","Wed Jul 27 2022 22:48:44 GMT-0500 (Central Daylight Time)","703930","Untrustworthy,Trustworthy","","null","","","","ratingFB","","trustrating_stim/white_mw033.bmp","null","","","","","","","","","","",""
"image-keyboard-response","65","122688","0.0-6.0-1.30","60ef02ab65677c7c8803c120","bdp_trlrn","Wed Jul 27 2022 22:48:44 GMT-0500 (Central Daylight Time)","703930","Untrustworthy,Trustworthy","","3708","","","","rating","","trustrating_stim/white_00129_931230_fb_edt.bmp","4","","","","","","","","","","",""
"image-keyboard-response","66","122890","0.0-6.0-2.30","60ef02ab65677c7c8803c120","bdp_trlrn","Wed Jul 27 2022 22:48:44 GMT-0500 (Central Daylight Time)","703930","Untrustworthy,Trustworthy","","null","","","","ratingFB","","trustrating_stim/white_00129_931230_fb_edt.bmp","null","","","","","","","","","","",""
"image-keyboard-response","67","126196","0.0-6.0-1.31","60ef02ab65677c7c8803c120","bdp_trlrn","Wed Jul 27 2022 22:48:44 GMT-0500 (Central Daylight Time)","703930","Untrustworthy,Trustworthy","","3204","","","","rating","","trustrating_stim/white_00898_960530_fa_edt.bmp","6","","","","","","","","","","",""
"image-keyboard-response","68","126398","0.0-6.0-2.31","60ef02ab65677c7c8803c120","bdp_trlrn","Wed Jul 27 2022 22:48:44 GMT-0500 (Central Daylight Time)","703930","Untrustworthy,Trustworthy","","null","","","","ratingFB","","trustrating_stim/white_00898_960530_fa_edt.bmp","null","","","","","","","","","","",""
"image-keyboard-response","69","129754","0.0-6.0-1.32","60ef02ab65677c7c8803c120","bdp_trlrn","Wed Jul 27 2022 22:48:44 GMT-0500 (Central Daylight Time)","703930","Untrustworthy,Trustworthy","","3253","","","","rating","","trustrating_stim/white_mw035.bmp","1","","","","","","","","","","",""
"image-keyboard-response","70","129956","0.0-6.0-2.32","60ef02ab65677c7c8803c120","bdp_trlrn","Wed Jul 27 2022 22:48:44 GMT-0500 (Central Daylight Time)","703930","Untrustworthy,Trustworthy","","null","","","","ratingFB","","trustrating_stim/white_mw035.bmp","null","","","","","","","","","","",""
"image-keyboard-response","71","130734","0.0-6.0-1.33","60ef02ab65677c7c8803c120","bdp_trlrn","Wed Jul 27 2022 22:48:44 GMT-0500 (Central Daylight Time)","703930","Untrustworthy,Trustworthy","","676","","","","rating","","trustrating_stim/white_00519_940519_fb_edt.bmp","1","","","","","","","","","","",""
"image-keyboard-response","72","130935","0.0-6.0-2.33","60ef02ab65677c7c8803c120","bdp_trlrn","Wed Jul 27 2022 22:48:44 GMT-0500 (Central Daylight Time)","703930","Untrustworthy,Trustworthy","","null","","","","ratingFB","","trustrating_stim/white_00519_940519_fb_edt.bmp","null","","","","","","","","","","",""
"image-keyboard-response","73","131682","0.0-6.0-1.34","60ef02ab65677c7c8803c120","bdp_trlrn","Wed Jul 27 2022 22:48:44 GMT-0500 (Central Daylight Time)","703930","Untrustworthy,Trustworthy","","644","","","","rating","","trustrating_stim/white_00577_940928_fa_edt.bmp","1","","","","","","","","","","",""
"image-keyboard-response","74","131884","0.0-6.0-2.34","60ef02ab65677c7c8803c120","bdp_trlrn","Wed Jul 27 2022 22:48:44 GMT-0500 (Central Daylight Time)","703930","Untrustworthy,Trustworthy","","null","","","","ratingFB","","trustrating_stim/white_00577_940928_fa_edt.bmp","null","","","","","","","","","","",""
"image-keyboard-response","75","133633","0.0-6.0-1.35","60ef02ab65677c7c8803c120","bdp_trlrn","Wed Jul 27 2022 22:48:44 GMT-0500 (Central Daylight Time)","703930","Untrustworthy,Trustworthy","","1646","","","","rating","","trustrating_stim/white_00120_931230_fa_edt.bmp","8","","","","","","","","","","",""
"image-keyboard-response","76","133835","0.0-6.0-2.35","60ef02ab65677c7c8803c120","bdp_trlrn","Wed Jul 27 2022 22:48:44 GMT-0500 (Central Daylight Time)","703930","Untrustworthy,Trustworthy","","null","","","","ratingFB","","trustrating_stim/white_00120_931230_fa_edt.bmp","null","","","","","","","","","","",""
"image-keyboard-response","77","136495","0.0-6.0-1.36","60ef02ab65677c7c8803c120","bdp_trlrn","Wed Jul 27 2022 22:48:44 GMT-0500 (Central Daylight Time)","703930","Untrustworthy,Trustworthy","","2558","","","","rating","","trustrating_stim/white_00602_940928_fb_edt.bmp","6","","","","","","","","","","",""
"image-keyboard-response","78","136697","0.0-6.0-2.36","60ef02ab65677c7c8803c120","bdp_trlrn","Wed Jul 27 2022 22:48:44 GMT-0500 (Central Daylight Time)","703930","Untrustworthy,Trustworthy","","null","","","","ratingFB","","trustrating_stim/white_00602_940928_fb_edt.bmp","null","","","","","","","","","","",""
"image-keyboard-response","79","137785","0.0-6.0-1.37","60ef02ab65677c7c8803c120","bdp_trlrn","Wed Jul 27 2022 22:48:44 GMT-0500 (Central Daylight Time)","703930","Untrustworthy,Trustworthy","","986","","","","rating","","trustrating_stim/white_00340_940422_fa_edt.bmp","1","","","","","","","","","","",""
"image-keyboard-response","80","137986","0.0-6.0-2.37","60ef02ab65677c7c8803c120","bdp_trlrn","Wed Jul 27 2022 22:48:44 GMT-0500 (Central Daylight Time)","703930","Untrustworthy,Trustworthy","","null","","","","ratingFB","","trustrating_stim/white_00340_940422_fa_edt.bmp","null","","","","","","","","","","",""
"image-keyboard-response","81","139988","0.0-6.0-1.38","60ef02ab65677c7c8803c120","bdp_trlrn","Wed Jul 27 2022 22:48:44 GMT-0500 (Central Daylight Time)","703930","Untrustworthy,Trustworthy","","1900","","","","rating","","trustrating_stim/white_mw066.bmp","2","","","","","","","","","","",""
"image-keyboard-response","82","140189","0.0-6.0-2.38","60ef02ab65677c7c8803c120","bdp_trlrn","Wed Jul 27 2022 22:48:44 GMT-0500 (Central Daylight Time)","703930","Untrustworthy,Trustworthy","","null","","","","ratingFB","","trustrating_stim/white_mw066.bmp","null","","","","","","","","","","",""
"image-keyboard-response","83","141004","0.0-6.0-1.39","60ef02ab65677c7c8803c120","bdp_trlrn","Wed Jul 27 2022 22:48:44 GMT-0500 (Central Daylight Time)","703930","Untrustworthy,Trustworthy","","713","","","","rating","","trustrating_stim/white_00785_941205_fb_edt.bmp","1","","","","","","","","","","",""
"image-keyboard-response","84","141205","0.0-6.0-2.39","60ef02ab65677c7c8803c120","bdp_trlrn","Wed Jul 27 2022 22:48:44 GMT-0500 (Central Daylight Time)","703930","Untrustworthy,Trustworthy","","null","","","","ratingFB","","trustrating_stim/white_00785_941205_fb_edt.bmp","null","","","","","","","","","","",""
"image-keyboard-response","85","143558","0.0-6.0-1.40","60ef02ab65677c7c8803c120","bdp_trlrn","Wed Jul 27 2022 22:48:44 GMT-0500 (Central Daylight Time)","703930","Untrustworthy,Trustworthy","","2251","","","","rating","","trustrating_stim/white_mw063.bmp","1","","","","","","","","","","",""
"image-keyboard-response","86","143767","0.0-6.0-2.40","60ef02ab65677c7c8803c120","bdp_trlrn","Wed Jul 27 2022 22:48:44 GMT-0500 (Central Daylight Time)","703930","Untrustworthy,Trustworthy","","null","","","","ratingFB","","trustrating_stim/white_mw063.bmp","null","","","","","","","","","","",""
"image-keyboard-response","87","144532","0.0-6.0-1.41","60ef02ab65677c7c8803c120","bdp_trlrn","Wed Jul 27 2022 22:48:44 GMT-0500 (Central Daylight Time)","703930","Untrustworthy,Trustworthy","","663","","","","rating","","trustrating_stim/white_mw046.bmp","1","","","","","","","","","","",""
"image-keyboard-response","88","144734","0.0-6.0-2.41","60ef02ab65677c7c8803c120","bdp_trlrn","Wed Jul 27 2022 22:48:44 GMT-0500 (Central Daylight Time)","703930","Untrustworthy,Trustworthy","","null","","","","ratingFB","","trustrating_stim/white_mw046.bmp","null","","","","","","","","","","",""
"image-keyboard-response","89","145522","0.0-6.0-1.42","60ef02ab65677c7c8803c120","bdp_trlrn","Wed Jul 27 2022 22:48:44 GMT-0500 (Central Daylight Time)","703930","Untrustworthy,Trustworthy","","685","","","","rating","","trustrating_stim/white_00807_941205_fb_edt.bmp","1","","","","","","","","","","",""
"image-keyboard-response","90","145723","0.0-6.0-2.42","60ef02ab65677c7c8803c120","bdp_trlrn","Wed Jul 27 2022 22:48:44 GMT-0500 (Central Daylight Time)","703930","Untrustworthy,Trustworthy","","null","","","","ratingFB","","trustrating_stim/white_00807_941205_fb_edt.bmp","null","","","","","","","","","","",""
"image-keyboard-response","91","147864","0.0-6.0-1.43","60ef02ab65677c7c8803c120","bdp_trlrn","Wed Jul 27 2022 22:48:44 GMT-0500 (Central Daylight Time)","703930","Untrustworthy,Trustworthy","","2038","","","","rating","","trustrating_stim/white_mw084.bmp","4","","","","","","","","","","",""
"image-keyboard-response","92","148065","0.0-6.0-2.43","60ef02ab65677c7c8803c120","bdp_trlrn","Wed Jul 27 2022 22:48:44 GMT-0500 (Central Daylight Time)","703930","Untrustworthy,Trustworthy","","null","","","","ratingFB","","trustrating_stim/white_mw084.bmp","null","","","","","","","","","","",""
"image-keyboard-response","93","148868","0.0-6.0-1.44","60ef02ab65677c7c8803c120","bdp_trlrn","Wed Jul 27 2022 22:48:44 GMT-0500 (Central Daylight Time)","703930","Untrustworthy,Trustworthy","","701","","","","rating","","trustrating_stim/white_mw097.bmp","1","","","","","","","","","","",""
"image-keyboard-response","94","149069","0.0-6.0-2.44","60ef02ab65677c7c8803c120","bdp_trlrn","Wed Jul 27 2022 22:48:44 GMT-0500 (Central Daylight Time)","703930","Untrustworthy,Trustworthy","","null","","","","ratingFB","","trustrating_stim/white_mw097.bmp","null","","","","","","","","","","",""
"image-keyboard-response","95","150837","0.0-6.0-1.45","60ef02ab65677c7c8803c120","bdp_trlrn","Wed Jul 27 2022 22:48:44 GMT-0500 (Central Daylight Time)","703930","Untrustworthy,Trustworthy","","1667","","","","rating","","trustrating_stim/white_mw049.bmp","5","","","","","","","","","","",""
"image-keyboard-response","96","151039","0.0-6.0-2.45","60ef02ab65677c7c8803c120","bdp_trlrn","Wed Jul 27 2022 22:48:44 GMT-0500 (Central Daylight Time)","703930","Untrustworthy,Trustworthy","","null","","","","ratingFB","","trustrating_stim/white_mw049.bmp","null","","","","","","","","","","",""
"image-keyboard-response","97","151887","0.0-6.0-1.46","60ef02ab65677c7c8803c120","bdp_trlrn","Wed Jul 27 2022 22:48:44 GMT-0500 (Central Daylight Time)","703930","Untrustworthy,Trustworthy","","747","","","","rating","","trustrating_stim/white_mw048.bmp","1","","","","","","","","","","",""
"image-keyboard-response","98","152089","0.0-6.0-2.46","60ef02ab65677c7c8803c120","bdp_trlrn","Wed Jul 27 2022 22:48:44 GMT-0500 (Central Daylight Time)","703930","Untrustworthy,Trustworthy","","null","","","","ratingFB","","trustrating_stim/white_mw048.bmp","null","","","","","","","","","","",""
"image-keyboard-response","99","153541","0.0-6.0-1.47","60ef02ab65677c7c8803c120","bdp_trlrn","Wed Jul 27 2022 22:48:44 GMT-0500 (Central Daylight Time)","703930","Untrustworthy,Trustworthy","","1350","","","","rating","","trustrating_stim/white_00761_941201_fb_edt.bmp","2","","","","","","","","","","",""
"image-keyboard-response","100","153743","0.0-6.0-2.47","60ef02ab65677c7c8803c120","bdp_trlrn","Wed Jul 27 2022 22:48:44 GMT-0500 (Central Daylight Time)","703930","Untrustworthy,Trustworthy","","null","","","","ratingFB","","trustrating_stim/white_00761_941201_fb_edt.bmp","null","","","","","","","","","","",""
"image-keyboard-response","101","156221","0.0-6.0-1.48","60ef02ab65677c7c8803c120","bdp_trlrn","Wed Jul 27 2022 22:48:44 GMT-0500 (Central Daylight Time)","703930","Untrustworthy,Trustworthy","","2376","","","","rating","","trustrating_stim/white_00757_941201_fa_edt.bmp","2","","","","","","","","","","",""
"image-keyboard-response","102","156423","0.0-6.0-2.48","60ef02ab65677c7c8803c120","bdp_trlrn","Wed Jul 27 2022 22:48:44 GMT-0500 (Central Daylight Time)","703930","Untrustworthy,Trustworthy","","null","","","","ratingFB","","trustrating_stim/white_00757_941201_fa_edt.bmp","null","","","","","","","","","","",""
"image-keyboard-response","103","158084","0.0-6.0-1.49","60ef02ab65677c7c8803c120","bdp_trlrn","Wed Jul 27 2022 22:48:44 GMT-0500 (Central Daylight Time)","703930","Untrustworthy,Trustworthy","","1559","","","","rating","","trustrating_stim/white_mw099.bmp","3","","","","","","","","","","",""
"image-keyboard-response","104","158286","0.0-6.0-2.49","60ef02ab65677c7c8803c120","bdp_trlrn","Wed Jul 27 2022 22:48:44 GMT-0500 (Central Daylight Time)","703930","Untrustworthy,Trustworthy","","null","","","","ratingFB","","trustrating_stim/white_mw099.bmp","null","","","","","","","","","","",""
"image-keyboard-response","105","163032","0.0-6.0-1.50","60ef02ab65677c7c8803c120","bdp_trlrn","Wed Jul 27 2022 22:48:44 GMT-0500 (Central Daylight Time)","703930","Untrustworthy,Trustworthy","","4644","","","","rating","","trustrating_stim/white_mw056.bmp","5","","","","","","","","","","",""
"image-keyboard-response","106","163247","0.0-6.0-2.50","60ef02ab65677c7c8803c120","bdp_trlrn","Wed Jul 27 2022 22:48:44 GMT-0500 (Central Daylight Time)","703930","Untrustworthy,Trustworthy","","null","","","","ratingFB","","trustrating_stim/white_mw056.bmp","null","","","","","","","","","","",""
"image-keyboard-response","107","164273","0.0-6.0-1.51","60ef02ab65677c7c8803c120","bdp_trlrn","Wed Jul 27 2022 22:48:44 GMT-0500 (Central Daylight Time)","703930","Untrustworthy,Trustworthy","","916","","","","rating","","trustrating_stim/white_mw060.bmp","1","","","","","","","","","","",""
"image-keyboard-response","108","164475","0.0-6.0-2.51","60ef02ab65677c7c8803c120","bdp_trlrn","Wed Jul 27 2022 22:48:44 GMT-0500 (Central Daylight Time)","703930","Untrustworthy,Trustworthy","","null","","","","ratingFB","","trustrating_stim/white_mw060.bmp","null","","","","","","","","","","",""
"image-keyboard-response","109","167885","0.0-6.0-1.52","60ef02ab65677c7c8803c120","bdp_trlrn","Wed Jul 27 2022 22:48:44 GMT-0500 (Central Daylight Time)","703930","Untrustworthy,Trustworthy","","3308","","","","rating","","trustrating_stim/white_00109_931230_fa_edt.bmp","5","","","","","","","","","","",""
"image-keyboard-response","110","168087","0.0-6.0-2.52","60ef02ab65677c7c8803c120","bdp_trlrn","Wed Jul 27 2022 22:48:44 GMT-0500 (Central Daylight Time)","703930","Untrustworthy,Trustworthy","","null","","","","ratingFB","","trustrating_stim/white_00109_931230_fa_edt.bmp","null","","","","","","","","","","",""
"image-keyboard-response","111","168974","0.0-6.0-1.53","60ef02ab65677c7c8803c120","bdp_trlrn","Wed Jul 27 2022 22:48:44 GMT-0500 (Central Daylight Time)","703930","Untrustworthy,Trustworthy","","786","","","","rating","","trustrating_stim/white_mw071.bmp","1","","","","","","","","","","",""
"image-keyboard-response","112","169175","0.0-6.0-2.53","60ef02ab65677c7c8803c120","bdp_trlrn","Wed Jul 27 2022 22:48:44 GMT-0500 (Central Daylight Time)","703930","Untrustworthy,Trustworthy","","null","","","","ratingFB","","trustrating_stim/white_mw071.bmp","null","","","","","","","","","","",""
"image-keyboard-response","113","173313","0.0-6.0-1.54","60ef02ab65677c7c8803c120","bdp_trlrn","Wed Jul 27 2022 22:48:44 GMT-0500 (Central Daylight Time)","703930","Untrustworthy,Trustworthy","","4036","","","","rating","","trustrating_stim/white_mw053.bmp","6","","","","","","","","","","",""
"image-keyboard-response","114","173515","0.0-6.0-2.54","60ef02ab65677c7c8803c120","bdp_trlrn","Wed Jul 27 2022 22:48:44 GMT-0500 (Central Daylight Time)","703930","Untrustworthy,Trustworthy","","null","","","","ratingFB","","trustrating_stim/white_mw053.bmp","null","","","","","","","","","","",""
"image-keyboard-response","115","176912","0.0-6.0-1.55","60ef02ab65677c7c8803c120","bdp_trlrn","Wed Jul 27 2022 22:48:44 GMT-0500 (Central Daylight Time)","703930","Untrustworthy,Trustworthy","","3295","","","","rating","","trustrating_stim/white_00299_940422_fa_edt.bmp","4","","","","","","","","","","",""
"image-keyboard-response","116","177113","0.0-6.0-2.55","60ef02ab65677c7c8803c120","bdp_trlrn","Wed Jul 27 2022 22:48:44 GMT-0500 (Central Daylight Time)","703930","Untrustworthy,Trustworthy","","null","","","","ratingFB","","trustrating_stim/white_00299_940422_fa_edt.bmp","null","","","","","","","","","","",""
"image-keyboard-response","117","181764","0.0-6.0-1.56","60ef02ab65677c7c8803c120","bdp_trlrn","Wed Jul 27 2022 22:48:44 GMT-0500 (Central Daylight Time)","703930","Untrustworthy,Trustworthy","","4549","","","","rating","","trustrating_stim/white_00223_940128_fb_edt.bmp","4","","","","","","","","","","",""
"image-keyboard-response","118","181966","0.0-6.0-2.56","60ef02ab65677c7c8803c120","bdp_trlrn","Wed Jul 27 2022 22:48:44 GMT-0500 (Central Daylight Time)","703930","Untrustworthy,Trustworthy","","null","","","","ratingFB","","trustrating_stim/white_00223_940128_fb_edt.bmp","null","","","","","","","","","","",""
"image-keyboard-response","119","182814","0.0-6.0-1.57","60ef02ab65677c7c8803c120","bdp_trlrn","Wed Jul 27 2022 22:48:44 GMT-0500 (Central Daylight Time)","703930","Untrustworthy,Trustworthy","","745","","","","rating","","trustrating_stim/white_mw033.bmp","1","","","","","","","","","","",""
"image-keyboard-response","120","183014","0.0-6.0-2.57","60ef02ab65677c7c8803c120","bdp_trlrn","Wed Jul 27 2022 22:48:44 GMT-0500 (Central Daylight Time)","703930","Untrustworthy,Trustworthy","","null","","","","ratingFB","","trustrating_stim/white_mw033.bmp","null","","","","","","","","","","",""
"image-keyboard-response","121","185343","0.0-6.0-1.58","60ef02ab65677c7c8803c120","bdp_trlrn","Wed Jul 27 2022 22:48:44 GMT-0500 (Central Daylight Time)","703930","Untrustworthy,Trustworthy","","2226","","","","rating","","trustrating_stim/white_00659_941121_fa_edt.bmp","1","","","","","","","","","","",""
"image-keyboard-response","122","185545","0.0-6.0-2.58","60ef02ab65677c7c8803c120","bdp_trlrn","Wed Jul 27 2022 22:48:44 GMT-0500 (Central Daylight Time)","703930","Untrustworthy,Trustworthy","","null","","","","ratingFB","","trustrating_stim/white_00659_941121_fa_edt.bmp","null","","","","","","","","","","",""
"image-keyboard-response","123","186251","0.0-6.0-1.59","60ef02ab65677c7c8803c120","bdp_trlrn","Wed Jul 27 2022 22:48:44 GMT-0500 (Central Daylight Time)","703930","Untrustworthy,Trustworthy","","604","","","","rating","","trustrating_stim/white_mw089.bmp","1","","","","","","","","","","",""
"image-keyboard-response","124","186453","0.0-6.0-2.59","60ef02ab65677c7c8803c120","bdp_trlrn","Wed Jul 27 2022 22:48:44 GMT-0500 (Central Daylight Time)","703930","Untrustworthy,Trustworthy","","null","","","","ratingFB","","trustrating_stim/white_mw089.bmp","null","","","","","","","","","","",""
"instructions","125","190045","0.0-7.0","60ef02ab65677c7c8803c120","bdp_trlrn","Wed Jul 27 2022 22:48:44 GMT-0500 (Central Daylight Time)","703930","Untrustworthy,Trustworthy","[{""page_index"":0,""viewing_time"":3490}]","3490","","","","","","","","","","","","","","","","","",""
"instructions","126","288506","0.0-8.0","60ef02ab65677c7c8803c120","bdp_trlrn","Wed Jul 27 2022 22:48:44 GMT-0500 (Central Daylight Time)","703930","Untrustworthy,Trustworthy","[{""page_index"":0,""viewing_time"":12376},{""page_index"":1,""viewing_time"":23357},{""page_index"":2,""viewing_time"":14777},{""page_index"":3,""viewing_time"":8827},{""page_index"":4,""viewing_time"":4623},{""page_index"":5,""viewing_time"":3702},{""page_index"":6,""viewing_time"":22672},{""page_index"":7,""viewing_time"":8025}]","98359","","","","","","","","","","","","","","","","","",""
"instructions","127","301244","0.0-9.0","60ef02ab65677c7c8803c120","bdp_trlrn","Wed Jul 27 2022 22:48:44 GMT-0500 (Central Daylight Time)","703930","Untrustworthy,Trustworthy","[{""page_index"":0,""viewing_time"":9813},{""page_index"":1,""viewing_time"":2924}]","12737","","","","","","","","","","","","","","","","","",""
"html-keyboard-response","128","304428","0.0-10.0-1.0","60ef02ab65677c7c8803c120","bdp_trlrn","Wed Jul 27 2022 22:48:44 GMT-0500 (Central Daylight Time)","703930","Untrustworthy,Trustworthy","","3082","","","","decision","","<div class='trialDiv'><img src='trustrating_stim/white_00340_940422_fa_edt.bmp'><br><font class='baseline'><strong>Timothy</strong><p>Choose number of points to send.</font><div class='respPicDiv'><img src='img/responseButtonOffersNo0L.png' class='respPic'></div></div>","1","1","Timothy","5","Kept","0.65,0.2","13","0.65","trustrating_stim/white_00340_940422_fa_edt.bmp","1.5","5","1"
"html-keyboard-response","129","304679","0.0-10.0-2.0","60ef02ab65677c7c8803c120","bdp_trlrn","Wed Jul 27 2022 22:48:44 GMT-0500 (Central Daylight Time)","703930","Untrustworthy,Trustworthy","","null","","","","decisionFB","","<div class='trialDiv'><img src='trustrating_stim/white_00340_940422_fa_edt.bmp'><br><font class='baseline'><strong>Timothy</strong><p>Choose number of points to send.</font><div class='respPicDiv'><img src='img/responseButtonOffersNo0L1.png' class='respPic'></div></div>","null","1","Timothy","5","Kept","0.65,0.2","13","0.65","trustrating_stim/white_00340_940422_fa_edt.bmp","1.5","4","1"
"html-keyboard-response","130","305691","0.0-10.0-3.0","60ef02ab65677c7c8803c120","bdp_trlrn","Wed Jul 27 2022 22:48:44 GMT-0500 (Central Daylight Time)","703930","Untrustworthy,Trustworthy","","null","","","","feedback","","<div class='trialDiv'><img src='trustrating_stim/white_00340_940422_fa_edt.bmp'><br><font class='baseline'><strong>Timothy</strong><p>Received: <strong>4</strong></font> &nbsp; &nbsp; &nbsp; &nbsp; &nbsp; &nbsp;<font class='negOutcome'>Shared back: <strong>0</strong></font></font><div class='respPicDiv'><img src='img/responseButtonOffersNo0_wht.png' class='respPic'></div></div>","null","1","Timothy","5","Kept","0.65,0.2","13","0.65","trustrating_stim/white_00340_940422_fa_edt.bmp","1.5","4","1"
"html-keyboard-response","131","308805","0.0-10.0-1.1","60ef02ab65677c7c8803c120","bdp_trlrn","Wed Jul 27 2022 22:48:44 GMT-0500 (Central Daylight Time)","703930","Untrustworthy,Trustworthy","","3113","","","","decision","","<div class='trialDiv'><img src='trustrating_stim/white_mw071.bmp'><br><font class='baseline'><strong>Jordan</strong><p>Choose number of points to send.</font><div class='respPicDiv'><img src='img/responseButtonOffersNo0L.png' class='respPic'></div></div>","1","1","Jordan","3","Shared","0.8,0.2","10","0.8","trustrating_stim/white_mw071.bmp","1","9","2"
"html-keyboard-response","132","309056","0.0-10.0-2.1","60ef02ab65677c7c8803c120","bdp_trlrn","Wed Jul 27 2022 22:48:44 GMT-0500 (Central Daylight Time)","703930","Untrustworthy,Trustworthy","","null","","","","decisionFB","","<div class='trialDiv'><img src='trustrating_stim/white_mw071.bmp'><br><font class='baseline'><strong>Jordan</strong><p>Choose number of points to send.</font><div class='respPicDiv'><img src='img/responseButtonOffersNo0L1.png' class='respPic'></div></div>","null","1","Jordan","3","Shared","0.8,0.2","10","0.8","trustrating_stim/white_mw071.bmp","1","8","2"
"html-keyboard-response","133","310057","0.0-10.0-3.1","60ef02ab65677c7c8803c120","bdp_trlrn","Wed Jul 27 2022 22:48:44 GMT-0500 (Central Daylight Time)","703930","Untrustworthy,Trustworthy","","null","","","","feedback","","<div class='trialDiv'><img src='trustrating_stim/white_mw071.bmp'><br><font class='baseline'><strong>Jordan</strong><p>Received: <strong>4</strong></font> &nbsp; &nbsp; &nbsp; &nbsp; &nbsp; &nbsp;<font class='posOutcome'>Shared back: <strong>2</strong></font></font><div class='respPicDiv'><img src='img/responseButtonOffersNo0_wht.png' class='respPic'></div></div>","null","1","Jordan","3","Shared","0.8,0.2","10","0.8","trustrating_stim/white_mw071.bmp","1","10","2"
"html-keyboard-response","134","313802","0.0-10.0-1.2","60ef02ab65677c7c8803c120","bdp_trlrn","Wed Jul 27 2022 22:48:44 GMT-0500 (Central Daylight Time)","703930","Untrustworthy,Trustworthy","","3744","","","","decision","","<div class='trialDiv'><img src='trustrating_stim/white_mw056.bmp'><br><font class='baseline'><strong>Ryan</strong><p>Choose number of points to send.</font><div class='respPicDiv'><img src='img/responseButtonOffersNo0L.png' class='respPic'></div></div>","2","1","Ryan","8","Shared","0.2,0.65","10","0.2","trustrating_stim/white_mw056.bmp","6","15","3"
"html-keyboard-response","135","314053","0.0-10.0-2.2","60ef02ab65677c7c8803c120","bdp_trlrn","Wed Jul 27 2022 22:48:44 GMT-0500 (Central Daylight Time)","703930","Untrustworthy,Trustworthy","","null","","","","decisionFB","","<div class='trialDiv'><img src='trustrating_stim/white_mw056.bmp'><br><font class='baseline'><strong>Ryan</strong><p>Choose number of points to send.</font><div class='respPicDiv'><img src='img/responseButtonOffersNo0L2.png' class='respPic'></div></div>","null","1","Ryan","8","Shared","0.2,0.65","10","0.2","trustrating_stim/white_mw056.bmp","6","13","3"
"html-keyboard-response","136","315055","0.0-10.0-3.2","60ef02ab65677c7c8803c120","bdp_trlrn","Wed Jul 27 2022 22:48:44 GMT-0500 (Central Daylight Time)","703930","Untrustworthy,Trustworthy","","null","","","","feedback","","<div class='trialDiv'><img src='trustrating_stim/white_mw056.bmp'><br><font class='baseline'><strong>Ryan</strong><p>Received: <strong>8</strong></font> &nbsp; &nbsp; &nbsp; &nbsp; &nbsp; &nbsp;<font class='posOutcome'>Shared back: <strong>4</strong></font></font><div class='respPicDiv'><img src='img/responseButtonOffersNo0_wht.png' class='respPic'></div></div>","null","1","Ryan","8","Shared","0.2,0.65","10","0.2","trustrating_stim/white_mw056.bmp","6","17","3"
"html-keyboard-response","137","317404","0.0-10.0-1.3","60ef02ab65677c7c8803c120","bdp_trlrn","Wed Jul 27 2022 22:48:44 GMT-0500 (Central Daylight Time)","703930","Untrustworthy,Trustworthy","","2348","","","","decision","","<div class='trialDiv'><img src='trustrating_stim/white_mw071.bmp'><br><font class='baseline'><strong>Jordan</strong><p>Choose number of points to send.</font><div class='respPicDiv'><img src='img/responseButtonOffersNo0L.png' class='respPic'></div></div>","2","2","Jordan","3","Shared","0.8,0.2","10","0.8","trustrating_stim/white_mw071.bmp","1","22","4"
"html-keyboard-response","138","317663","0.0-10.0-2.3","60ef02ab65677c7c8803c120","bdp_trlrn","Wed Jul 27 2022 22:48:44 GMT-0500 (Central Daylight Time)","703930","Untrustworthy,Trustworthy","","null","","","","decisionFB","","<div class='trialDiv'><img src='trustrating_stim/white_mw071.bmp'><br><font class='baseline'><strong>Jordan</strong><p>Choose number of points to send.</font><div class='respPicDiv'><img src='img/responseButtonOffersNo0L2.png' class='respPic'></div></div>","null","2","Jordan","3","Shared","0.8,0.2","10","0.8","trustrating_stim/white_mw071.bmp","1","20","4"
"html-keyboard-response","139","318665","0.0-10.0-3.3","60ef02ab65677c7c8803c120","bdp_trlrn","Wed Jul 27 2022 22:48:44 GMT-0500 (Central Daylight Time)","703930","Untrustworthy,Trustworthy","","null","","","","feedback","","<div class='trialDiv'><img src='trustrating_stim/white_mw071.bmp'><br><font class='baseline'><strong>Jordan</strong><p>Received: <strong>8</strong></font> &nbsp; &nbsp; &nbsp; &nbsp; &nbsp; &nbsp;<font class='posOutcome'>Shared back: <strong>4</strong></font></font><div class='respPicDiv'><img src='img/responseButtonOffersNo0_wht.png' class='respPic'></div></div>","null","2","Jordan","3","Shared","0.8,0.2","10","0.8","trustrating_stim/white_mw071.bmp","1","24","4"
"html-keyboard-response","140","320788","0.0-10.0-1.4","60ef02ab65677c7c8803c120","bdp_trlrn","Wed Jul 27 2022 22:48:44 GMT-0500 (Central Daylight Time)","703930","Untrustworthy,Trustworthy","","2123","","","","decision","","<div class='trialDiv'><img src='trustrating_stim/white_mw056.bmp'><br><font class='baseline'><strong>Ryan</strong><p>Choose number of points to send.</font><div class='respPicDiv'><img src='img/responseButtonOffersNo0L.png' class='respPic'></div></div>","4","2","Ryan","8","Kept","0.2,0.65","10","0.2","trustrating_stim/white_mw056.bmp","6","29","5"
"html-keyboard-response","141","321040","0.0-10.0-2.4","60ef02ab65677c7c8803c120","bdp_trlrn","Wed Jul 27 2022 22:48:44 GMT-0500 (Central Daylight Time)","703930","Untrustworthy,Trustworthy","","null","","","","decisionFB","","<div class='trialDiv'><img src='trustrating_stim/white_mw056.bmp'><br><font class='baseline'><strong>Ryan</strong><p>Choose number of points to send.</font><div class='respPicDiv'><img src='img/responseButtonOffersNo0L4.png' class='respPic'></div></div>","null","2","Ryan","8","Kept","0.2,0.65","10","0.2","trustrating_stim/white_mw056.bmp","6","25","5"
"html-keyboard-response","142","322042","0.0-10.0-3.4","60ef02ab65677c7c8803c120","bdp_trlrn","Wed Jul 27 2022 22:48:44 GMT-0500 (Central Daylight Time)","703930","Untrustworthy,Trustworthy","","null","","","","feedback","","<div class='trialDiv'><img src='trustrating_stim/white_mw056.bmp'><br><font class='baseline'><strong>Ryan</strong><p>Received: <strong>16</strong></font> &nbsp; &nbsp; &nbsp; &nbsp; &nbsp; &nbsp;<font class='negOutcome'>Shared back: <strong>0</strong></font></font><div class='respPicDiv'><img src='img/responseButtonOffersNo0_wht.png' class='respPic'></div></div>","null","2","Ryan","8","Kept","0.2,0.65","10","0.2","trustrating_stim/white_mw056.bmp","6","25","5"
"html-keyboard-response","143","325929","0.0-10.0-1.5","60ef02ab65677c7c8803c120","bdp_trlrn","Wed Jul 27 2022 22:48:44 GMT-0500 (Central Daylight Time)","703930","Untrustworthy,Trustworthy","","3886","","","","decision","","<div class='trialDiv'><img src='trustrating_stim/white_00340_940422_fa_edt.bmp'><br><font class='baseline'><strong>Timothy</strong><p>Choose number of points to send.</font><div class='respPicDiv'><img src='img/responseButtonOffersNo0L.png' class='respPic'></div></div>","1","2","Timothy","5","Shared","0.65,0.2","13","0.65","trustrating_stim/white_00340_940422_fa_edt.bmp","1.5","30","6"
"html-keyboard-response","144","326181","0.0-10.0-2.5","60ef02ab65677c7c8803c120","bdp_trlrn","Wed Jul 27 2022 22:48:44 GMT-0500 (Central Daylight Time)","703930","Untrustworthy,Trustworthy","","null","","","","decisionFB","","<div class='trialDiv'><img src='trustrating_stim/white_00340_940422_fa_edt.bmp'><br><font class='baseline'><strong>Timothy</strong><p>Choose number of points to send.</font><div class='respPicDiv'><img src='img/responseButtonOffersNo0L1.png' class='respPic'></div></div>","null","2","Timothy","5","Shared","0.65,0.2","13","0.65","trustrating_stim/white_00340_940422_fa_edt.bmp","1.5","29","6"
"html-keyboard-response","145","327183","0.0-10.0-3.5","60ef02ab65677c7c8803c120","bdp_trlrn","Wed Jul 27 2022 22:48:44 GMT-0500 (Central Daylight Time)","703930","Untrustworthy,Trustworthy","","null","","","","feedback","","<div class='trialDiv'><img src='trustrating_stim/white_00340_940422_fa_edt.bmp'><br><font class='baseline'><strong>Timothy</strong><p>Received: <strong>4</strong></font> &nbsp; &nbsp; &nbsp; &nbsp; &nbsp; &nbsp;<font class='posOutcome'>Shared back: <strong>2</strong></font></font><div class='respPicDiv'><img src='img/responseButtonOffersNo0_wht.png' class='respPic'></div></div>","null","2","Timothy","5","Shared","0.65,0.2","13","0.65","trustrating_stim/white_00340_940422_fa_edt.bmp","1.5","31","6"
"html-keyboard-response","146","328727","0.0-10.0-1.6","60ef02ab65677c7c8803c120","bdp_trlrn","Wed Jul 27 2022 22:48:44 GMT-0500 (Central Daylight Time)","703930","Untrustworthy,Trustworthy","","1543","","","","decision","","<div class='trialDiv'><img src='trustrating_stim/white_mw071.bmp'><br><font class='baseline'><strong>Jordan</strong><p>Choose number of points to send.</font><div class='respPicDiv'><img src='img/responseButtonOffersNo0L.png' class='respPic'></div></div>","2","3","Jordan","3","Shared","0.8,0.2","10","0.8","trustrating_stim/white_mw071.bmp","1","36","7"
"html-keyboard-response","147","328978","0.0-10.0-2.6","60ef02ab65677c7c8803c120","bdp_trlrn","Wed Jul 27 2022 22:48:44 GMT-0500 (Central Daylight Time)","703930","Untrustworthy,Trustworthy","","null","","","","decisionFB","","<div class='trialDiv'><img src='trustrating_stim/white_mw071.bmp'><br><font class='baseline'><strong>Jordan</strong><p>Choose number of points to send.</font><div class='respPicDiv'><img src='img/responseButtonOffersNo0L2.png' class='respPic'></div></div>","null","3","Jordan","3","Shared","0.8,0.2","10","0.8","trustrating_stim/white_mw071.bmp","1","34","7"
"html-keyboard-response","148","329980","0.0-10.0-3.6","60ef02ab65677c7c8803c120","bdp_trlrn","Wed Jul 27 2022 22:48:44 GMT-0500 (Central Daylight Time)","703930","Untrustworthy,Trustworthy","","null","","","","feedback","","<div class='trialDiv'><img src='trustrating_stim/white_mw071.bmp'><br><font class='baseline'><strong>Jordan</strong><p>Received: <strong>8</strong></font> &nbsp; &nbsp; &nbsp; &nbsp; &nbsp; &nbsp;<font class='posOutcome'>Shared back: <strong>4</strong></font></font><div class='respPicDiv'><img src='img/responseButtonOffersNo0_wht.png' class='respPic'></div></div>","null","3","Jordan","3","Shared","0.8,0.2","10","0.8","trustrating_stim/white_mw071.bmp","1","38","7"
"html-keyboard-response","149","330606","0.0-10.0-1.7","60ef02ab65677c7c8803c120","bdp_trlrn","Wed Jul 27 2022 22:48:44 GMT-0500 (Central Daylight Time)","703930","Untrustworthy,Trustworthy","","626","","","","decision","","<div class='trialDiv'><img src='trustrating_stim/white_mw056.bmp'><br><font class='baseline'><strong>Ryan</strong><p>Choose number of points to send.</font><div class='respPicDiv'><img src='img/responseButtonOffersNo0L.png' class='respPic'></div></div>","1","3","Ryan","8","Kept","0.2,0.65","10","0.2","trustrating_stim/white_mw056.bmp","6","43","8"
"html-keyboard-response","150","330857","0.0-10.0-2.7","60ef02ab65677c7c8803c120","bdp_trlrn","Wed Jul 27 2022 22:48:44 GMT-0500 (Central Daylight Time)","703930","Untrustworthy,Trustworthy","","null","","","","decisionFB","","<div class='trialDiv'><img src='trustrating_stim/white_mw056.bmp'><br><font class='baseline'><strong>Ryan</strong><p>Choose number of points to send.</font><div class='respPicDiv'><img src='img/responseButtonOffersNo0L1.png' class='respPic'></div></div>","null","3","Ryan","8","Kept","0.2,0.65","10","0.2","trustrating_stim/white_mw056.bmp","6","42","8"
"html-keyboard-response","151","331860","0.0-10.0-3.7","60ef02ab65677c7c8803c120","bdp_trlrn","Wed Jul 27 2022 22:48:44 GMT-0500 (Central Daylight Time)","703930","Untrustworthy,Trustworthy","","null","","","","feedback","","<div class='trialDiv'><img src='trustrating_stim/white_mw056.bmp'><br><font class='baseline'><strong>Ryan</strong><p>Received: <strong>4</strong></font> &nbsp; &nbsp; &nbsp; &nbsp; &nbsp; &nbsp;<font class='negOutcome'>Shared back: <strong>0</strong></font></font><div class='respPicDiv'><img src='img/responseButtonOffersNo0_wht.png' class='respPic'></div></div>","null","3","Ryan","8","Kept","0.2,0.65","10","0.2","trustrating_stim/white_mw056.bmp","6","42","8"
"html-keyboard-response","152","333893","0.0-10.0-1.8","60ef02ab65677c7c8803c120","bdp_trlrn","Wed Jul 27 2022 22:48:44 GMT-0500 (Central Daylight Time)","703930","Untrustworthy,Trustworthy","","2032","","","","decision","","<div class='trialDiv'><img src='trustrating_stim/white_00340_940422_fa_edt.bmp'><br><font class='baseline'><strong>Timothy</strong><p>Choose number of points to send.</font><div class='respPicDiv'><img src='img/responseButtonOffersNo0L.png' class='respPic'></div></div>","1","3","Timothy","5","Kept","0.65,0.2","13","0.65","trustrating_stim/white_00340_940422_fa_edt.bmp","1.5","47","9"
"html-keyboard-response","153","334144","0.0-10.0-2.8","60ef02ab65677c7c8803c120","bdp_trlrn","Wed Jul 27 2022 22:48:44 GMT-0500 (Central Daylight Time)","703930","Untrustworthy,Trustworthy","","null","","","","decisionFB","","<div class='trialDiv'><img src='trustrating_stim/white_00340_940422_fa_edt.bmp'><br><font class='baseline'><strong>Timothy</strong><p>Choose number of points to send.</font><div class='respPicDiv'><img src='img/responseButtonOffersNo0L1.png' class='respPic'></div></div>","null","3","Timothy","5","Kept","0.65,0.2","13","0.65","trustrating_stim/white_00340_940422_fa_edt.bmp","1.5","46","9"
"html-keyboard-response","154","335146","0.0-10.0-3.8","60ef02ab65677c7c8803c120","bdp_trlrn","Wed Jul 27 2022 22:48:44 GMT-0500 (Central Daylight Time)","703930","Untrustworthy,Trustworthy","","null","","","","feedback","","<div class='trialDiv'><img src='trustrating_stim/white_00340_940422_fa_edt.bmp'><br><font class='baseline'><strong>Timothy</strong><p>Received: <strong>4</strong></font> &nbsp; &nbsp; &nbsp; &nbsp; &nbsp; &nbsp;<font class='negOutcome'>Shared back: <strong>0</strong></font></font><div class='respPicDiv'><img src='img/responseButtonOffersNo0_wht.png' class='respPic'></div></div>","null","3","Timothy","5","Kept","0.65,0.2","13","0.65","trustrating_stim/white_00340_940422_fa_edt.bmp","1.5","46","9"
"html-keyboard-response","155","338388","0.0-10.0-1.9","60ef02ab65677c7c8803c120","bdp_trlrn","Wed Jul 27 2022 22:48:44 GMT-0500 (Central Daylight Time)","703930","Untrustworthy,Trustworthy","","3240","","","","decision","","<div class='trialDiv'><img src='trustrating_stim/white_mw071.bmp'><br><font class='baseline'><strong>Jordan</strong><p>Choose number of points to send.</font><div class='respPicDiv'><img src='img/responseButtonOffersNo0L.png' class='respPic'></div></div>","3","4","Jordan","3","Shared","0.8,0.2","10","0.8","trustrating_stim/white_mw071.bmp","1","51","10"
"html-keyboard-response","156","338640","0.0-10.0-2.9","60ef02ab65677c7c8803c120","bdp_trlrn","Wed Jul 27 2022 22:48:44 GMT-0500 (Central Daylight Time)","703930","Untrustworthy,Trustworthy","","null","","","","decisionFB","","<div class='trialDiv'><img src='trustrating_stim/white_mw071.bmp'><br><font class='baseline'><strong>Jordan</strong><p>Choose number of points to send.</font><div class='respPicDiv'><img src='img/responseButtonOffersNo0L3.png' class='respPic'></div></div>","null","4","Jordan","3","Shared","0.8,0.2","10","0.8","trustrating_stim/white_mw071.bmp","1","48","10"
"html-keyboard-response","157","339641","0.0-10.0-3.9","60ef02ab65677c7c8803c120","bdp_trlrn","Wed Jul 27 2022 22:48:44 GMT-0500 (Central Daylight Time)","703930","Untrustworthy,Trustworthy","","null","","","","feedback","","<div class='trialDiv'><img src='trustrating_stim/white_mw071.bmp'><br><font class='baseline'><strong>Jordan</strong><p>Received: <strong>12</strong></font> &nbsp; &nbsp; &nbsp; &nbsp; &nbsp; &nbsp;<font class='posOutcome'>Shared back: <strong>6</strong></font></font><div class='respPicDiv'><img src='img/responseButtonOffersNo0_wht.png' class='respPic'></div></div>","null","4","Jordan","3","Shared","0.8,0.2","10","0.8","trustrating_stim/white_mw071.bmp","1","54","10"
"html-keyboard-response","158","344851","0.0-10.0-1.10","60ef02ab65677c7c8803c120","bdp_trlrn","Wed Jul 27 2022 22:48:44 GMT-0500 (Central Daylight Time)","703930","Untrustworthy,Trustworthy","","5210","","","","decision","","<div class='trialDiv'><img src='trustrating_stim/white_mw056.bmp'><br><font class='baseline'><strong>Ryan</strong><p>Choose number of points to send.</font><div class='respPicDiv'><img src='img/responseButtonOffersNo0L.png' class='respPic'></div></div>","1","4","Ryan","8","Shared","0.2,0.65","10","0.2","trustrating_stim/white_mw056.bmp","6","59","11"
"html-keyboard-response","159","345103","0.0-10.0-2.10","60ef02ab65677c7c8803c120","bdp_trlrn","Wed Jul 27 2022 22:48:44 GMT-0500 (Central Daylight Time)","703930","Untrustworthy,Trustworthy","","null","","","","decisionFB","","<div class='trialDiv'><img src='trustrating_stim/white_mw056.bmp'><br><font class='baseline'><strong>Ryan</strong><p>Choose number of points to send.</font><div class='respPicDiv'><img src='img/responseButtonOffersNo0L1.png' class='respPic'></div></div>","null","4","Ryan","8","Shared","0.2,0.65","10","0.2","trustrating_stim/white_mw056.bmp","6","58","11"
"html-keyboard-response","160","346105","0.0-10.0-3.10","60ef02ab65677c7c8803c120","bdp_trlrn","Wed Jul 27 2022 22:48:44 GMT-0500 (Central Daylight Time)","703930","Untrustworthy,Trustworthy","","null","","","","feedback","","<div class='trialDiv'><img src='trustrating_stim/white_mw056.bmp'><br><font class='baseline'><strong>Ryan</strong><p>Received: <strong>4</strong></font> &nbsp; &nbsp; &nbsp; &nbsp; &nbsp; &nbsp;<font class='posOutcome'>Shared back: <strong>2</strong></font></font><div class='respPicDiv'><img src='img/responseButtonOffersNo0_wht.png' class='respPic'></div></div>","null","4","Ryan","8","Shared","0.2,0.65","10","0.2","trustrating_stim/white_mw056.bmp","6","60","11"
"html-keyboard-response","161","347040","0.0-10.0-1.11","60ef02ab65677c7c8803c120","bdp_trlrn","Wed Jul 27 2022 22:48:44 GMT-0500 (Central Daylight Time)","703930","Untrustworthy,Trustworthy","","935","","","","decision","","<div class='trialDiv'><img src='trustrating_stim/white_00340_940422_fa_edt.bmp'><br><font class='baseline'><strong>Timothy</strong><p>Choose number of points to send.</font><div class='respPicDiv'><img src='img/responseButtonOffersNo0L.png' class='respPic'></div></div>","1","4","Timothy","5","Shared","0.65,0.2","13","0.65","trustrating_stim/white_00340_940422_fa_edt.bmp","1.5","65","12"
"html-keyboard-response","162","347292","0.0-10.0-2.11","60ef02ab65677c7c8803c120","bdp_trlrn","Wed Jul 27 2022 22:48:44 GMT-0500 (Central Daylight Time)","703930","Untrustworthy,Trustworthy","","null","","","","decisionFB","","<div class='trialDiv'><img src='trustrating_stim/white_00340_940422_fa_edt.bmp'><br><font class='baseline'><strong>Timothy</strong><p>Choose number of points to send.</font><div class='respPicDiv'><img src='img/responseButtonOffersNo0L1.png' class='respPic'></div></div>","null","4","Timothy","5","Shared","0.65,0.2","13","0.65","trustrating_stim/white_00340_940422_fa_edt.bmp","1.5","64","12"
"html-keyboard-response","163","348294","0.0-10.0-3.11","60ef02ab65677c7c8803c120","bdp_trlrn","Wed Jul 27 2022 22:48:44 GMT-0500 (Central Daylight Time)","703930","Untrustworthy,Trustworthy","","null","","","","feedback","","<div class='trialDiv'><img src='trustrating_stim/white_00340_940422_fa_edt.bmp'><br><font class='baseline'><strong>Timothy</strong><p>Received: <strong>4</strong></font> &nbsp; &nbsp; &nbsp; &nbsp; &nbsp; &nbsp;<font class='posOutcome'>Shared back: <strong>2</strong></font></font><div class='respPicDiv'><img src='img/responseButtonOffersNo0_wht.png' class='respPic'></div></div>","null","4","Timothy","5","Shared","0.65,0.2","13","0.65","trustrating_stim/white_00340_940422_fa_edt.bmp","1.5","66","12"
"html-keyboard-response","164","350054","0.0-10.0-1.12","60ef02ab65677c7c8803c120","bdp_trlrn","Wed Jul 27 2022 22:48:44 GMT-0500 (Central Daylight Time)","703930","Untrustworthy,Trustworthy","","1759","","","","decision","","<div class='trialDiv'><img src='trustrating_stim/white_mw056.bmp'><br><font class='baseline'><strong>Ryan</strong><p>Choose number of points to send.</font><div class='respPicDiv'><img src='img/responseButtonOffersNo0L.png' class='respPic'></div></div>","2","5","Ryan","8","Kept","0.2,0.65","10","0.2","trustrating_stim/white_mw056.bmp","6","71","13"
"html-keyboard-response","165","350306","0.0-10.0-2.12","60ef02ab65677c7c8803c120","bdp_trlrn","Wed Jul 27 2022 22:48:44 GMT-0500 (Central Daylight Time)","703930","Untrustworthy,Trustworthy","","null","","","","decisionFB","","<div class='trialDiv'><img src='trustrating_stim/white_mw056.bmp'><br><font class='baseline'><strong>Ryan</strong><p>Choose number of points to send.</font><div class='respPicDiv'><img src='img/responseButtonOffersNo0L2.png' class='respPic'></div></div>","null","5","Ryan","8","Kept","0.2,0.65","10","0.2","trustrating_stim/white_mw056.bmp","6","69","13"
"html-keyboard-response","166","351308","0.0-10.0-3.12","60ef02ab65677c7c8803c120","bdp_trlrn","Wed Jul 27 2022 22:48:44 GMT-0500 (Central Daylight Time)","703930","Untrustworthy,Trustworthy","","null","","","","feedback","","<div class='trialDiv'><img src='trustrating_stim/white_mw056.bmp'><br><font class='baseline'><strong>Ryan</strong><p>Received: <strong>8</strong></font> &nbsp; &nbsp; &nbsp; &nbsp; &nbsp; &nbsp;<font class='negOutcome'>Shared back: <strong>0</strong></font></font><div class='respPicDiv'><img src='img/responseButtonOffersNo0_wht.png' class='respPic'></div></div>","null","5","Ryan","8","Kept","0.2,0.65","10","0.2","trustrating_stim/white_mw056.bmp","6","69","13"
"html-keyboard-response","167","352996","0.0-10.0-1.13","60ef02ab65677c7c8803c120","bdp_trlrn","Wed Jul 27 2022 22:48:44 GMT-0500 (Central Daylight Time)","703930","Untrustworthy,Trustworthy","","1687","","","","decision","","<div class='trialDiv'><img src='trustrating_stim/white_00340_940422_fa_edt.bmp'><br><font class='baseline'><strong>Timothy</strong><p>Choose number of points to send.</font><div class='respPicDiv'><img src='img/responseButtonOffersNo0L.png' class='respPic'></div></div>","2","5","Timothy","5","Kept","0.65,0.2","13","0.65","trustrating_stim/white_00340_940422_fa_edt.bmp","1.5","74","14"
"html-keyboard-response","168","353247","0.0-10.0-2.13","60ef02ab65677c7c8803c120","bdp_trlrn","Wed Jul 27 2022 22:48:44 GMT-0500 (Central Daylight Time)","703930","Untrustworthy,Trustworthy","","null","","","","decisionFB","","<div class='trialDiv'><img src='trustrating_stim/white_00340_940422_fa_edt.bmp'><br><font class='baseline'><strong>Timothy</strong><p>Choose number of points to send.</font><div class='respPicDiv'><img src='img/responseButtonOffersNo0L2.png' class='respPic'></div></div>","null","5","Timothy","5","Kept","0.65,0.2","13","0.65","trustrating_stim/white_00340_940422_fa_edt.bmp","1.5","72","14"
"html-keyboard-response","169","354248","0.0-10.0-3.13","60ef02ab65677c7c8803c120","bdp_trlrn","Wed Jul 27 2022 22:48:44 GMT-0500 (Central Daylight Time)","703930","Untrustworthy,Trustworthy","","null","","","","feedback","","<div class='trialDiv'><img src='trustrating_stim/white_00340_940422_fa_edt.bmp'><br><font class='baseline'><strong>Timothy</strong><p>Received: <strong>8</strong></font> &nbsp; &nbsp; &nbsp; &nbsp; &nbsp; &nbsp;<font class='negOutcome'>Shared back: <strong>0</strong></font></font><div class='respPicDiv'><img src='img/responseButtonOffersNo0_wht.png' class='respPic'></div></div>","null","5","Timothy","5","Kept","0.65,0.2","13","0.65","trustrating_stim/white_00340_940422_fa_edt.bmp","1.5","72","14"
"html-keyboard-response","170","355465","0.0-10.0-1.14","60ef02ab65677c7c8803c120","bdp_trlrn","Wed Jul 27 2022 22:48:44 GMT-0500 (Central Daylight Time)","703930","Untrustworthy,Trustworthy","","1215","","","","decision","","<div class='trialDiv'><img src='trustrating_stim/white_mw071.bmp'><br><font class='baseline'><strong>Jordan</strong><p>Choose number of points to send.</font><div class='respPicDiv'><img src='img/responseButtonOffersNo0L.png' class='respPic'></div></div>","2","5","Jordan","3","Kept","0.8,0.2","10","0.8","trustrating_stim/white_mw071.bmp","1","77","15"
"html-keyboard-response","171","355717","0.0-10.0-2.14","60ef02ab65677c7c8803c120","bdp_trlrn","Wed Jul 27 2022 22:48:44 GMT-0500 (Central Daylight Time)","703930","Untrustworthy,Trustworthy","","null","","","","decisionFB","","<div class='trialDiv'><img src='trustrating_stim/white_mw071.bmp'><br><font class='baseline'><strong>Jordan</strong><p>Choose number of points to send.</font><div class='respPicDiv'><img src='img/responseButtonOffersNo0L2.png' class='respPic'></div></div>","null","5","Jordan","3","Kept","0.8,0.2","10","0.8","trustrating_stim/white_mw071.bmp","1","75","15"
"html-keyboard-response","172","356719","0.0-10.0-3.14","60ef02ab65677c7c8803c120","bdp_trlrn","Wed Jul 27 2022 22:48:44 GMT-0500 (Central Daylight Time)","703930","Untrustworthy,Trustworthy","","null","","","","feedback","","<div class='trialDiv'><img src='trustrating_stim/white_mw071.bmp'><br><font class='baseline'><strong>Jordan</strong><p>Received: <strong>8</strong></font> &nbsp; &nbsp; &nbsp; &nbsp; &nbsp; &nbsp;<font class='negOutcome'>Shared back: <strong>0</strong></font></font><div class='respPicDiv'><img src='img/responseButtonOffersNo0_wht.png' class='respPic'></div></div>","null","5","Jordan","3","Kept","0.8,0.2","10","0.8","trustrating_stim/white_mw071.bmp","1","75","15"
"html-keyboard-response","173","357634","0.0-10.0-1.15","60ef02ab65677c7c8803c120","bdp_trlrn","Wed Jul 27 2022 22:48:44 GMT-0500 (Central Daylight Time)","703930","Untrustworthy,Trustworthy","","915","","","","decision","","<div class='trialDiv'><img src='trustrating_stim/white_00340_940422_fa_edt.bmp'><br><font class='baseline'><strong>Timothy</strong><p>Choose number of points to send.</font><div class='respPicDiv'><img src='img/responseButtonOffersNo0L.png' class='respPic'></div></div>","1","6","Timothy","5","Shared","0.65,0.2","13","0.65","trustrating_stim/white_00340_940422_fa_edt.bmp","1.5","80","16"
"html-keyboard-response","174","357886","0.0-10.0-2.15","60ef02ab65677c7c8803c120","bdp_trlrn","Wed Jul 27 2022 22:48:44 GMT-0500 (Central Daylight Time)","703930","Untrustworthy,Trustworthy","","null","","","","decisionFB","","<div class='trialDiv'><img src='trustrating_stim/white_00340_940422_fa_edt.bmp'><br><font class='baseline'><strong>Timothy</strong><p>Choose number of points to send.</font><div class='respPicDiv'><img src='img/responseButtonOffersNo0L1.png' class='respPic'></div></div>","null","6","Timothy","5","Shared","0.65,0.2","13","0.65","trustrating_stim/white_00340_940422_fa_edt.bmp","1.5","79","16"
"html-keyboard-response","175","358887","0.0-10.0-3.15","60ef02ab65677c7c8803c120","bdp_trlrn","Wed Jul 27 2022 22:48:44 GMT-0500 (Central Daylight Time)","703930","Untrustworthy,Trustworthy","","null","","","","feedback","","<div class='trialDiv'><img src='trustrating_stim/white_00340_940422_fa_edt.bmp'><br><font class='baseline'><strong>Timothy</strong><p>Received: <strong>4</strong></font> &nbsp; &nbsp; &nbsp; &nbsp; &nbsp; &nbsp;<font class='posOutcome'>Shared back: <strong>2</strong></font></font><div class='respPicDiv'><img src='img/responseButtonOffersNo0_wht.png' class='respPic'></div></div>","null","6","Timothy","5","Shared","0.65,0.2","13","0.65","trustrating_stim/white_00340_940422_fa_edt.bmp","1.5","81","16"
"html-keyboard-response","176","360376","0.0-10.0-1.16","60ef02ab65677c7c8803c120","bdp_trlrn","Wed Jul 27 2022 22:48:44 GMT-0500 (Central Daylight Time)","703930","Untrustworthy,Trustworthy","","1488","","","","decision","","<div class='trialDiv'><img src='trustrating_stim/white_mw071.bmp'><br><font class='baseline'><strong>Jordan</strong><p>Choose number of points to send.</font><div class='respPicDiv'><img src='img/responseButtonOffersNo0L.png' class='respPic'></div></div>","2","6","Jordan","3","Shared","0.8,0.2","10","0.8","trustrating_stim/white_mw071.bmp","1","86","17"
"html-keyboard-response","177","360627","0.0-10.0-2.16","60ef02ab65677c7c8803c120","bdp_trlrn","Wed Jul 27 2022 22:48:44 GMT-0500 (Central Daylight Time)","703930","Untrustworthy,Trustworthy","","null","","","","decisionFB","","<div class='trialDiv'><img src='trustrating_stim/white_mw071.bmp'><br><font class='baseline'><strong>Jordan</strong><p>Choose number of points to send.</font><div class='respPicDiv'><img src='img/responseButtonOffersNo0L2.png' class='respPic'></div></div>","null","6","Jordan","3","Shared","0.8,0.2","10","0.8","trustrating_stim/white_mw071.bmp","1","84","17"
"html-keyboard-response","178","361629","0.0-10.0-3.16","60ef02ab65677c7c8803c120","bdp_trlrn","Wed Jul 27 2022 22:48:44 GMT-0500 (Central Daylight Time)","703930","Untrustworthy,Trustworthy","","null","","","","feedback","","<div class='trialDiv'><img src='trustrating_stim/white_mw071.bmp'><br><font class='baseline'><strong>Jordan</strong><p>Received: <strong>8</strong></font> &nbsp; &nbsp; &nbsp; &nbsp; &nbsp; &nbsp;<font class='posOutcome'>Shared back: <strong>4</strong></font></font><div class='respPicDiv'><img src='img/responseButtonOffersNo0_wht.png' class='respPic'></div></div>","null","6","Jordan","3","Shared","0.8,0.2","10","0.8","trustrating_stim/white_mw071.bmp","1","88","17"
"html-keyboard-response","179","362325","0.0-10.0-1.17","60ef02ab65677c7c8803c120","bdp_trlrn","Wed Jul 27 2022 22:48:44 GMT-0500 (Central Daylight Time)","703930","Untrustworthy,Trustworthy","","696","","","","decision","","<div class='trialDiv'><img src='trustrating_stim/white_mw056.bmp'><br><font class='baseline'><strong>Ryan</strong><p>Choose number of points to send.</font><div class='respPicDiv'><img src='img/responseButtonOffersNo0L.png' class='respPic'></div></div>","1","6","Ryan","8","Kept","0.2,0.65","10","0.2","trustrating_stim/white_mw056.bmp","6","93","18"
"html-keyboard-response","180","362577","0.0-10.0-2.17","60ef02ab65677c7c8803c120","bdp_trlrn","Wed Jul 27 2022 22:48:44 GMT-0500 (Central Daylight Time)","703930","Untrustworthy,Trustworthy","","null","","","","decisionFB","","<div class='trialDiv'><img src='trustrating_stim/white_mw056.bmp'><br><font class='baseline'><strong>Ryan</strong><p>Choose number of points to send.</font><div class='respPicDiv'><img src='img/responseButtonOffersNo0L1.png' class='respPic'></div></div>","null","6","Ryan","8","Kept","0.2,0.65","10","0.2","trustrating_stim/white_mw056.bmp","6","92","18"
"html-keyboard-response","181","363578","0.0-10.0-3.17","60ef02ab65677c7c8803c120","bdp_trlrn","Wed Jul 27 2022 22:48:44 GMT-0500 (Central Daylight Time)","703930","Untrustworthy,Trustworthy","","null","","","","feedback","","<div class='trialDiv'><img src='trustrating_stim/white_mw056.bmp'><br><font class='baseline'><strong>Ryan</strong><p>Received: <strong>4</strong></font> &nbsp; &nbsp; &nbsp; &nbsp; &nbsp; &nbsp;<font class='negOutcome'>Shared back: <strong>0</strong></font></font><div class='respPicDiv'><img src='img/responseButtonOffersNo0_wht.png' class='respPic'></div></div>","null","6","Ryan","8","Kept","0.2,0.65","10","0.2","trustrating_stim/white_mw056.bmp","6","92","18"
"html-keyboard-response","182","364668","0.0-10.0-1.18","60ef02ab65677c7c8803c120","bdp_trlrn","Wed Jul 27 2022 22:48:44 GMT-0500 (Central Daylight Time)","703930","Untrustworthy,Trustworthy","","1089","","","","decision","","<div class='trialDiv'><img src='trustrating_stim/white_00340_940422_fa_edt.bmp'><br><font class='baseline'><strong>Timothy</strong><p>Choose number of points to send.</font><div class='respPicDiv'><img src='img/responseButtonOffersNo0L.png' class='respPic'></div></div>","1","7","Timothy","5","Shared","0.65,0.2","13","0.65","trustrating_stim/white_00340_940422_fa_edt.bmp","1.5","97","19"
"html-keyboard-response","183","364920","0.0-10.0-2.18","60ef02ab65677c7c8803c120","bdp_trlrn","Wed Jul 27 2022 22:48:44 GMT-0500 (Central Daylight Time)","703930","Untrustworthy,Trustworthy","","null","","","","decisionFB","","<div class='trialDiv'><img src='trustrating_stim/white_00340_940422_fa_edt.bmp'><br><font class='baseline'><strong>Timothy</strong><p>Choose number of points to send.</font><div class='respPicDiv'><img src='img/responseButtonOffersNo0L1.png' class='respPic'></div></div>","null","7","Timothy","5","Shared","0.65,0.2","13","0.65","trustrating_stim/white_00340_940422_fa_edt.bmp","1.5","96","19"
"html-keyboard-response","184","365921","0.0-10.0-3.18","60ef02ab65677c7c8803c120","bdp_trlrn","Wed Jul 27 2022 22:48:44 GMT-0500 (Central Daylight Time)","703930","Untrustworthy,Trustworthy","","null","","","","feedback","","<div class='trialDiv'><img src='trustrating_stim/white_00340_940422_fa_edt.bmp'><br><font class='baseline'><strong>Timothy</strong><p>Received: <strong>4</strong></font> &nbsp; &nbsp; &nbsp; &nbsp; &nbsp; &nbsp;<font class='posOutcome'>Shared back: <strong>2</strong></font></font><div class='respPicDiv'><img src='img/responseButtonOffersNo0_wht.png' class='respPic'></div></div>","null","7","Timothy","5","Shared","0.65,0.2","13","0.65","trustrating_stim/white_00340_940422_fa_edt.bmp","1.5","98","19"
"html-keyboard-response","185","369051","0.0-10.0-1.19","60ef02ab65677c7c8803c120","bdp_trlrn","Wed Jul 27 2022 22:48:44 GMT-0500 (Central Daylight Time)","703930","Untrustworthy,Trustworthy","","3130","","","","decision","","<div class='trialDiv'><img src='trustrating_stim/white_mw071.bmp'><br><font class='baseline'><strong>Jordan</strong><p>Choose number of points to send.</font><div class='respPicDiv'><img src='img/responseButtonOffersNo0L.png' class='respPic'></div></div>","2","7","Jordan","3","Shared","0.8,0.2","10","0.8","trustrating_stim/white_mw071.bmp","1","103","20"
"html-keyboard-response","186","369304","0.0-10.0-2.19","60ef02ab65677c7c8803c120","bdp_trlrn","Wed Jul 27 2022 22:48:44 GMT-0500 (Central Daylight Time)","703930","Untrustworthy,Trustworthy","","null","","","","decisionFB","","<div class='trialDiv'><img src='trustrating_stim/white_mw071.bmp'><br><font class='baseline'><strong>Jordan</strong><p>Choose number of points to send.</font><div class='respPicDiv'><img src='img/responseButtonOffersNo0L2.png' class='respPic'></div></div>","null","7","Jordan","3","Shared","0.8,0.2","10","0.8","trustrating_stim/white_mw071.bmp","1","101","20"
"html-keyboard-response","187","370306","0.0-10.0-3.19","60ef02ab65677c7c8803c120","bdp_trlrn","Wed Jul 27 2022 22:48:44 GMT-0500 (Central Daylight Time)","703930","Untrustworthy,Trustworthy","","null","","","","feedback","","<div class='trialDiv'><img src='trustrating_stim/white_mw071.bmp'><br><font class='baseline'><strong>Jordan</strong><p>Received: <strong>8</strong></font> &nbsp; &nbsp; &nbsp; &nbsp; &nbsp; &nbsp;<font class='posOutcome'>Shared back: <strong>4</strong></font></font><div class='respPicDiv'><img src='img/responseButtonOffersNo0_wht.png' class='respPic'></div></div>","null","7","Jordan","3","Shared","0.8,0.2","10","0.8","trustrating_stim/white_mw071.bmp","1","105","20"
"html-keyboard-response","188","373054","0.0-10.0-1.20","60ef02ab65677c7c8803c120","bdp_trlrn","Wed Jul 27 2022 22:48:44 GMT-0500 (Central Daylight Time)","703930","Untrustworthy,Trustworthy","","2748","","","","decision","","<div class='trialDiv'><img src='trustrating_stim/white_mw056.bmp'><br><font class='baseline'><strong>Ryan</strong><p>Choose number of points to send.</font><div class='respPicDiv'><img src='img/responseButtonOffersNo0L.png' class='respPic'></div></div>","1","7","Ryan","8","Kept","0.2,0.65","10","0.2","trustrating_stim/white_mw056.bmp","6","110","21"
"html-keyboard-response","189","373305","0.0-10.0-2.20","60ef02ab65677c7c8803c120","bdp_trlrn","Wed Jul 27 2022 22:48:44 GMT-0500 (Central Daylight Time)","703930","Untrustworthy,Trustworthy","","null","","","","decisionFB","","<div class='trialDiv'><img src='trustrating_stim/white_mw056.bmp'><br><font class='baseline'><strong>Ryan</strong><p>Choose number of points to send.</font><div class='respPicDiv'><img src='img/responseButtonOffersNo0L1.png' class='respPic'></div></div>","null","7","Ryan","8","Kept","0.2,0.65","10","0.2","trustrating_stim/white_mw056.bmp","6","109","21"
"html-keyboard-response","190","374307","0.0-10.0-3.20","60ef02ab65677c7c8803c120","bdp_trlrn","Wed Jul 27 2022 22:48:44 GMT-0500 (Central Daylight Time)","703930","Untrustworthy,Trustworthy","","null","","","","feedback","","<div class='trialDiv'><img src='trustrating_stim/white_mw056.bmp'><br><font class='baseline'><strong>Ryan</strong><p>Received: <strong>4</strong></font> &nbsp; &nbsp; &nbsp; &nbsp; &nbsp; &nbsp;<font class='negOutcome'>Shared back: <strong>0</strong></font></font><div class='respPicDiv'><img src='img/responseButtonOffersNo0_wht.png' class='respPic'></div></div>","null","7","Ryan","8","Kept","0.2,0.65","10","0.2","trustrating_stim/white_mw056.bmp","6","109","21"
"html-keyboard-response","191","375053","0.0-10.0-1.21","60ef02ab65677c7c8803c120","bdp_trlrn","Wed Jul 27 2022 22:48:44 GMT-0500 (Central Daylight Time)","703930","Untrustworthy,Trustworthy","","744","","","","decision","","<div class='trialDiv'><img src='trustrating_stim/white_00340_940422_fa_edt.bmp'><br><font class='baseline'><strong>Timothy</strong><p>Choose number of points to send.</font><div class='respPicDiv'><img src='img/responseButtonOffersNo0L.png' class='respPic'></div></div>","1","8","Timothy","5","Shared","0.65,0.2","13","0.65","trustrating_stim/white_00340_940422_fa_edt.bmp","1.5","114","22"
"html-keyboard-response","192","375305","0.0-10.0-2.21","60ef02ab65677c7c8803c120","bdp_trlrn","Wed Jul 27 2022 22:48:44 GMT-0500 (Central Daylight Time)","703930","Untrustworthy,Trustworthy","","null","","","","decisionFB","","<div class='trialDiv'><img src='trustrating_stim/white_00340_940422_fa_edt.bmp'><br><font class='baseline'><strong>Timothy</strong><p>Choose number of points to send.</font><div class='respPicDiv'><img src='img/responseButtonOffersNo0L1.png' class='respPic'></div></div>","null","8","Timothy","5","Shared","0.65,0.2","13","0.65","trustrating_stim/white_00340_940422_fa_edt.bmp","1.5","113","22"
"html-keyboard-response","193","376306","0.0-10.0-3.21","60ef02ab65677c7c8803c120","bdp_trlrn","Wed Jul 27 2022 22:48:44 GMT-0500 (Central Daylight Time)","703930","Untrustworthy,Trustworthy","","null","","","","feedback","","<div class='trialDiv'><img src='trustrating_stim/white_00340_940422_fa_edt.bmp'><br><font class='baseline'><strong>Timothy</strong><p>Received: <strong>4</strong></font> &nbsp; &nbsp; &nbsp; &nbsp; &nbsp; &nbsp;<font class='posOutcome'>Shared back: <strong>2</strong></font></font><div class='respPicDiv'><img src='img/responseButtonOffersNo0_wht.png' class='respPic'></div></div>","null","8","Timothy","5","Shared","0.65,0.2","13","0.65","trustrating_stim/white_00340_940422_fa_edt.bmp","1.5","115","22"
"html-keyboard-response","194","377666","0.0-10.0-1.22","60ef02ab65677c7c8803c120","bdp_trlrn","Wed Jul 27 2022 22:48:44 GMT-0500 (Central Daylight Time)","703930","Untrustworthy,Trustworthy","","1359","","","","decision","","<div class='trialDiv'><img src='trustrating_stim/white_mw071.bmp'><br><font class='baseline'><strong>Jordan</strong><p>Choose number of points to send.</font><div class='respPicDiv'><img src='img/responseButtonOffersNo0L.png' class='respPic'></div></div>","2","8","Jordan","3","Shared","0.8,0.2","10","0.8","trustrating_stim/white_mw071.bmp","1","120","23"
"html-keyboard-response","195","377917","0.0-10.0-2.22","60ef02ab65677c7c8803c120","bdp_trlrn","Wed Jul 27 2022 22:48:44 GMT-0500 (Central Daylight Time)","703930","Untrustworthy,Trustworthy","","null","","","","decisionFB","","<div class='trialDiv'><img src='trustrating_stim/white_mw071.bmp'><br><font class='baseline'><strong>Jordan</strong><p>Choose number of points to send.</font><div class='respPicDiv'><img src='img/responseButtonOffersNo0L2.png' class='respPic'></div></div>","null","8","Jordan","3","Shared","0.8,0.2","10","0.8","trustrating_stim/white_mw071.bmp","1","118","23"
"html-keyboard-response","196","378919","0.0-10.0-3.22","60ef02ab65677c7c8803c120","bdp_trlrn","Wed Jul 27 2022 22:48:44 GMT-0500 (Central Daylight Time)","703930","Untrustworthy,Trustworthy","","null","","","","feedback","","<div class='trialDiv'><img src='trustrating_stim/white_mw071.bmp'><br><font class='baseline'><strong>Jordan</strong><p>Received: <strong>8</strong></font> &nbsp; &nbsp; &nbsp; &nbsp; &nbsp; &nbsp;<font class='posOutcome'>Shared back: <strong>4</strong></font></font><div class='respPicDiv'><img src='img/responseButtonOffersNo0_wht.png' class='respPic'></div></div>","null","8","Jordan","3","Shared","0.8,0.2","10","0.8","trustrating_stim/white_mw071.bmp","1","122","23"
"html-keyboard-response","197","380714","0.0-10.0-1.23","60ef02ab65677c7c8803c120","bdp_trlrn","Wed Jul 27 2022 22:48:44 GMT-0500 (Central Daylight Time)","703930","Untrustworthy,Trustworthy","","1795","","","","decision","","<div class='trialDiv'><img src='trustrating_stim/white_mw056.bmp'><br><font class='baseline'><strong>Ryan</strong><p>Choose number of points to send.</font><div class='respPicDiv'><img src='img/responseButtonOffersNo0L.png' class='respPic'></div></div>","1","8","Ryan","8","Kept","0.2,0.65","10","0.2","trustrating_stim/white_mw056.bmp","6","127","24"
"html-keyboard-response","198","380965","0.0-10.0-2.23","60ef02ab65677c7c8803c120","bdp_trlrn","Wed Jul 27 2022 22:48:44 GMT-0500 (Central Daylight Time)","703930","Untrustworthy,Trustworthy","","null","","","","decisionFB","","<div class='trialDiv'><img src='trustrating_stim/white_mw056.bmp'><br><font class='baseline'><strong>Ryan</strong><p>Choose number of points to send.</font><div class='respPicDiv'><img src='img/responseButtonOffersNo0L1.png' class='respPic'></div></div>","null","8","Ryan","8","Kept","0.2,0.65","10","0.2","trustrating_stim/white_mw056.bmp","6","126","24"
"html-keyboard-response","199","381967","0.0-10.0-3.23","60ef02ab65677c7c8803c120","bdp_trlrn","Wed Jul 27 2022 22:48:44 GMT-0500 (Central Daylight Time)","703930","Untrustworthy,Trustworthy","","null","","","","feedback","","<div class='trialDiv'><img src='trustrating_stim/white_mw056.bmp'><br><font class='baseline'><strong>Ryan</strong><p>Received: <strong>4</strong></font> &nbsp; &nbsp; &nbsp; &nbsp; &nbsp; &nbsp;<font class='negOutcome'>Shared back: <strong>0</strong></font></font><div class='respPicDiv'><img src='img/responseButtonOffersNo0_wht.png' class='respPic'></div></div>","null","8","Ryan","8","Kept","0.2,0.65","10","0.2","trustrating_stim/white_mw056.bmp","6","126","24"
"html-keyboard-response","200","383258","0.0-10.0-1.24","60ef02ab65677c7c8803c120","bdp_trlrn","Wed Jul 27 2022 22:48:44 GMT-0500 (Central Daylight Time)","703930","Untrustworthy,Trustworthy","","1290","","","","decision","","<div class='trialDiv'><img src='trustrating_stim/white_mw071.bmp'><br><font class='baseline'><strong>Jordan</strong><p>Choose number of points to send.</font><div class='respPicDiv'><img src='img/responseButtonOffersNo0L.png' class='respPic'></div></div>","2","9","Jordan","3","Shared","0.8,0.2","10","0.8","trustrating_stim/white_mw071.bmp","1","131","25"
"html-keyboard-response","201","383509","0.0-10.0-2.24","60ef02ab65677c7c8803c120","bdp_trlrn","Wed Jul 27 2022 22:48:44 GMT-0500 (Central Daylight Time)","703930","Untrustworthy,Trustworthy","","null","","","","decisionFB","","<div class='trialDiv'><img src='trustrating_stim/white_mw071.bmp'><br><font class='baseline'><strong>Jordan</strong><p>Choose number of points to send.</font><div class='respPicDiv'><img src='img/responseButtonOffersNo0L2.png' class='respPic'></div></div>","null","9","Jordan","3","Shared","0.8,0.2","10","0.8","trustrating_stim/white_mw071.bmp","1","129","25"
"html-keyboard-response","202","384511","0.0-10.0-3.24","60ef02ab65677c7c8803c120","bdp_trlrn","Wed Jul 27 2022 22:48:44 GMT-0500 (Central Daylight Time)","703930","Untrustworthy,Trustworthy","","null","","","","feedback","","<div class='trialDiv'><img src='trustrating_stim/white_mw071.bmp'><br><font class='baseline'><strong>Jordan</strong><p>Received: <strong>8</strong></font> &nbsp; &nbsp; &nbsp; &nbsp; &nbsp; &nbsp;<font class='posOutcome'>Shared back: <strong>4</strong></font></font><div class='respPicDiv'><img src='img/responseButtonOffersNo0_wht.png' class='respPic'></div></div>","null","9","Jordan","3","Shared","0.8,0.2","10","0.8","trustrating_stim/white_mw071.bmp","1","133","25"
"html-keyboard-response","203","385946","0.0-10.0-1.25","60ef02ab65677c7c8803c120","bdp_trlrn","Wed Jul 27 2022 22:48:44 GMT-0500 (Central Daylight Time)","703930","Untrustworthy,Trustworthy","","1435","","","","decision","","<div class='trialDiv'><img src='trustrating_stim/white_mw056.bmp'><br><font class='baseline'><strong>Ryan</strong><p>Choose number of points to send.</font><div class='respPicDiv'><img src='img/responseButtonOffersNo0L.png' class='respPic'></div></div>","1","9","Ryan","8","Kept","0.2,0.65","10","0.2","trustrating_stim/white_mw056.bmp","6","138","26"
"html-keyboard-response","204","386197","0.0-10.0-2.25","60ef02ab65677c7c8803c120","bdp_trlrn","Wed Jul 27 2022 22:48:44 GMT-0500 (Central Daylight Time)","703930","Untrustworthy,Trustworthy","","null","","","","decisionFB","","<div class='trialDiv'><img src='trustrating_stim/white_mw056.bmp'><br><font class='baseline'><strong>Ryan</strong><p>Choose number of points to send.</font><div class='respPicDiv'><img src='img/responseButtonOffersNo0L1.png' class='respPic'></div></div>","null","9","Ryan","8","Kept","0.2,0.65","10","0.2","trustrating_stim/white_mw056.bmp","6","137","26"
"html-keyboard-response","205","387200","0.0-10.0-3.25","60ef02ab65677c7c8803c120","bdp_trlrn","Wed Jul 27 2022 22:48:44 GMT-0500 (Central Daylight Time)","703930","Untrustworthy,Trustworthy","","null","","","","feedback","","<div class='trialDiv'><img src='trustrating_stim/white_mw056.bmp'><br><font class='baseline'><strong>Ryan</strong><p>Received: <strong>4</strong></font> &nbsp; &nbsp; &nbsp; &nbsp; &nbsp; &nbsp;<font class='negOutcome'>Shared back: <strong>0</strong></font></font><div class='respPicDiv'><img src='img/responseButtonOffersNo0_wht.png' class='respPic'></div></div>","null","9","Ryan","8","Kept","0.2,0.65","10","0.2","trustrating_stim/white_mw056.bmp","6","137","26"
"html-keyboard-response","206","388785","0.0-10.0-1.26","60ef02ab65677c7c8803c120","bdp_trlrn","Wed Jul 27 2022 22:48:44 GMT-0500 (Central Daylight Time)","703930","Untrustworthy,Trustworthy","","1585","","","","decision","","<div class='trialDiv'><img src='trustrating_stim/white_00340_940422_fa_edt.bmp'><br><font class='baseline'><strong>Timothy</strong><p>Choose number of points to send.</font><div class='respPicDiv'><img src='img/responseButtonOffersNo0L.png' class='respPic'></div></div>","2","9","Timothy","5","Shared","0.65,0.2","13","0.65","trustrating_stim/white_00340_940422_fa_edt.bmp","1.5","142","27"
"html-keyboard-response","207","389037","0.0-10.0-2.26","60ef02ab65677c7c8803c120","bdp_trlrn","Wed Jul 27 2022 22:48:44 GMT-0500 (Central Daylight Time)","703930","Untrustworthy,Trustworthy","","null","","","","decisionFB","","<div class='trialDiv'><img src='trustrating_stim/white_00340_940422_fa_edt.bmp'><br><font class='baseline'><strong>Timothy</strong><p>Choose number of points to send.</font><div class='respPicDiv'><img src='img/responseButtonOffersNo0L2.png' class='respPic'></div></div>","null","9","Timothy","5","Shared","0.65,0.2","13","0.65","trustrating_stim/white_00340_940422_fa_edt.bmp","1.5","140","27"
"html-keyboard-response","208","390039","0.0-10.0-3.26","60ef02ab65677c7c8803c120","bdp_trlrn","Wed Jul 27 2022 22:48:44 GMT-0500 (Central Daylight Time)","703930","Untrustworthy,Trustworthy","","null","","","","feedback","","<div class='trialDiv'><img src='trustrating_stim/white_00340_940422_fa_edt.bmp'><br><font class='baseline'><strong>Timothy</strong><p>Received: <strong>8</strong></font> &nbsp; &nbsp; &nbsp; &nbsp; &nbsp; &nbsp;<font class='posOutcome'>Shared back: <strong>4</strong></font></font><div class='respPicDiv'><img src='img/responseButtonOffersNo0_wht.png' class='respPic'></div></div>","null","9","Timothy","5","Shared","0.65,0.2","13","0.65","trustrating_stim/white_00340_940422_fa_edt.bmp","1.5","144","27"
"html-keyboard-response","209","391573","0.0-10.0-1.27","60ef02ab65677c7c8803c120","bdp_trlrn","Wed Jul 27 2022 22:48:44 GMT-0500 (Central Daylight Time)","703930","Untrustworthy,Trustworthy","","1534","","","","decision","","<div class='trialDiv'><img src='trustrating_stim/white_mw071.bmp'><br><font class='baseline'><strong>Jordan</strong><p>Choose number of points to send.</font><div class='respPicDiv'><img src='img/responseButtonOffersNo0L.png' class='respPic'></div></div>","3","10","Jordan","3","Kept","0.8,0.2","10","0.8","trustrating_stim/white_mw071.bmp","1","149","28"
"html-keyboard-response","210","391825","0.0-10.0-2.27","60ef02ab65677c7c8803c120","bdp_trlrn","Wed Jul 27 2022 22:48:44 GMT-0500 (Central Daylight Time)","703930","Untrustworthy,Trustworthy","","null","","","","decisionFB","","<div class='trialDiv'><img src='trustrating_stim/white_mw071.bmp'><br><font class='baseline'><strong>Jordan</strong><p>Choose number of points to send.</font><div class='respPicDiv'><img src='img/responseButtonOffersNo0L3.png' class='respPic'></div></div>","null","10","Jordan","3","Kept","0.8,0.2","10","0.8","trustrating_stim/white_mw071.bmp","1","146","28"
"html-keyboard-response","211","392827","0.0-10.0-3.27","60ef02ab65677c7c8803c120","bdp_trlrn","Wed Jul 27 2022 22:48:44 GMT-0500 (Central Daylight Time)","703930","Untrustworthy,Trustworthy","","null","","","","feedback","","<div class='trialDiv'><img src='trustrating_stim/white_mw071.bmp'><br><font class='baseline'><strong>Jordan</strong><p>Received: <strong>12</strong></font> &nbsp; &nbsp; &nbsp; &nbsp; &nbsp; &nbsp;<font class='negOutcome'>Shared back: <strong>0</strong></font></font><div class='respPicDiv'><img src='img/responseButtonOffersNo0_wht.png' class='respPic'></div></div>","null","10","Jordan","3","Kept","0.8,0.2","10","0.8","trustrating_stim/white_mw071.bmp","1","146","28"
"html-keyboard-response","212","396671","0.0-10.0-1.28","60ef02ab65677c7c8803c120","bdp_trlrn","Wed Jul 27 2022 22:48:44 GMT-0500 (Central Daylight Time)","703930","Untrustworthy,Trustworthy","","3843","","","","decision","","<div class='trialDiv'><img src='trustrating_stim/white_00340_940422_fa_edt.bmp'><br><font class='baseline'><strong>Timothy</strong><p>Choose number of points to send.</font><div class='respPicDiv'><img src='img/responseButtonOffersNo0L.png' class='respPic'></div></div>","1","10","Timothy","5","Shared","0.65,0.2","13","0.65","trustrating_stim/white_00340_940422_fa_edt.bmp","1.5","151","29"
"html-keyboard-response","213","396922","0.0-10.0-2.28","60ef02ab65677c7c8803c120","bdp_trlrn","Wed Jul 27 2022 22:48:44 GMT-0500 (Central Daylight Time)","703930","Untrustworthy,Trustworthy","","null","","","","decisionFB","","<div class='trialDiv'><img src='trustrating_stim/white_00340_940422_fa_edt.bmp'><br><font class='baseline'><strong>Timothy</strong><p>Choose number of points to send.</font><div class='respPicDiv'><img src='img/responseButtonOffersNo0L1.png' class='respPic'></div></div>","null","10","Timothy","5","Shared","0.65,0.2","13","0.65","trustrating_stim/white_00340_940422_fa_edt.bmp","1.5","150","29"
"html-keyboard-response","214","397923","0.0-10.0-3.28","60ef02ab65677c7c8803c120","bdp_trlrn","Wed Jul 27 2022 22:48:44 GMT-0500 (Central Daylight Time)","703930","Untrustworthy,Trustworthy","","null","","","","feedback","","<div class='trialDiv'><img src='trustrating_stim/white_00340_940422_fa_edt.bmp'><br><font class='baseline'><strong>Timothy</strong><p>Received: <strong>4</strong></font> &nbsp; &nbsp; &nbsp; &nbsp; &nbsp; &nbsp;<font class='posOutcome'>Shared back: <strong>2</strong></font></font><div class='respPicDiv'><img src='img/responseButtonOffersNo0_wht.png' class='respPic'></div></div>","null","10","Timothy","5","Shared","0.65,0.2","13","0.65","trustrating_stim/white_00340_940422_fa_edt.bmp","1.5","152","29"
"html-keyboard-response","215","399109","0.0-10.0-1.29","60ef02ab65677c7c8803c120","bdp_trlrn","Wed Jul 27 2022 22:48:44 GMT-0500 (Central Daylight Time)","703930","Untrustworthy,Trustworthy","","1185","","","","decision","","<div class='trialDiv'><img src='trustrating_stim/white_mw056.bmp'><br><font class='baseline'><strong>Ryan</strong><p>Choose number of points to send.</font><div class='respPicDiv'><img src='img/responseButtonOffersNo0L.png' class='respPic'></div></div>","1","10","Ryan","8","Shared","0.2,0.65","10","0.2","trustrating_stim/white_mw056.bmp","6","157","30"
"html-keyboard-response","216","399361","0.0-10.0-2.29","60ef02ab65677c7c8803c120","bdp_trlrn","Wed Jul 27 2022 22:48:44 GMT-0500 (Central Daylight Time)","703930","Untrustworthy,Trustworthy","","null","","","","decisionFB","","<div class='trialDiv'><img src='trustrating_stim/white_mw056.bmp'><br><font class='baseline'><strong>Ryan</strong><p>Choose number of points to send.</font><div class='respPicDiv'><img src='img/responseButtonOffersNo0L1.png' class='respPic'></div></div>","null","10","Ryan","8","Shared","0.2,0.65","10","0.2","trustrating_stim/white_mw056.bmp","6","156","30"
"html-keyboard-response","217","400363","0.0-10.0-3.29","60ef02ab65677c7c8803c120","bdp_trlrn","Wed Jul 27 2022 22:48:44 GMT-0500 (Central Daylight Time)","703930","Untrustworthy,Trustworthy","","null","","","","feedback","","<div class='trialDiv'><img src='trustrating_stim/white_mw056.bmp'><br><font class='baseline'><strong>Ryan</strong><p>Received: <strong>4</strong></font> &nbsp; &nbsp; &nbsp; &nbsp; &nbsp; &nbsp;<font class='posOutcome'>Shared back: <strong>2</strong></font></font><div class='respPicDiv'><img src='img/responseButtonOffersNo0_wht.png' class='respPic'></div></div>","null","10","Ryan","8","Shared","0.2,0.65","10","0.2","trustrating_stim/white_mw056.bmp","6","158","30"
"html-keyboard-response","218","401452","0.0-10.0-1.30","60ef02ab65677c7c8803c120","bdp_trlrn","Wed Jul 27 2022 22:48:44 GMT-0500 (Central Daylight Time)","703930","Untrustworthy,Trustworthy","","1089","","","","decision","","<div class='trialDiv'><img src='trustrating_stim/white_mw071.bmp'><br><font class='baseline'><strong>Jordan</strong><p>Choose number of points to send.</font><div class='respPicDiv'><img src='img/responseButtonOffersNo0L.png' class='respPic'></div></div>","1","11","Jordan","3","Kept","0.8,0.2","10","0.8","trustrating_stim/white_mw071.bmp","1","163","31"
"html-keyboard-response","219","401704","0.0-10.0-2.30","60ef02ab65677c7c8803c120","bdp_trlrn","Wed Jul 27 2022 22:48:44 GMT-0500 (Central Daylight Time)","703930","Untrustworthy,Trustworthy","","null","","","","decisionFB","","<div class='trialDiv'><img src='trustrating_stim/white_mw071.bmp'><br><font class='baseline'><strong>Jordan</strong><p>Choose number of points to send.</font><div class='respPicDiv'><img src='img/responseButtonOffersNo0L1.png' class='respPic'></div></div>","null","11","Jordan","3","Kept","0.8,0.2","10","0.8","trustrating_stim/white_mw071.bmp","1","162","31"
"html-keyboard-response","220","402705","0.0-10.0-3.30","60ef02ab65677c7c8803c120","bdp_trlrn","Wed Jul 27 2022 22:48:44 GMT-0500 (Central Daylight Time)","703930","Untrustworthy,Trustworthy","","null","","","","feedback","","<div class='trialDiv'><img src='trustrating_stim/white_mw071.bmp'><br><font class='baseline'><strong>Jordan</strong><p>Received: <strong>4</strong></font> &nbsp; &nbsp; &nbsp; &nbsp; &nbsp; &nbsp;<font class='negOutcome'>Shared back: <strong>0</strong></font></font><div class='respPicDiv'><img src='img/responseButtonOffersNo0_wht.png' class='respPic'></div></div>","null","11","Jordan","3","Kept","0.8,0.2","10","0.8","trustrating_stim/white_mw071.bmp","1","162","31"
"html-keyboard-response","221","406300","0.0-10.0-1.31","60ef02ab65677c7c8803c120","bdp_trlrn","Wed Jul 27 2022 22:48:44 GMT-0500 (Central Daylight Time)","703930","Untrustworthy,Trustworthy","","3594","","","","decision","","<div class='trialDiv'><img src='trustrating_stim/white_mw056.bmp'><br><font class='baseline'><strong>Ryan</strong><p>Choose number of points to send.</font><div class='respPicDiv'><img src='img/responseButtonOffersNo0L.png' class='respPic'></div></div>","2","11","Ryan","8","Shared","0.2,0.65","10","0.2","trustrating_stim/white_mw056.bmp","6","167","32"
"html-keyboard-response","222","406566","0.0-10.0-2.31","60ef02ab65677c7c8803c120","bdp_trlrn","Wed Jul 27 2022 22:48:44 GMT-0500 (Central Daylight Time)","703930","Untrustworthy,Trustworthy","","null","","","","decisionFB","","<div class='trialDiv'><img src='trustrating_stim/white_mw056.bmp'><br><font class='baseline'><strong>Ryan</strong><p>Choose number of points to send.</font><div class='respPicDiv'><img src='img/responseButtonOffersNo0L2.png' class='respPic'></div></div>","null","11","Ryan","8","Shared","0.2,0.65","10","0.2","trustrating_stim/white_mw056.bmp","6","165","32"
"html-keyboard-response","223","407568","0.0-10.0-3.31","60ef02ab65677c7c8803c120","bdp_trlrn","Wed Jul 27 2022 22:48:44 GMT-0500 (Central Daylight Time)","703930","Untrustworthy,Trustworthy","","null","","","","feedback","","<div class='trialDiv'><img src='trustrating_stim/white_mw056.bmp'><br><font class='baseline'><strong>Ryan</strong><p>Received: <strong>8</strong></font> &nbsp; &nbsp; &nbsp; &nbsp; &nbsp; &nbsp;<font class='posOutcome'>Shared back: <strong>4</strong></font></font><div class='respPicDiv'><img src='img/responseButtonOffersNo0_wht.png' class='respPic'></div></div>","null","11","Ryan","8","Shared","0.2,0.65","10","0.2","trustrating_stim/white_mw056.bmp","6","169","32"
