"trial_type","trial_index","time_elapsed","internal_node_id","subject_id","task","startTime","totalTime","labels","view_history","rt","event","trial","time","trialtype","success","stimulus","key_press","aground","name","faceID","outcome","agenttype","agentswpt","agentcurrpshare","face","avgRating","point_total","round"
"pavlovia","0","5","0.0-0.0","5c3161130cfe9a00012f71ff","bdp_trlrn","Sun Mar 12 2023 16:25:59 GMT-0400 (Eastern Daylight Time)","629672","Trustworthy,Untrustworthy","","","","","","","","","","","","","","","","","","","",""
"instructions","1","5158","0.0-1.0","5c3161130cfe9a00012f71ff","bdp_trlrn","Sun Mar 12 2023 16:25:59 GMT-0400 (Eastern Daylight Time)","629672","Trustworthy,Untrustworthy","[{""page_index"":0,""viewing_time"":5152}]","5152","","","","","","","","","","","","","","","","","",""
"","","","","5c3161130cfe9a00012f71ff","bdp_trlrn","Sun Mar 12 2023 16:25:59 GMT-0400 (Eastern Daylight Time)","629672","Trustworthy,Untrustworthy","","","fullscreenenter","2","10021","fullscreenenter","","","","","","","","","","","","","",""
"fullscreen","2","10991","0.0-2.0","5c3161130cfe9a00012f71ff","bdp_trlrn","Sun Mar 12 2023 16:25:59 GMT-0400 (Eastern Daylight Time)","629672","Trustworthy,Untrustworthy","","","","","","","true","","","","","","","","","","","","",""
"instructions","3","51941","0.0-4.0","5c3161130cfe9a00012f71ff","bdp_trlrn","Sun Mar 12 2023 16:25:59 GMT-0400 (Eastern Daylight Time)","629672","Trustworthy,Untrustworthy","[{""page_index"":0,""viewing_time"":32713},{""page_index"":1,""viewing_time"":8235}]","40948","","","","","","","","","","","","","","","","","",""
"instructions","4","52796","0.0-5.0","5c3161130cfe9a00012f71ff","bdp_trlrn","Sun Mar 12 2023 16:25:59 GMT-0400 (Eastern Daylight Time)","629672","Trustworthy,Untrustworthy","[{""page_index"":0,""viewing_time"":854}]","854","","","","","","","","","","","","","","","","","",""
"image-keyboard-response","5","55702","0.0-6.0-1.0","5c3161130cfe9a00012f71ff","bdp_trlrn","Sun Mar 12 2023 16:25:59 GMT-0400 (Eastern Daylight Time)","629672","Trustworthy,Untrustworthy","","2803","","","","rating","","trustrating_stim/white_mw097.bmp","3","","","","","","","","","","",""
"image-keyboard-response","6","55905","0.0-6.0-2.0","5c3161130cfe9a00012f71ff","bdp_trlrn","Sun Mar 12 2023 16:25:59 GMT-0400 (Eastern Daylight Time)","629672","Trustworthy,Untrustworthy","","null","","","","ratingFB","","trustrating_stim/white_mw097.bmp","null","","","","","","","","","","",""
"image-keyboard-response","7","58968","0.0-6.0-1.1","5c3161130cfe9a00012f71ff","bdp_trlrn","Sun Mar 12 2023 16:25:59 GMT-0400 (Eastern Daylight Time)","629672","Trustworthy,Untrustworthy","","2960","","","","rating","","trustrating_stim/white_mw033.bmp","6","","","","","","","","","","",""
"image-keyboard-response","8","59171","0.0-6.0-2.1","5c3161130cfe9a00012f71ff","bdp_trlrn","Sun Mar 12 2023 16:25:59 GMT-0400 (Eastern Daylight Time)","629672","Trustworthy,Untrustworthy","","null","","","","ratingFB","","trustrating_stim/white_mw033.bmp","null","","","","","","","","","","",""
"image-keyboard-response","9","60604","0.0-6.0-1.2","5c3161130cfe9a00012f71ff","bdp_trlrn","Sun Mar 12 2023 16:25:59 GMT-0400 (Eastern Daylight Time)","629672","Trustworthy,Untrustworthy","","1331","","","","rating","","trustrating_stim/white_00299_940422_fa_edt.bmp","7","","","","","","","","","","",""
"image-keyboard-response","10","60806","0.0-6.0-2.2","5c3161130cfe9a00012f71ff","bdp_trlrn","Sun Mar 12 2023 16:25:59 GMT-0400 (Eastern Daylight Time)","629672","Trustworthy,Untrustworthy","","null","","","","ratingFB","","trustrating_stim/white_00299_940422_fa_edt.bmp","null","","","","","","","","","","",""
"image-keyboard-response","11","62035","0.0-6.0-1.3","5c3161130cfe9a00012f71ff","bdp_trlrn","Sun Mar 12 2023 16:25:59 GMT-0400 (Eastern Daylight Time)","629672","Trustworthy,Untrustworthy","","1127","","","","rating","","trustrating_stim/white_mw099.bmp","3","","","","","","","","","","",""
"image-keyboard-response","12","62237","0.0-6.0-2.3","5c3161130cfe9a00012f71ff","bdp_trlrn","Sun Mar 12 2023 16:25:59 GMT-0400 (Eastern Daylight Time)","629672","Trustworthy,Untrustworthy","","null","","","","ratingFB","","trustrating_stim/white_mw099.bmp","null","","","","","","","","","","",""
"image-keyboard-response","13","63702","0.0-6.0-1.4","5c3161130cfe9a00012f71ff","bdp_trlrn","Sun Mar 12 2023 16:25:59 GMT-0400 (Eastern Daylight Time)","629672","Trustworthy,Untrustworthy","","1361","","","","rating","","trustrating_stim/white_mw056.bmp","2","","","","","","","","","","",""
"image-keyboard-response","14","63904","0.0-6.0-2.4","5c3161130cfe9a00012f71ff","bdp_trlrn","Sun Mar 12 2023 16:25:59 GMT-0400 (Eastern Daylight Time)","629672","Trustworthy,Untrustworthy","","null","","","","ratingFB","","trustrating_stim/white_mw056.bmp","null","","","","","","","","","","",""
"image-keyboard-response","15","65153","0.0-6.0-1.5","5c3161130cfe9a00012f71ff","bdp_trlrn","Sun Mar 12 2023 16:25:59 GMT-0400 (Eastern Daylight Time)","629672","Trustworthy,Untrustworthy","","1146","","","","rating","","trustrating_stim/white_00519_940519_fb_edt.bmp","1","","","","","","","","","","",""
"image-keyboard-response","16","65354","0.0-6.0-2.5","5c3161130cfe9a00012f71ff","bdp_trlrn","Sun Mar 12 2023 16:25:59 GMT-0400 (Eastern Daylight Time)","629672","Trustworthy,Untrustworthy","","null","","","","ratingFB","","trustrating_stim/white_00519_940519_fb_edt.bmp","null","","","","","","","","","","",""
"image-keyboard-response","17","66671","0.0-6.0-1.6","5c3161130cfe9a00012f71ff","bdp_trlrn","Sun Mar 12 2023 16:25:59 GMT-0400 (Eastern Daylight Time)","629672","Trustworthy,Untrustworthy","","1214","","","","rating","","trustrating_stim/white_00109_931230_fa_edt.bmp","4","","","","","","","","","","",""
"image-keyboard-response","18","66873","0.0-6.0-2.6","5c3161130cfe9a00012f71ff","bdp_trlrn","Sun Mar 12 2023 16:25:59 GMT-0400 (Eastern Daylight Time)","629672","Trustworthy,Untrustworthy","","null","","","","ratingFB","","trustrating_stim/white_00109_931230_fa_edt.bmp","null","","","","","","","","","","",""
"image-keyboard-response","19","68394","0.0-6.0-1.7","5c3161130cfe9a00012f71ff","bdp_trlrn","Sun Mar 12 2023 16:25:59 GMT-0400 (Eastern Daylight Time)","629672","Trustworthy,Untrustworthy","","1418","","","","rating","","trustrating_stim/white_mw049.bmp","3","","","","","","","","","","",""
"image-keyboard-response","20","68596","0.0-6.0-2.7","5c3161130cfe9a00012f71ff","bdp_trlrn","Sun Mar 12 2023 16:25:59 GMT-0400 (Eastern Daylight Time)","629672","Trustworthy,Untrustworthy","","null","","","","ratingFB","","trustrating_stim/white_mw049.bmp","null","","","","","","","","","","",""
"image-keyboard-response","21","69555","0.0-6.0-1.8","5c3161130cfe9a00012f71ff","bdp_trlrn","Sun Mar 12 2023 16:25:59 GMT-0400 (Eastern Daylight Time)","629672","Trustworthy,Untrustworthy","","857","","","","rating","","trustrating_stim/white_00785_941205_fb_edt.bmp","6","","","","","","","","","","",""
"image-keyboard-response","22","69757","0.0-6.0-2.8","5c3161130cfe9a00012f71ff","bdp_trlrn","Sun Mar 12 2023 16:25:59 GMT-0400 (Eastern Daylight Time)","629672","Trustworthy,Untrustworthy","","null","","","","ratingFB","","trustrating_stim/white_00785_941205_fb_edt.bmp","null","","","","","","","","","","",""
"image-keyboard-response","23","71083","0.0-6.0-1.9","5c3161130cfe9a00012f71ff","bdp_trlrn","Sun Mar 12 2023 16:25:59 GMT-0400 (Eastern Daylight Time)","629672","Trustworthy,Untrustworthy","","1223","","","","rating","","trustrating_stim/white_00129_931230_fb_edt.bmp","7","","","","","","","","","","",""
"image-keyboard-response","24","71285","0.0-6.0-2.9","5c3161130cfe9a00012f71ff","bdp_trlrn","Sun Mar 12 2023 16:25:59 GMT-0400 (Eastern Daylight Time)","629672","Trustworthy,Untrustworthy","","null","","","","ratingFB","","trustrating_stim/white_00129_931230_fb_edt.bmp","null","","","","","","","","","","",""
"image-keyboard-response","25","73119","0.0-6.0-1.10","5c3161130cfe9a00012f71ff","bdp_trlrn","Sun Mar 12 2023 16:25:59 GMT-0400 (Eastern Daylight Time)","629672","Trustworthy,Untrustworthy","","1732","","","","rating","","trustrating_stim/white_mw053.bmp","6","","","","","","","","","","",""
"image-keyboard-response","26","73321","0.0-6.0-2.10","5c3161130cfe9a00012f71ff","bdp_trlrn","Sun Mar 12 2023 16:25:59 GMT-0400 (Eastern Daylight Time)","629672","Trustworthy,Untrustworthy","","null","","","","ratingFB","","trustrating_stim/white_mw053.bmp","null","","","","","","","","","","",""
"image-keyboard-response","27","74960","0.0-6.0-1.11","5c3161130cfe9a00012f71ff","bdp_trlrn","Sun Mar 12 2023 16:25:59 GMT-0400 (Eastern Daylight Time)","629672","Trustworthy,Untrustworthy","","1536","","","","rating","","trustrating_stim/white_00577_940928_fa_edt.bmp","4","","","","","","","","","","",""
"image-keyboard-response","28","75162","0.0-6.0-2.11","5c3161130cfe9a00012f71ff","bdp_trlrn","Sun Mar 12 2023 16:25:59 GMT-0400 (Eastern Daylight Time)","629672","Trustworthy,Untrustworthy","","null","","","","ratingFB","","trustrating_stim/white_00577_940928_fa_edt.bmp","null","","","","","","","","","","",""
"image-keyboard-response","29","76374","0.0-6.0-1.12","5c3161130cfe9a00012f71ff","bdp_trlrn","Sun Mar 12 2023 16:25:59 GMT-0400 (Eastern Daylight Time)","629672","Trustworthy,Untrustworthy","","1108","","","","rating","","trustrating_stim/white_mw048.bmp","3","","","","","","","","","","",""
"image-keyboard-response","30","76576","0.0-6.0-2.12","5c3161130cfe9a00012f71ff","bdp_trlrn","Sun Mar 12 2023 16:25:59 GMT-0400 (Eastern Daylight Time)","629672","Trustworthy,Untrustworthy","","null","","","","ratingFB","","trustrating_stim/white_mw048.bmp","null","","","","","","","","","","",""
"image-keyboard-response","31","78134","0.0-6.0-1.13","5c3161130cfe9a00012f71ff","bdp_trlrn","Sun Mar 12 2023 16:25:59 GMT-0400 (Eastern Daylight Time)","629672","Trustworthy,Untrustworthy","","1455","","","","rating","","trustrating_stim/white_mw063.bmp","4","","","","","","","","","","",""
"image-keyboard-response","32","78335","0.0-6.0-2.13","5c3161130cfe9a00012f71ff","bdp_trlrn","Sun Mar 12 2023 16:25:59 GMT-0400 (Eastern Daylight Time)","629672","Trustworthy,Untrustworthy","","null","","","","ratingFB","","trustrating_stim/white_mw063.bmp","null","","","","","","","","","","",""
"image-keyboard-response","33","79560","0.0-6.0-1.14","5c3161130cfe9a00012f71ff","bdp_trlrn","Sun Mar 12 2023 16:25:59 GMT-0400 (Eastern Daylight Time)","629672","Trustworthy,Untrustworthy","","1122","","","","rating","","trustrating_stim/white_mw066.bmp","5","","","","","","","","","","",""
"image-keyboard-response","34","79762","0.0-6.0-2.14","5c3161130cfe9a00012f71ff","bdp_trlrn","Sun Mar 12 2023 16:25:59 GMT-0400 (Eastern Daylight Time)","629672","Trustworthy,Untrustworthy","","null","","","","ratingFB","","trustrating_stim/white_mw066.bmp","null","","","","","","","","","","",""
"image-keyboard-response","35","80538","0.0-6.0-1.15","5c3161130cfe9a00012f71ff","bdp_trlrn","Sun Mar 12 2023 16:25:59 GMT-0400 (Eastern Daylight Time)","629672","Trustworthy,Untrustworthy","","674","","","","rating","","trustrating_stim/white_mw071.bmp","6","","","","","","","","","","",""
"image-keyboard-response","36","80740","0.0-6.0-2.15","5c3161130cfe9a00012f71ff","bdp_trlrn","Sun Mar 12 2023 16:25:59 GMT-0400 (Eastern Daylight Time)","629672","Trustworthy,Untrustworthy","","null","","","","ratingFB","","trustrating_stim/white_mw071.bmp","null","","","","","","","","","","",""
"image-keyboard-response","37","82472","0.0-6.0-1.16","5c3161130cfe9a00012f71ff","bdp_trlrn","Sun Mar 12 2023 16:25:59 GMT-0400 (Eastern Daylight Time)","629672","Trustworthy,Untrustworthy","","1629","","","","rating","","trustrating_stim/white_00223_940128_fb_edt.bmp","3","","","","","","","","","","",""
"image-keyboard-response","38","82678","0.0-6.0-2.16","5c3161130cfe9a00012f71ff","bdp_trlrn","Sun Mar 12 2023 16:25:59 GMT-0400 (Eastern Daylight Time)","629672","Trustworthy,Untrustworthy","","null","","","","ratingFB","","trustrating_stim/white_00223_940128_fb_edt.bmp","null","","","","","","","","","","",""
"image-keyboard-response","39","83453","0.0-6.0-1.17","5c3161130cfe9a00012f71ff","bdp_trlrn","Sun Mar 12 2023 16:25:59 GMT-0400 (Eastern Daylight Time)","629672","Trustworthy,Untrustworthy","","672","","","","rating","","trustrating_stim/white_mw060.bmp","4","","","","","","","","","","",""
"image-keyboard-response","40","83655","0.0-6.0-2.17","5c3161130cfe9a00012f71ff","bdp_trlrn","Sun Mar 12 2023 16:25:59 GMT-0400 (Eastern Daylight Time)","629672","Trustworthy,Untrustworthy","","null","","","","ratingFB","","trustrating_stim/white_mw060.bmp","null","","","","","","","","","","",""
"image-keyboard-response","41","84558","0.0-6.0-1.18","5c3161130cfe9a00012f71ff","bdp_trlrn","Sun Mar 12 2023 16:25:59 GMT-0400 (Eastern Daylight Time)","629672","Trustworthy,Untrustworthy","","800","","","","rating","","trustrating_stim/white_mw035.bmp","1","","","","","","","","","","",""
"image-keyboard-response","42","84759","0.0-6.0-2.18","5c3161130cfe9a00012f71ff","bdp_trlrn","Sun Mar 12 2023 16:25:59 GMT-0400 (Eastern Daylight Time)","629672","Trustworthy,Untrustworthy","","null","","","","ratingFB","","trustrating_stim/white_mw035.bmp","null","","","","","","","","","","",""
"image-keyboard-response","43","86401","0.0-6.0-1.19","5c3161130cfe9a00012f71ff","bdp_trlrn","Sun Mar 12 2023 16:25:59 GMT-0400 (Eastern Daylight Time)","629672","Trustworthy,Untrustworthy","","1539","","","","rating","","trustrating_stim/white_mw089.bmp","6","","","","","","","","","","",""
"image-keyboard-response","44","86603","0.0-6.0-2.19","5c3161130cfe9a00012f71ff","bdp_trlrn","Sun Mar 12 2023 16:25:59 GMT-0400 (Eastern Daylight Time)","629672","Trustworthy,Untrustworthy","","null","","","","ratingFB","","trustrating_stim/white_mw089.bmp","null","","","","","","","","","","",""
"image-keyboard-response","45","87758","0.0-6.0-1.20","5c3161130cfe9a00012f71ff","bdp_trlrn","Sun Mar 12 2023 16:25:59 GMT-0400 (Eastern Daylight Time)","629672","Trustworthy,Untrustworthy","","1052","","","","rating","","trustrating_stim/white_00757_941201_fa_edt.bmp","7","","","","","","","","","","",""
"image-keyboard-response","46","87961","0.0-6.0-2.20","5c3161130cfe9a00012f71ff","bdp_trlrn","Sun Mar 12 2023 16:25:59 GMT-0400 (Eastern Daylight Time)","629672","Trustworthy,Untrustworthy","","null","","","","ratingFB","","trustrating_stim/white_00757_941201_fa_edt.bmp","null","","","","","","","","","","",""
"image-keyboard-response","47","89540","0.0-6.0-1.21","5c3161130cfe9a00012f71ff","bdp_trlrn","Sun Mar 12 2023 16:25:59 GMT-0400 (Eastern Daylight Time)","629672","Trustworthy,Untrustworthy","","1475","","","","rating","","trustrating_stim/white_00340_940422_fa_edt.bmp","6","","","","","","","","","","",""
"image-keyboard-response","48","89742","0.0-6.0-2.21","5c3161130cfe9a00012f71ff","bdp_trlrn","Sun Mar 12 2023 16:25:59 GMT-0400 (Eastern Daylight Time)","629672","Trustworthy,Untrustworthy","","null","","","","ratingFB","","trustrating_stim/white_00340_940422_fa_edt.bmp","null","","","","","","","","","","",""
"image-keyboard-response","49","91460","0.0-6.0-1.22","5c3161130cfe9a00012f71ff","bdp_trlrn","Sun Mar 12 2023 16:25:59 GMT-0400 (Eastern Daylight Time)","629672","Trustworthy,Untrustworthy","","1615","","","","rating","","trustrating_stim/white_mw084.bmp","3","","","","","","","","","","",""
"image-keyboard-response","50","91662","0.0-6.0-2.22","5c3161130cfe9a00012f71ff","bdp_trlrn","Sun Mar 12 2023 16:25:59 GMT-0400 (Eastern Daylight Time)","629672","Trustworthy,Untrustworthy","","null","","","","ratingFB","","trustrating_stim/white_mw084.bmp","null","","","","","","","","","","",""
"image-keyboard-response","51","93052","0.0-6.0-1.23","5c3161130cfe9a00012f71ff","bdp_trlrn","Sun Mar 12 2023 16:25:59 GMT-0400 (Eastern Daylight Time)","629672","Trustworthy,Untrustworthy","","1287","","","","rating","","trustrating_stim/white_mw046.bmp","6","","","","","","","","","","",""
"image-keyboard-response","52","93254","0.0-6.0-2.23","5c3161130cfe9a00012f71ff","bdp_trlrn","Sun Mar 12 2023 16:25:59 GMT-0400 (Eastern Daylight Time)","629672","Trustworthy,Untrustworthy","","null","","","","ratingFB","","trustrating_stim/white_mw046.bmp","null","","","","","","","","","","",""
"image-keyboard-response","53","94052","0.0-6.0-1.24","5c3161130cfe9a00012f71ff","bdp_trlrn","Sun Mar 12 2023 16:25:59 GMT-0400 (Eastern Daylight Time)","629672","Trustworthy,Untrustworthy","","694","","","","rating","","trustrating_stim/white_00659_941121_fa_edt.bmp","3","","","","","","","","","","",""
"image-keyboard-response","54","94253","0.0-6.0-2.24","5c3161130cfe9a00012f71ff","bdp_trlrn","Sun Mar 12 2023 16:25:59 GMT-0400 (Eastern Daylight Time)","629672","Trustworthy,Untrustworthy","","null","","","","ratingFB","","trustrating_stim/white_00659_941121_fa_edt.bmp","null","","","","","","","","","","",""
"image-keyboard-response","55","96135","0.0-6.0-1.25","5c3161130cfe9a00012f71ff","bdp_trlrn","Sun Mar 12 2023 16:25:59 GMT-0400 (Eastern Daylight Time)","629672","Trustworthy,Untrustworthy","","1779","","","","rating","","trustrating_stim/white_00807_941205_fb_edt.bmp","3","","","","","","","","","","",""
"image-keyboard-response","56","96336","0.0-6.0-2.25","5c3161130cfe9a00012f71ff","bdp_trlrn","Sun Mar 12 2023 16:25:59 GMT-0400 (Eastern Daylight Time)","629672","Trustworthy,Untrustworthy","","null","","","","ratingFB","","trustrating_stim/white_00807_941205_fb_edt.bmp","null","","","","","","","","","","",""
"image-keyboard-response","57","97403","0.0-6.0-1.26","5c3161130cfe9a00012f71ff","bdp_trlrn","Sun Mar 12 2023 16:25:59 GMT-0400 (Eastern Daylight Time)","629672","Trustworthy,Untrustworthy","","963","","","","rating","","trustrating_stim/white_00602_940928_fb_edt.bmp","7","","","","","","","","","","",""
"image-keyboard-response","58","97606","0.0-6.0-2.26","5c3161130cfe9a00012f71ff","bdp_trlrn","Sun Mar 12 2023 16:25:59 GMT-0400 (Eastern Daylight Time)","629672","Trustworthy,Untrustworthy","","null","","","","ratingFB","","trustrating_stim/white_00602_940928_fb_edt.bmp","null","","","","","","","","","","",""
"image-keyboard-response","59","99331","0.0-6.0-1.27","5c3161130cfe9a00012f71ff","bdp_trlrn","Sun Mar 12 2023 16:25:59 GMT-0400 (Eastern Daylight Time)","629672","Trustworthy,Untrustworthy","","1620","","","","rating","","trustrating_stim/white_00898_960530_fa_edt.bmp","8","","","","","","","","","","",""
"image-keyboard-response","60","99533","0.0-6.0-2.27","5c3161130cfe9a00012f71ff","bdp_trlrn","Sun Mar 12 2023 16:25:59 GMT-0400 (Eastern Daylight Time)","629672","Trustworthy,Untrustworthy","","null","","","","ratingFB","","trustrating_stim/white_00898_960530_fa_edt.bmp","null","","","","","","","","","","",""
"image-keyboard-response","61","100958","0.0-6.0-1.28","5c3161130cfe9a00012f71ff","bdp_trlrn","Sun Mar 12 2023 16:25:59 GMT-0400 (Eastern Daylight Time)","629672","Trustworthy,Untrustworthy","","1321","","","","rating","","trustrating_stim/white_00761_941201_fb_edt.bmp","9","","","","","","","","","","",""
"image-keyboard-response","62","101160","0.0-6.0-2.28","5c3161130cfe9a00012f71ff","bdp_trlrn","Sun Mar 12 2023 16:25:59 GMT-0400 (Eastern Daylight Time)","629672","Trustworthy,Untrustworthy","","null","","","","ratingFB","","trustrating_stim/white_00761_941201_fb_edt.bmp","null","","","","","","","","","","",""
"image-keyboard-response","63","102692","0.0-6.0-1.29","5c3161130cfe9a00012f71ff","bdp_trlrn","Sun Mar 12 2023 16:25:59 GMT-0400 (Eastern Daylight Time)","629672","Trustworthy,Untrustworthy","","1429","","","","rating","","trustrating_stim/white_00120_931230_fa_edt.bmp","6","","","","","","","","","","",""
"image-keyboard-response","64","102894","0.0-6.0-2.29","5c3161130cfe9a00012f71ff","bdp_trlrn","Sun Mar 12 2023 16:25:59 GMT-0400 (Eastern Daylight Time)","629672","Trustworthy,Untrustworthy","","null","","","","ratingFB","","trustrating_stim/white_00120_931230_fa_edt.bmp","null","","","","","","","","","","",""
"image-keyboard-response","65","103983","0.0-6.0-1.30","5c3161130cfe9a00012f71ff","bdp_trlrn","Sun Mar 12 2023 16:25:59 GMT-0400 (Eastern Daylight Time)","629672","Trustworthy,Untrustworthy","","985","","","","rating","","trustrating_stim/white_00129_931230_fb_edt.bmp","5","","","","","","","","","","",""
"image-keyboard-response","66","104185","0.0-6.0-2.30","5c3161130cfe9a00012f71ff","bdp_trlrn","Sun Mar 12 2023 16:25:59 GMT-0400 (Eastern Daylight Time)","629672","Trustworthy,Untrustworthy","","null","","","","ratingFB","","trustrating_stim/white_00129_931230_fb_edt.bmp","null","","","","","","","","","","",""
"image-keyboard-response","67","104917","0.0-6.0-1.31","5c3161130cfe9a00012f71ff","bdp_trlrn","Sun Mar 12 2023 16:25:59 GMT-0400 (Eastern Daylight Time)","629672","Trustworthy,Untrustworthy","","629","","","","rating","","trustrating_stim/white_00757_941201_fa_edt.bmp","3","","","","","","","","","","",""
"image-keyboard-response","68","105118","0.0-6.0-2.31","5c3161130cfe9a00012f71ff","bdp_trlrn","Sun Mar 12 2023 16:25:59 GMT-0400 (Eastern Daylight Time)","629672","Trustworthy,Untrustworthy","","null","","","","ratingFB","","trustrating_stim/white_00757_941201_fa_edt.bmp","null","","","","","","","","","","",""
"image-keyboard-response","69","105852","0.0-6.0-1.32","5c3161130cfe9a00012f71ff","bdp_trlrn","Sun Mar 12 2023 16:25:59 GMT-0400 (Eastern Daylight Time)","629672","Trustworthy,Untrustworthy","","631","","","","rating","","trustrating_stim/white_00602_940928_fb_edt.bmp","7","","","","","","","","","","",""
"image-keyboard-response","70","106054","0.0-6.0-2.32","5c3161130cfe9a00012f71ff","bdp_trlrn","Sun Mar 12 2023 16:25:59 GMT-0400 (Eastern Daylight Time)","629672","Trustworthy,Untrustworthy","","null","","","","ratingFB","","trustrating_stim/white_00602_940928_fb_edt.bmp","null","","","","","","","","","","",""
"image-keyboard-response","71","107062","0.0-6.0-1.33","5c3161130cfe9a00012f71ff","bdp_trlrn","Sun Mar 12 2023 16:25:59 GMT-0400 (Eastern Daylight Time)","629672","Trustworthy,Untrustworthy","","904","","","","rating","","trustrating_stim/white_mw035.bmp","5","","","","","","","","","","",""
"image-keyboard-response","72","107265","0.0-6.0-2.33","5c3161130cfe9a00012f71ff","bdp_trlrn","Sun Mar 12 2023 16:25:59 GMT-0400 (Eastern Daylight Time)","629672","Trustworthy,Untrustworthy","","null","","","","ratingFB","","trustrating_stim/white_mw035.bmp","null","","","","","","","","","","",""
"image-keyboard-response","73","108079","0.0-6.0-1.34","5c3161130cfe9a00012f71ff","bdp_trlrn","Sun Mar 12 2023 16:25:59 GMT-0400 (Eastern Daylight Time)","629672","Trustworthy,Untrustworthy","","707","","","","rating","","trustrating_stim/white_mw049.bmp","4","","","","","","","","","","",""
"image-keyboard-response","74","108282","0.0-6.0-2.34","5c3161130cfe9a00012f71ff","bdp_trlrn","Sun Mar 12 2023 16:25:59 GMT-0400 (Eastern Daylight Time)","629672","Trustworthy,Untrustworthy","","null","","","","ratingFB","","trustrating_stim/white_mw049.bmp","null","","","","","","","","","","",""
"image-keyboard-response","75","109292","0.0-6.0-1.35","5c3161130cfe9a00012f71ff","bdp_trlrn","Sun Mar 12 2023 16:25:59 GMT-0400 (Eastern Daylight Time)","629672","Trustworthy,Untrustworthy","","907","","","","rating","","trustrating_stim/white_00577_940928_fa_edt.bmp","7","","","","","","","","","","",""
"image-keyboard-response","76","109495","0.0-6.0-2.35","5c3161130cfe9a00012f71ff","bdp_trlrn","Sun Mar 12 2023 16:25:59 GMT-0400 (Eastern Daylight Time)","629672","Trustworthy,Untrustworthy","","null","","","","ratingFB","","trustrating_stim/white_00577_940928_fa_edt.bmp","null","","","","","","","","","","",""
"image-keyboard-response","77","110760","0.0-6.0-1.36","5c3161130cfe9a00012f71ff","bdp_trlrn","Sun Mar 12 2023 16:25:59 GMT-0400 (Eastern Daylight Time)","629672","Trustworthy,Untrustworthy","","1146","","","","rating","","trustrating_stim/white_00223_940128_fb_edt.bmp","8","","","","","","","","","","",""
"image-keyboard-response","78","110962","0.0-6.0-2.36","5c3161130cfe9a00012f71ff","bdp_trlrn","Sun Mar 12 2023 16:25:59 GMT-0400 (Eastern Daylight Time)","629672","Trustworthy,Untrustworthy","","null","","","","ratingFB","","trustrating_stim/white_00223_940128_fb_edt.bmp","null","","","","","","","","","","",""
"image-keyboard-response","79","112782","0.0-6.0-1.37","5c3161130cfe9a00012f71ff","bdp_trlrn","Sun Mar 12 2023 16:25:59 GMT-0400 (Eastern Daylight Time)","629672","Trustworthy,Untrustworthy","","1716","","","","rating","","trustrating_stim/white_00785_941205_fb_edt.bmp","4","","","","","","","","","","",""
"image-keyboard-response","80","112983","0.0-6.0-2.37","5c3161130cfe9a00012f71ff","bdp_trlrn","Sun Mar 12 2023 16:25:59 GMT-0400 (Eastern Daylight Time)","629672","Trustworthy,Untrustworthy","","null","","","","ratingFB","","trustrating_stim/white_00785_941205_fb_edt.bmp","null","","","","","","","","","","",""
"image-keyboard-response","81","114544","0.0-6.0-1.38","5c3161130cfe9a00012f71ff","bdp_trlrn","Sun Mar 12 2023 16:25:59 GMT-0400 (Eastern Daylight Time)","629672","Trustworthy,Untrustworthy","","1449","","","","rating","","trustrating_stim/white_mw048.bmp","3","","","","","","","","","","",""
"image-keyboard-response","82","114746","0.0-6.0-2.38","5c3161130cfe9a00012f71ff","bdp_trlrn","Sun Mar 12 2023 16:25:59 GMT-0400 (Eastern Daylight Time)","629672","Trustworthy,Untrustworthy","","null","","","","ratingFB","","trustrating_stim/white_mw048.bmp","null","","","","","","","","","","",""
"image-keyboard-response","83","116129","0.0-6.0-1.39","5c3161130cfe9a00012f71ff","bdp_trlrn","Sun Mar 12 2023 16:25:59 GMT-0400 (Eastern Daylight Time)","629672","Trustworthy,Untrustworthy","","1279","","","","rating","","trustrating_stim/white_mw097.bmp","4","","","","","","","","","","",""
"image-keyboard-response","84","116330","0.0-6.0-2.39","5c3161130cfe9a00012f71ff","bdp_trlrn","Sun Mar 12 2023 16:25:59 GMT-0400 (Eastern Daylight Time)","629672","Trustworthy,Untrustworthy","","null","","","","ratingFB","","trustrating_stim/white_mw097.bmp","null","","","","","","","","","","",""
"image-keyboard-response","85","117502","0.0-6.0-1.40","5c3161130cfe9a00012f71ff","bdp_trlrn","Sun Mar 12 2023 16:25:59 GMT-0400 (Eastern Daylight Time)","629672","Trustworthy,Untrustworthy","","1067","","","","rating","","trustrating_stim/white_mw089.bmp","2","","","","","","","","","","",""
"image-keyboard-response","86","117704","0.0-6.0-2.40","5c3161130cfe9a00012f71ff","bdp_trlrn","Sun Mar 12 2023 16:25:59 GMT-0400 (Eastern Daylight Time)","629672","Trustworthy,Untrustworthy","","null","","","","ratingFB","","trustrating_stim/white_mw089.bmp","null","","","","","","","","","","",""
"image-keyboard-response","87","118649","0.0-6.0-1.41","5c3161130cfe9a00012f71ff","bdp_trlrn","Sun Mar 12 2023 16:25:59 GMT-0400 (Eastern Daylight Time)","629672","Trustworthy,Untrustworthy","","841","","","","rating","","trustrating_stim/white_mw056.bmp","4","","","","","","","","","","",""
"image-keyboard-response","88","118858","0.0-6.0-2.41","5c3161130cfe9a00012f71ff","bdp_trlrn","Sun Mar 12 2023 16:25:59 GMT-0400 (Eastern Daylight Time)","629672","Trustworthy,Untrustworthy","","null","","","","ratingFB","","trustrating_stim/white_mw056.bmp","null","","","","","","","","","","",""
"image-keyboard-response","89","121557","0.0-6.0-1.42","5c3161130cfe9a00012f71ff","bdp_trlrn","Sun Mar 12 2023 16:25:59 GMT-0400 (Eastern Daylight Time)","629672","Trustworthy,Untrustworthy","","2596","","","","rating","","trustrating_stim/white_mw053.bmp","5","","","","","","","","","","",""
"image-keyboard-response","90","121760","0.0-6.0-2.42","5c3161130cfe9a00012f71ff","bdp_trlrn","Sun Mar 12 2023 16:25:59 GMT-0400 (Eastern Daylight Time)","629672","Trustworthy,Untrustworthy","","null","","","","ratingFB","","trustrating_stim/white_mw053.bmp","null","","","","","","","","","","",""
"image-keyboard-response","91","126820","0.0-6.0-1.43","5c3161130cfe9a00012f71ff","bdp_trlrn","Sun Mar 12 2023 16:25:59 GMT-0400 (Eastern Daylight Time)","629672","Trustworthy,Untrustworthy","","4956","","","","rating","","trustrating_stim/white_mw046.bmp","2","","","","","","","","","","",""
"image-keyboard-response","92","127023","0.0-6.0-2.43","5c3161130cfe9a00012f71ff","bdp_trlrn","Sun Mar 12 2023 16:25:59 GMT-0400 (Eastern Daylight Time)","629672","Trustworthy,Untrustworthy","","null","","","","ratingFB","","trustrating_stim/white_mw046.bmp","null","","","","","","","","","","",""
"image-keyboard-response","93","129720","0.0-6.0-1.44","5c3161130cfe9a00012f71ff","bdp_trlrn","Sun Mar 12 2023 16:25:59 GMT-0400 (Eastern Daylight Time)","629672","Trustworthy,Untrustworthy","","2592","","","","rating","","trustrating_stim/white_00519_940519_fb_edt.bmp","5","","","","","","","","","","",""
"image-keyboard-response","94","129923","0.0-6.0-2.44","5c3161130cfe9a00012f71ff","bdp_trlrn","Sun Mar 12 2023 16:25:59 GMT-0400 (Eastern Daylight Time)","629672","Trustworthy,Untrustworthy","","null","","","","ratingFB","","trustrating_stim/white_00519_940519_fb_edt.bmp","null","","","","","","","","","","",""
"image-keyboard-response","95","131426","0.0-6.0-1.45","5c3161130cfe9a00012f71ff","bdp_trlrn","Sun Mar 12 2023 16:25:59 GMT-0400 (Eastern Daylight Time)","629672","Trustworthy,Untrustworthy","","1399","","","","rating","","trustrating_stim/white_00299_940422_fa_edt.bmp","7","","","","","","","","","","",""
"image-keyboard-response","96","131628","0.0-6.0-2.45","5c3161130cfe9a00012f71ff","bdp_trlrn","Sun Mar 12 2023 16:25:59 GMT-0400 (Eastern Daylight Time)","629672","Trustworthy,Untrustworthy","","null","","","","ratingFB","","trustrating_stim/white_00299_940422_fa_edt.bmp","null","","","","","","","","","","",""
"image-keyboard-response","97","133287","0.0-6.0-1.46","5c3161130cfe9a00012f71ff","bdp_trlrn","Sun Mar 12 2023 16:25:59 GMT-0400 (Eastern Daylight Time)","629672","Trustworthy,Untrustworthy","","1555","","","","rating","","trustrating_stim/white_00109_931230_fa_edt.bmp","8","","","","","","","","","","",""
"image-keyboard-response","98","133490","0.0-6.0-2.46","5c3161130cfe9a00012f71ff","bdp_trlrn","Sun Mar 12 2023 16:25:59 GMT-0400 (Eastern Daylight Time)","629672","Trustworthy,Untrustworthy","","null","","","","ratingFB","","trustrating_stim/white_00109_931230_fa_edt.bmp","null","","","","","","","","","","",""
"image-keyboard-response","99","136618","0.0-6.0-1.47","5c3161130cfe9a00012f71ff","bdp_trlrn","Sun Mar 12 2023 16:25:59 GMT-0400 (Eastern Daylight Time)","629672","Trustworthy,Untrustworthy","","3025","","","","rating","","trustrating_stim/white_mw060.bmp","7","","","","","","","","","","",""
"image-keyboard-response","100","136820","0.0-6.0-2.47","5c3161130cfe9a00012f71ff","bdp_trlrn","Sun Mar 12 2023 16:25:59 GMT-0400 (Eastern Daylight Time)","629672","Trustworthy,Untrustworthy","","null","","","","ratingFB","","trustrating_stim/white_mw060.bmp","null","","","","","","","","","","",""
"image-keyboard-response","101","154974","0.0-6.0-1.48","5c3161130cfe9a00012f71ff","bdp_trlrn","Sun Mar 12 2023 16:25:59 GMT-0400 (Eastern Daylight Time)","629672","Trustworthy,Untrustworthy","","18049","","","","rating","","trustrating_stim/white_00761_941201_fb_edt.bmp","7","","","","","","","","","","",""
"image-keyboard-response","102","155177","0.0-6.0-2.48","5c3161130cfe9a00012f71ff","bdp_trlrn","Sun Mar 12 2023 16:25:59 GMT-0400 (Eastern Daylight Time)","629672","Trustworthy,Untrustworthy","","null","","","","ratingFB","","trustrating_stim/white_00761_941201_fb_edt.bmp","null","","","","","","","","","","",""
"image-keyboard-response","103","157649","0.0-6.0-1.49","5c3161130cfe9a00012f71ff","bdp_trlrn","Sun Mar 12 2023 16:25:59 GMT-0400 (Eastern Daylight Time)","629672","Trustworthy,Untrustworthy","","2368","","","","rating","","trustrating_stim/white_mw033.bmp","3","","","","","","","","","","",""
"image-keyboard-response","104","157852","0.0-6.0-2.49","5c3161130cfe9a00012f71ff","bdp_trlrn","Sun Mar 12 2023 16:25:59 GMT-0400 (Eastern Daylight Time)","629672","Trustworthy,Untrustworthy","","null","","","","ratingFB","","trustrating_stim/white_mw033.bmp","null","","","","","","","","","","",""
"image-keyboard-response","105","159202","0.0-6.0-1.50","5c3161130cfe9a00012f71ff","bdp_trlrn","Sun Mar 12 2023 16:25:59 GMT-0400 (Eastern Daylight Time)","629672","Trustworthy,Untrustworthy","","1245","","","","rating","","trustrating_stim/white_00120_931230_fa_edt.bmp","7","","","","","","","","","","",""
"image-keyboard-response","106","159403","0.0-6.0-2.50","5c3161130cfe9a00012f71ff","bdp_trlrn","Sun Mar 12 2023 16:25:59 GMT-0400 (Eastern Daylight Time)","629672","Trustworthy,Untrustworthy","","null","","","","ratingFB","","trustrating_stim/white_00120_931230_fa_edt.bmp","null","","","","","","","","","","",""
"image-keyboard-response","107","161261","0.0-6.0-1.51","5c3161130cfe9a00012f71ff","bdp_trlrn","Sun Mar 12 2023 16:25:59 GMT-0400 (Eastern Daylight Time)","629672","Trustworthy,Untrustworthy","","1754","","","","rating","","trustrating_stim/white_mw063.bmp","3","","","","","","","","","","",""
"image-keyboard-response","108","161463","0.0-6.0-2.51","5c3161130cfe9a00012f71ff","bdp_trlrn","Sun Mar 12 2023 16:25:59 GMT-0400 (Eastern Daylight Time)","629672","Trustworthy,Untrustworthy","","null","","","","ratingFB","","trustrating_stim/white_mw063.bmp","null","","","","","","","","","","",""
"image-keyboard-response","109","163066","0.0-6.0-1.52","5c3161130cfe9a00012f71ff","bdp_trlrn","Sun Mar 12 2023 16:25:59 GMT-0400 (Eastern Daylight Time)","629672","Trustworthy,Untrustworthy","","1500","","","","rating","","trustrating_stim/white_00898_960530_fa_edt.bmp","9","","","","","","","","","","",""
"image-keyboard-response","110","163268","0.0-6.0-2.52","5c3161130cfe9a00012f71ff","bdp_trlrn","Sun Mar 12 2023 16:25:59 GMT-0400 (Eastern Daylight Time)","629672","Trustworthy,Untrustworthy","","null","","","","ratingFB","","trustrating_stim/white_00898_960530_fa_edt.bmp","null","","","","","","","","","","",""
"image-keyboard-response","111","165940","0.0-6.0-1.53","5c3161130cfe9a00012f71ff","bdp_trlrn","Sun Mar 12 2023 16:25:59 GMT-0400 (Eastern Daylight Time)","629672","Trustworthy,Untrustworthy","","2567","","","","rating","","trustrating_stim/white_00340_940422_fa_edt.bmp","4","","","","","","","","","","",""
"image-keyboard-response","112","166141","0.0-6.0-2.53","5c3161130cfe9a00012f71ff","bdp_trlrn","Sun Mar 12 2023 16:25:59 GMT-0400 (Eastern Daylight Time)","629672","Trustworthy,Untrustworthy","","null","","","","ratingFB","","trustrating_stim/white_00340_940422_fa_edt.bmp","null","","","","","","","","","","",""
"image-keyboard-response","113","168195","0.0-6.0-1.54","5c3161130cfe9a00012f71ff","bdp_trlrn","Sun Mar 12 2023 16:25:59 GMT-0400 (Eastern Daylight Time)","629672","Trustworthy,Untrustworthy","","1948","","","","rating","","trustrating_stim/white_00807_941205_fb_edt.bmp","1","","","","","","","","","","",""
"image-keyboard-response","114","168396","0.0-6.0-2.54","5c3161130cfe9a00012f71ff","bdp_trlrn","Sun Mar 12 2023 16:25:59 GMT-0400 (Eastern Daylight Time)","629672","Trustworthy,Untrustworthy","","null","","","","ratingFB","","trustrating_stim/white_00807_941205_fb_edt.bmp","null","","","","","","","","","","",""
"image-keyboard-response","115","171125","0.0-6.0-1.55","5c3161130cfe9a00012f71ff","bdp_trlrn","Sun Mar 12 2023 16:25:59 GMT-0400 (Eastern Daylight Time)","629672","Trustworthy,Untrustworthy","","2611","","","","rating","","trustrating_stim/white_mw066.bmp","5","","","","","","","","","","",""
"image-keyboard-response","116","171329","0.0-6.0-2.55","5c3161130cfe9a00012f71ff","bdp_trlrn","Sun Mar 12 2023 16:25:59 GMT-0400 (Eastern Daylight Time)","629672","Trustworthy,Untrustworthy","","null","","","","ratingFB","","trustrating_stim/white_mw066.bmp","null","","","","","","","","","","",""
"image-keyboard-response","117","175067","0.0-6.0-1.56","5c3161130cfe9a00012f71ff","bdp_trlrn","Sun Mar 12 2023 16:25:59 GMT-0400 (Eastern Daylight Time)","629672","Trustworthy,Untrustworthy","","3634","","","","rating","","trustrating_stim/white_mw084.bmp","4","","","","","","","","","","",""
"image-keyboard-response","118","175270","0.0-6.0-2.56","5c3161130cfe9a00012f71ff","bdp_trlrn","Sun Mar 12 2023 16:25:59 GMT-0400 (Eastern Daylight Time)","629672","Trustworthy,Untrustworthy","","null","","","","ratingFB","","trustrating_stim/white_mw084.bmp","null","","","","","","","","","","",""
"image-keyboard-response","119","176883","0.0-6.0-1.57","5c3161130cfe9a00012f71ff","bdp_trlrn","Sun Mar 12 2023 16:25:59 GMT-0400 (Eastern Daylight Time)","629672","Trustworthy,Untrustworthy","","1507","","","","rating","","trustrating_stim/white_mw071.bmp","8","","","","","","","","","","",""
"image-keyboard-response","120","177085","0.0-6.0-2.57","5c3161130cfe9a00012f71ff","bdp_trlrn","Sun Mar 12 2023 16:25:59 GMT-0400 (Eastern Daylight Time)","629672","Trustworthy,Untrustworthy","","null","","","","ratingFB","","trustrating_stim/white_mw071.bmp","null","","","","","","","","","","",""
"image-keyboard-response","121","178588","0.0-6.0-1.58","5c3161130cfe9a00012f71ff","bdp_trlrn","Sun Mar 12 2023 16:25:59 GMT-0400 (Eastern Daylight Time)","629672","Trustworthy,Untrustworthy","","1398","","","","rating","","trustrating_stim/white_00659_941121_fa_edt.bmp","3","","","","","","","","","","",""
"image-keyboard-response","122","178790","0.0-6.0-2.58","5c3161130cfe9a00012f71ff","bdp_trlrn","Sun Mar 12 2023 16:25:59 GMT-0400 (Eastern Daylight Time)","629672","Trustworthy,Untrustworthy","","null","","","","ratingFB","","trustrating_stim/white_00659_941121_fa_edt.bmp","null","","","","","","","","","","",""
"image-keyboard-response","123","184043","0.0-6.0-1.59","5c3161130cfe9a00012f71ff","bdp_trlrn","Sun Mar 12 2023 16:25:59 GMT-0400 (Eastern Daylight Time)","629672","Trustworthy,Untrustworthy","","5150","","","","rating","","trustrating_stim/white_mw099.bmp","2","","","","","","","","","","",""
"image-keyboard-response","124","184247","0.0-6.0-2.59","5c3161130cfe9a00012f71ff","bdp_trlrn","Sun Mar 12 2023 16:25:59 GMT-0400 (Eastern Daylight Time)","629672","Trustworthy,Untrustworthy","","null","","","","ratingFB","","trustrating_stim/white_mw099.bmp","null","","","","","","","","","","",""
"instructions","125","185732","0.0-7.0","5c3161130cfe9a00012f71ff","bdp_trlrn","Sun Mar 12 2023 16:25:59 GMT-0400 (Eastern Daylight Time)","629672","Trustworthy,Untrustworthy","[{""page_index"":0,""viewing_time"":1381}]","1381","","","","","","","","","","","","","","","","","",""
"instructions","126","288111","0.0-8.0","5c3161130cfe9a00012f71ff","bdp_trlrn","Sun Mar 12 2023 16:25:59 GMT-0400 (Eastern Daylight Time)","629672","Trustworthy,Untrustworthy","[{""page_index"":0,""viewing_time"":26731},{""page_index"":1,""viewing_time"":28432},{""page_index"":2,""viewing_time"":4963},{""page_index"":3,""viewing_time"":4875},{""page_index"":4,""viewing_time"":5200},{""page_index"":5,""viewing_time"":6166},{""page_index"":6,""viewing_time"":6719},{""page_index"":7,""viewing_time"":6571},{""page_index"":6,""viewing_time"":2008},{""page_index"":7,""viewing_time"":10612}]","102277","","","","","","","","","","","","","","","","","",""
"html-keyboard-response","127","292946","0.0-9.0","5c3161130cfe9a00012f71ff","bdp_trlrn","Sun Mar 12 2023 16:25:59 GMT-0400 (Eastern Daylight Time)","629672","Trustworthy,Untrustworthy","","4833","","","","","","<div class='header' style='text-align:left; position: absolute; top: 5%; left: 5%;'><small>Task 2 of 5</small></div><div class='instruxDiv'><p><strong>1) What is the minimum number of points you can choose to send to your partner?</strong></p><p>a) 0</p><p>b) 1</p><p>c) 5</p>","A","","","","","","","","","","",""
"html-keyboard-response","128","295740","0.0-10.0","5c3161130cfe9a00012f71ff","bdp_trlrn","Sun Mar 12 2023 16:25:59 GMT-0400 (Eastern Daylight Time)","629672","Trustworthy,Untrustworthy","","2688","","","","","","<div class='header' style='text-align:left; position: absolute; top: 5%; left: 5%;'><small>Task 2 of 5</small></div><div class='instruxDiv'><p><strong>1) What is the minimum number of points you can choose to send to your partner?</strong></p><p style='color:#FF0000'>a) 0</p><p>b) 1</p><p>c) 5</p><h3 style='color:#FF0000'>Incorrect!</h3><h3 class='center-content'>The correct response is b).</h3><h3 class='center-content'>The minimum number of points you can choose to send to your partner is 1 point.</h3><p><em>Press SPACEBAR to continue</em></p></div>"," ","","","","","","","","","","",""
"html-keyboard-response","129","300797","0.0-11.0","5c3161130cfe9a00012f71ff","bdp_trlrn","Sun Mar 12 2023 16:25:59 GMT-0400 (Eastern Daylight Time)","629672","Trustworthy,Untrustworthy","","4957","","","","","","<div class='header' style='text-align:left; position: absolute; top: 5%; left: 5%;'><small>Task 2 of 5</small></div><div class='instruxDiv'><p><strong>2) What is the maximum number of points you can choose to send to your partner?</strong></p><p>a) 8</p><p>b) 5</p><p>c) 3</p>","A","","","","","","","","","","",""
"html-keyboard-response","130","302482","0.0-12.0","5c3161130cfe9a00012f71ff","bdp_trlrn","Sun Mar 12 2023 16:25:59 GMT-0400 (Eastern Daylight Time)","629672","Trustworthy,Untrustworthy","","1583","","","","","","<div class='header' style='text-align:left; position: absolute; top: 5%; left: 5%;'><small>Task 2 of 5</small></div><div class='instruxDiv'><p><strong>2) What is the maximum number of points you can choose to send to your partner?</strong></p><p style='color:#FF0000'>a) 8</p><p>b) 5</p><p>c) 3</p><h3 style='color:#FF0000'>Incorrect!</h3><h3 class='center-content'>The correct response is b).</h3><h3 class='center-content'>The maximum number of points you can choose to send to your partner is 5 points.</h3><p><em>Press SPACEBAR to continue</em></p></div>"," ","","","","","","","","","","",""
"html-keyboard-response","131","305574","0.0-13.0","5c3161130cfe9a00012f71ff","bdp_trlrn","Sun Mar 12 2023 16:25:59 GMT-0400 (Eastern Daylight Time)","629672","Trustworthy,Untrustworthy","","2990","","","","","","<div class='header' style='text-align:left; position: absolute; top: 5%; left: 5%;'><small>Task 2 of 5</small></div><div class='instruxDiv'><p><strong>3) What happens to the amount of points you send to your partner?</strong></p><p>a) Nothing</p><p>b) It doubles</p><p>c) It quadruples</p>","B","","","","","","","","","","",""
"html-keyboard-response","132","309111","0.0-14.0","5c3161130cfe9a00012f71ff","bdp_trlrn","Sun Mar 12 2023 16:25:59 GMT-0400 (Eastern Daylight Time)","629672","Trustworthy,Untrustworthy","","3435","","","","","","<div class='header' style='text-align:left; position: absolute; top: 5%; left: 5%;'><small>Task 2 of 5</small></div><div class='instruxDiv'><p><strong>3) What happens to the amount of points you send to your partner?</strong></p><p>a) Nothing</p><p style='color:#FF0000'>b) It doubles</p><p>c) It quadruples</p><h3 style='color:#FF0000'>Incorrect!</h3><h3 class='center-content'>The correct response is c).</h3><h3 class='center-content'>The amount of points you send to your partner quadruples.</h3><p><em>Press SPACEBAR to continue</em></p></div>"," ","","","","","","","","","","",""
"html-keyboard-response","133","318807","0.0-15.0","5c3161130cfe9a00012f71ff","bdp_trlrn","Sun Mar 12 2023 16:25:59 GMT-0400 (Eastern Daylight Time)","629672","Trustworthy,Untrustworthy","","9593","","","","","","<div class='header' style='text-align:left; position: absolute; top: 5%; left: 5%;'><small>Task 2 of 5</small></div><div class='instruxDiv'><p><strong>4) If you decided to share 4 out of 5 points with your partner, and they decided to share half of the amount they received with you, how many points would you receive back from them on this round?</strong></p><p>a) 16</p><p>b) 0</p><p>c) 8</p>","A","","","","","","","","","","",""
"html-keyboard-response","134","322763","0.0-16.0","5c3161130cfe9a00012f71ff","bdp_trlrn","Sun Mar 12 2023 16:25:59 GMT-0400 (Eastern Daylight Time)","629672","Trustworthy,Untrustworthy","","3853","","","","","","<div class='header' style='text-align:left; position: absolute; top: 5%; left: 5%;'><small>Task 2 of 5</small></div><div class='instruxDiv'><p><strong>4) If you decided to share 4 out of 5 points with your partner, and they decided to share half of the amount they received with you, how many points would you receive back from them on this round?</strong></p><p style='color:#FF0000'>a) 16</p><p>b) 0</p><p>c) 8</p><h3 style='color:#FF0000'>Incorrect!</h3><h3 class='center-content'>The correct response is c).</h3><h3 class='center-content'>If you shared 4 out of 5 points with your partner and they decided to share half of the amount they received with you, you would receive 8 points back (i.e. (4 x 4)/2 = 8).</h3><p><em>Press SPACEBAR to continue</em></p></div>"," ","","","","","","","","","","",""
"html-keyboard-response","135","327866","0.0-17.0","5c3161130cfe9a00012f71ff","bdp_trlrn","Sun Mar 12 2023 16:25:59 GMT-0400 (Eastern Daylight Time)","629672","Trustworthy,Untrustworthy","","null","","","","","","<div class='header' style='text-align:left; position: absolute; top: 5%; left: 5%;'><small>Task 2 of 5</small></div><div class='instruxDiv'><p>Thank you for completing the quiz<p>These are the actual partners you will be interacting with in the next block:<p><div class='tc' align='center'><img class='introPic' src='trustrating_stim/white_00807_941205_fb_edt.bmp'><br><strong>Sean</strong></div><div class='bl' align='center'><img class='introPic' src='trustrating_stim/white_00785_941205_fb_edt.bmp'><br><strong>Brian</strong></div><div class='br' align='center'><img class='introPic' src='trustrating_stim/white_00761_941201_fb_edt.bmp'><br><strong>Michael</strong></div></div><p>Across <strong>66 rounds</strong> you will interact with each partner <strong>22 times</strong> (in random order).<p style='align:center; color:white'><font <em>Press SPACEBAR to continue</em></p>","null","","","","","","","","","","",""
"instructions","136","341575","0.0-18.0","5c3161130cfe9a00012f71ff","bdp_trlrn","Sun Mar 12 2023 16:25:59 GMT-0400 (Eastern Daylight Time)","629672","Trustworthy,Untrustworthy","[{""page_index"":0,""viewing_time"":5820},{""page_index"":1,""viewing_time"":3668},{""page_index"":0,""viewing_time"":1196},{""page_index"":1,""viewing_time"":1175},{""page_index"":0,""viewing_time"":1198},{""page_index"":1,""viewing_time"":651}]","13708","","","","","","","","","","","","","","","","","",""
"html-keyboard-response","137","347898","0.0-19.0-1.0","5c3161130cfe9a00012f71ff","bdp_trlrn","Sun Mar 12 2023 16:25:59 GMT-0400 (Eastern Daylight Time)","629672","Trustworthy,Untrustworthy","","6219","","","","decision","","<div class='trialDiv'><img src='trustrating_stim/white_00785_941205_fb_edt.bmp'><br><font class='baseline'><strong>Brian</strong><p>Choose number of points to send.</font><div class='respPicDiv'><img src='img/responseButtonOffersNo0L.png' class='respPic'></div></div>","3","1","Brian","6","Shared","0.65,0.35","10","0.65","trustrating_stim/white_00785_941205_fb_edt.bmp","5","5","1"
"html-keyboard-response","138","348151","0.0-19.0-2.0","5c3161130cfe9a00012f71ff","bdp_trlrn","Sun Mar 12 2023 16:25:59 GMT-0400 (Eastern Daylight Time)","629672","Trustworthy,Untrustworthy","","null","","","","decisionFB","","<div class='trialDiv'><img src='trustrating_stim/white_00785_941205_fb_edt.bmp'><br><font class='baseline'><strong>Brian</strong><p>Choose number of points to send.</font><div class='respPicDiv'><img src='img/responseButtonOffersNo0L3.png' class='respPic'></div></div>","null","1","Brian","6","Shared","0.65,0.35","10","0.65","trustrating_stim/white_00785_941205_fb_edt.bmp","5","2","1"
"html-keyboard-response","139","349167","0.0-19.0-3.0","5c3161130cfe9a00012f71ff","bdp_trlrn","Sun Mar 12 2023 16:25:59 GMT-0400 (Eastern Daylight Time)","629672","Trustworthy,Untrustworthy","","null","","","","feedback","","<div class='trialDiv'><img src='trustrating_stim/white_00785_941205_fb_edt.bmp'><br><font class='baseline'><strong>Brian</strong><p>Received: <strong>12</strong></font> &nbsp; &nbsp; &nbsp; &nbsp; &nbsp; &nbsp;<font class='posOutcome'>Shared back: <strong>6</strong></font></font><div class='respPicDiv'><img src='img/responseButtonOffersNo0_wht.png' class='respPic'></div></div>","null","1","Brian","6","Shared","0.65,0.35","10","0.65","trustrating_stim/white_00785_941205_fb_edt.bmp","5","8","1"
"html-keyboard-response","140","359037","0.0-19.0-1.1","5c3161130cfe9a00012f71ff","bdp_trlrn","Sun Mar 12 2023 16:25:59 GMT-0400 (Eastern Daylight Time)","629672","Trustworthy,Untrustworthy","","9868","","","","decision","","<div class='trialDiv'><img src='trustrating_stim/white_00807_941205_fb_edt.bmp'><br><font class='baseline'><strong>Sean</strong><p>Choose number of points to send.</font><div class='respPicDiv'><img src='img/responseButtonOffersNo0L.png' class='respPic'></div></div>","2","1","Sean","0","Kept","0.8,0.35","8","0.8","trustrating_stim/white_00807_941205_fb_edt.bmp","2","13","2"
"html-keyboard-response","141","359292","0.0-19.0-2.1","5c3161130cfe9a00012f71ff","bdp_trlrn","Sun Mar 12 2023 16:25:59 GMT-0400 (Eastern Daylight Time)","629672","Trustworthy,Untrustworthy","","null","","","","decisionFB","","<div class='trialDiv'><img src='trustrating_stim/white_00807_941205_fb_edt.bmp'><br><font class='baseline'><strong>Sean</strong><p>Choose number of points to send.</font><div class='respPicDiv'><img src='img/responseButtonOffersNo0L2.png' class='respPic'></div></div>","null","1","Sean","0","Kept","0.8,0.35","8","0.8","trustrating_stim/white_00807_941205_fb_edt.bmp","2","11","2"
"html-keyboard-response","142","360295","0.0-19.0-3.1","5c3161130cfe9a00012f71ff","bdp_trlrn","Sun Mar 12 2023 16:25:59 GMT-0400 (Eastern Daylight Time)","629672","Trustworthy,Untrustworthy","","null","","","","feedback","","<div class='trialDiv'><img src='trustrating_stim/white_00807_941205_fb_edt.bmp'><br><font class='baseline'><strong>Sean</strong><p>Received: <strong>8</strong></font> &nbsp; &nbsp; &nbsp; &nbsp; &nbsp; &nbsp;<font class='negOutcome'>Shared back: <strong>0</strong></font></font><div class='respPicDiv'><img src='img/responseButtonOffersNo0_wht.png' class='respPic'></div></div>","null","1","Sean","0","Kept","0.8,0.35","8","0.8","trustrating_stim/white_00807_941205_fb_edt.bmp","2","11","2"
"html-keyboard-response","143","365746","0.0-19.0-1.2","5c3161130cfe9a00012f71ff","bdp_trlrn","Sun Mar 12 2023 16:25:59 GMT-0400 (Eastern Daylight Time)","629672","Trustworthy,Untrustworthy","","5450","","","","decision","","<div class='trialDiv'><img src='trustrating_stim/white_00761_941201_fb_edt.bmp'><br><font class='baseline'><strong>Michael</strong><p>Choose number of points to send.</font><div class='respPicDiv'><img src='img/responseButtonOffersNo0L.png' class='respPic'></div></div>","5","1","Michael","10","Shared","0.35,0.8","11","0.35","trustrating_stim/white_00761_941201_fb_edt.bmp","8","16","3"
"html-keyboard-response","144","366000","0.0-19.0-2.2","5c3161130cfe9a00012f71ff","bdp_trlrn","Sun Mar 12 2023 16:25:59 GMT-0400 (Eastern Daylight Time)","629672","Trustworthy,Untrustworthy","","null","","","","decisionFB","","<div class='trialDiv'><img src='trustrating_stim/white_00761_941201_fb_edt.bmp'><br><font class='baseline'><strong>Michael</strong><p>Choose number of points to send.</font><div class='respPicDiv'><img src='img/responseButtonOffersNo0L5.png' class='respPic'></div></div>","null","1","Michael","10","Shared","0.35,0.8","11","0.35","trustrating_stim/white_00761_941201_fb_edt.bmp","8","11","3"
"html-keyboard-response","145","367003","0.0-19.0-3.2","5c3161130cfe9a00012f71ff","bdp_trlrn","Sun Mar 12 2023 16:25:59 GMT-0400 (Eastern Daylight Time)","629672","Trustworthy,Untrustworthy","","null","","","","feedback","","<div class='trialDiv'><img src='trustrating_stim/white_00761_941201_fb_edt.bmp'><br><font class='baseline'><strong>Michael</strong><p>Received: <strong>20</strong></font> &nbsp; &nbsp; &nbsp; &nbsp; &nbsp; &nbsp;<font class='posOutcome'>Shared back: <strong>10</strong></font></font><div class='respPicDiv'><img src='img/responseButtonOffersNo0_wht.png' class='respPic'></div></div>","null","1","Michael","10","Shared","0.35,0.8","11","0.35","trustrating_stim/white_00761_941201_fb_edt.bmp","8","21","3"
"html-keyboard-response","146","369551","0.0-19.0-1.3","5c3161130cfe9a00012f71ff","bdp_trlrn","Sun Mar 12 2023 16:25:59 GMT-0400 (Eastern Daylight Time)","629672","Trustworthy,Untrustworthy","","2547","","","","decision","","<div class='trialDiv'><img src='trustrating_stim/white_00785_941205_fb_edt.bmp'><br><font class='baseline'><strong>Brian</strong><p>Choose number of points to send.</font><div class='respPicDiv'><img src='img/responseButtonOffersNo0L.png' class='respPic'></div></div>","4","2","Brian","6","Shared","0.65,0.35","10","0.65","trustrating_stim/white_00785_941205_fb_edt.bmp","5","26","4"
"html-keyboard-response","147","369805","0.0-19.0-2.3","5c3161130cfe9a00012f71ff","bdp_trlrn","Sun Mar 12 2023 16:25:59 GMT-0400 (Eastern Daylight Time)","629672","Trustworthy,Untrustworthy","","null","","","","decisionFB","","<div class='trialDiv'><img src='trustrating_stim/white_00785_941205_fb_edt.bmp'><br><font class='baseline'><strong>Brian</strong><p>Choose number of points to send.</font><div class='respPicDiv'><img src='img/responseButtonOffersNo0L4.png' class='respPic'></div></div>","null","2","Brian","6","Shared","0.65,0.35","10","0.65","trustrating_stim/white_00785_941205_fb_edt.bmp","5","22","4"
"html-keyboard-response","148","370807","0.0-19.0-3.3","5c3161130cfe9a00012f71ff","bdp_trlrn","Sun Mar 12 2023 16:25:59 GMT-0400 (Eastern Daylight Time)","629672","Trustworthy,Untrustworthy","","null","","","","feedback","","<div class='trialDiv'><img src='trustrating_stim/white_00785_941205_fb_edt.bmp'><br><font class='baseline'><strong>Brian</strong><p>Received: <strong>16</strong></font> &nbsp; &nbsp; &nbsp; &nbsp; &nbsp; &nbsp;<font class='posOutcome'>Shared back: <strong>8</strong></font></font><div class='respPicDiv'><img src='img/responseButtonOffersNo0_wht.png' class='respPic'></div></div>","null","2","Brian","6","Shared","0.65,0.35","10","0.65","trustrating_stim/white_00785_941205_fb_edt.bmp","5","30","4"
"html-keyboard-response","149","373984","0.0-19.0-1.4","5c3161130cfe9a00012f71ff","bdp_trlrn","Sun Mar 12 2023 16:25:59 GMT-0400 (Eastern Daylight Time)","629672","Trustworthy,Untrustworthy","","3175","","","","decision","","<div class='trialDiv'><img src='trustrating_stim/white_00761_941201_fb_edt.bmp'><br><font class='baseline'><strong>Michael</strong><p>Choose number of points to send.</font><div class='respPicDiv'><img src='img/responseButtonOffersNo0L.png' class='respPic'></div></div>","5","2","Michael","10","Kept","0.35,0.8","11","0.35","trustrating_stim/white_00761_941201_fb_edt.bmp","8","35","5"
"html-keyboard-response","150","374238","0.0-19.0-2.4","5c3161130cfe9a00012f71ff","bdp_trlrn","Sun Mar 12 2023 16:25:59 GMT-0400 (Eastern Daylight Time)","629672","Trustworthy,Untrustworthy","","null","","","","decisionFB","","<div class='trialDiv'><img src='trustrating_stim/white_00761_941201_fb_edt.bmp'><br><font class='baseline'><strong>Michael</strong><p>Choose number of points to send.</font><div class='respPicDiv'><img src='img/responseButtonOffersNo0L5.png' class='respPic'></div></div>","null","2","Michael","10","Kept","0.35,0.8","11","0.35","trustrating_stim/white_00761_941201_fb_edt.bmp","8","30","5"
"html-keyboard-response","151","375240","0.0-19.0-3.4","5c3161130cfe9a00012f71ff","bdp_trlrn","Sun Mar 12 2023 16:25:59 GMT-0400 (Eastern Daylight Time)","629672","Trustworthy,Untrustworthy","","null","","","","feedback","","<div class='trialDiv'><img src='trustrating_stim/white_00761_941201_fb_edt.bmp'><br><font class='baseline'><strong>Michael</strong><p>Received: <strong>20</strong></font> &nbsp; &nbsp; &nbsp; &nbsp; &nbsp; &nbsp;<font class='negOutcome'>Shared back: <strong>0</strong></font></font><div class='respPicDiv'><img src='img/responseButtonOffersNo0_wht.png' class='respPic'></div></div>","null","2","Michael","10","Kept","0.35,0.8","11","0.35","trustrating_stim/white_00761_941201_fb_edt.bmp","8","30","5"
"html-keyboard-response","152","378996","0.0-19.0-1.5","5c3161130cfe9a00012f71ff","bdp_trlrn","Sun Mar 12 2023 16:25:59 GMT-0400 (Eastern Daylight Time)","629672","Trustworthy,Untrustworthy","","3754","","","","decision","","<div class='trialDiv'><img src='trustrating_stim/white_00807_941205_fb_edt.bmp'><br><font class='baseline'><strong>Sean</strong><p>Choose number of points to send.</font><div class='respPicDiv'><img src='img/responseButtonOffersNo0L.png' class='respPic'></div></div>","5","2","Sean","0","Kept","0.8,0.35","8","0.8","trustrating_stim/white_00807_941205_fb_edt.bmp","2","35","6"
"html-keyboard-response","153","379248","0.0-19.0-2.5","5c3161130cfe9a00012f71ff","bdp_trlrn","Sun Mar 12 2023 16:25:59 GMT-0400 (Eastern Daylight Time)","629672","Trustworthy,Untrustworthy","","null","","","","decisionFB","","<div class='trialDiv'><img src='trustrating_stim/white_00807_941205_fb_edt.bmp'><br><font class='baseline'><strong>Sean</strong><p>Choose number of points to send.</font><div class='respPicDiv'><img src='img/responseButtonOffersNo0L5.png' class='respPic'></div></div>","null","2","Sean","0","Kept","0.8,0.35","8","0.8","trustrating_stim/white_00807_941205_fb_edt.bmp","2","30","6"
"html-keyboard-response","154","380251","0.0-19.0-3.5","5c3161130cfe9a00012f71ff","bdp_trlrn","Sun Mar 12 2023 16:25:59 GMT-0400 (Eastern Daylight Time)","629672","Trustworthy,Untrustworthy","","null","","","","feedback","","<div class='trialDiv'><img src='trustrating_stim/white_00807_941205_fb_edt.bmp'><br><font class='baseline'><strong>Sean</strong><p>Received: <strong>20</strong></font> &nbsp; &nbsp; &nbsp; &nbsp; &nbsp; &nbsp;<font class='negOutcome'>Shared back: <strong>0</strong></font></font><div class='respPicDiv'><img src='img/responseButtonOffersNo0_wht.png' class='respPic'></div></div>","null","2","Sean","0","Kept","0.8,0.35","8","0.8","trustrating_stim/white_00807_941205_fb_edt.bmp","2","30","6"
"html-keyboard-response","155","381644","0.0-19.0-1.6","5c3161130cfe9a00012f71ff","bdp_trlrn","Sun Mar 12 2023 16:25:59 GMT-0400 (Eastern Daylight Time)","629672","Trustworthy,Untrustworthy","","1391","","","","decision","","<div class='trialDiv'><img src='trustrating_stim/white_00785_941205_fb_edt.bmp'><br><font class='baseline'><strong>Brian</strong><p>Choose number of points to send.</font><div class='respPicDiv'><img src='img/responseButtonOffersNo0L.png' class='respPic'></div></div>","4","3","Brian","6","Kept","0.65,0.35","10","0.65","trustrating_stim/white_00785_941205_fb_edt.bmp","5","35","7"
"html-keyboard-response","156","381904","0.0-19.0-2.6","5c3161130cfe9a00012f71ff","bdp_trlrn","Sun Mar 12 2023 16:25:59 GMT-0400 (Eastern Daylight Time)","629672","Trustworthy,Untrustworthy","","null","","","","decisionFB","","<div class='trialDiv'><img src='trustrating_stim/white_00785_941205_fb_edt.bmp'><br><font class='baseline'><strong>Brian</strong><p>Choose number of points to send.</font><div class='respPicDiv'><img src='img/responseButtonOffersNo0L4.png' class='respPic'></div></div>","null","3","Brian","6","Kept","0.65,0.35","10","0.65","trustrating_stim/white_00785_941205_fb_edt.bmp","5","31","7"
"html-keyboard-response","157","382905","0.0-19.0-3.6","5c3161130cfe9a00012f71ff","bdp_trlrn","Sun Mar 12 2023 16:25:59 GMT-0400 (Eastern Daylight Time)","629672","Trustworthy,Untrustworthy","","null","","","","feedback","","<div class='trialDiv'><img src='trustrating_stim/white_00785_941205_fb_edt.bmp'><br><font class='baseline'><strong>Brian</strong><p>Received: <strong>16</strong></font> &nbsp; &nbsp; &nbsp; &nbsp; &nbsp; &nbsp;<font class='negOutcome'>Shared back: <strong>0</strong></font></font><div class='respPicDiv'><img src='img/responseButtonOffersNo0_wht.png' class='respPic'></div></div>","null","3","Brian","6","Kept","0.65,0.35","10","0.65","trustrating_stim/white_00785_941205_fb_edt.bmp","5","31","7"
"html-keyboard-response","158","385263","0.0-19.0-1.7","5c3161130cfe9a00012f71ff","bdp_trlrn","Sun Mar 12 2023 16:25:59 GMT-0400 (Eastern Daylight Time)","629672","Trustworthy,Untrustworthy","","2356","","","","decision","","<div class='trialDiv'><img src='trustrating_stim/white_00807_941205_fb_edt.bmp'><br><font class='baseline'><strong>Sean</strong><p>Choose number of points to send.</font><div class='respPicDiv'><img src='img/responseButtonOffersNo0L.png' class='respPic'></div></div>","5","3","Sean","0","Kept","0.8,0.35","8","0.8","trustrating_stim/white_00807_941205_fb_edt.bmp","2","36","8"
"html-keyboard-response","159","385517","0.0-19.0-2.7","5c3161130cfe9a00012f71ff","bdp_trlrn","Sun Mar 12 2023 16:25:59 GMT-0400 (Eastern Daylight Time)","629672","Trustworthy,Untrustworthy","","null","","","","decisionFB","","<div class='trialDiv'><img src='trustrating_stim/white_00807_941205_fb_edt.bmp'><br><font class='baseline'><strong>Sean</strong><p>Choose number of points to send.</font><div class='respPicDiv'><img src='img/responseButtonOffersNo0L5.png' class='respPic'></div></div>","null","3","Sean","0","Kept","0.8,0.35","8","0.8","trustrating_stim/white_00807_941205_fb_edt.bmp","2","31","8"
"html-keyboard-response","160","386519","0.0-19.0-3.7","5c3161130cfe9a00012f71ff","bdp_trlrn","Sun Mar 12 2023 16:25:59 GMT-0400 (Eastern Daylight Time)","629672","Trustworthy,Untrustworthy","","null","","","","feedback","","<div class='trialDiv'><img src='trustrating_stim/white_00807_941205_fb_edt.bmp'><br><font class='baseline'><strong>Sean</strong><p>Received: <strong>20</strong></font> &nbsp; &nbsp; &nbsp; &nbsp; &nbsp; &nbsp;<font class='negOutcome'>Shared back: <strong>0</strong></font></font><div class='respPicDiv'><img src='img/responseButtonOffersNo0_wht.png' class='respPic'></div></div>","null","3","Sean","0","Kept","0.8,0.35","8","0.8","trustrating_stim/white_00807_941205_fb_edt.bmp","2","31","8"
"html-keyboard-response","161","387112","0.0-19.0-1.8","5c3161130cfe9a00012f71ff","bdp_trlrn","Sun Mar 12 2023 16:25:59 GMT-0400 (Eastern Daylight Time)","629672","Trustworthy,Untrustworthy","","591","","","","decision","","<div class='trialDiv'><img src='trustrating_stim/white_00761_941201_fb_edt.bmp'><br><font class='baseline'><strong>Michael</strong><p>Choose number of points to send.</font><div class='respPicDiv'><img src='img/responseButtonOffersNo0L.png' class='respPic'></div></div>","3","3","Michael","10","Kept","0.35,0.8","11","0.35","trustrating_stim/white_00761_941201_fb_edt.bmp","8","36","9"
"html-keyboard-response","162","387365","0.0-19.0-2.8","5c3161130cfe9a00012f71ff","bdp_trlrn","Sun Mar 12 2023 16:25:59 GMT-0400 (Eastern Daylight Time)","629672","Trustworthy,Untrustworthy","","null","","","","decisionFB","","<div class='trialDiv'><img src='trustrating_stim/white_00761_941201_fb_edt.bmp'><br><font class='baseline'><strong>Michael</strong><p>Choose number of points to send.</font><div class='respPicDiv'><img src='img/responseButtonOffersNo0L3.png' class='respPic'></div></div>","null","3","Michael","10","Kept","0.35,0.8","11","0.35","trustrating_stim/white_00761_941201_fb_edt.bmp","8","33","9"
"html-keyboard-response","163","388367","0.0-19.0-3.8","5c3161130cfe9a00012f71ff","bdp_trlrn","Sun Mar 12 2023 16:25:59 GMT-0400 (Eastern Daylight Time)","629672","Trustworthy,Untrustworthy","","null","","","","feedback","","<div class='trialDiv'><img src='trustrating_stim/white_00761_941201_fb_edt.bmp'><br><font class='baseline'><strong>Michael</strong><p>Received: <strong>12</strong></font> &nbsp; &nbsp; &nbsp; &nbsp; &nbsp; &nbsp;<font class='negOutcome'>Shared back: <strong>0</strong></font></font><div class='respPicDiv'><img src='img/responseButtonOffersNo0_wht.png' class='respPic'></div></div>","null","3","Michael","10","Kept","0.35,0.8","11","0.35","trustrating_stim/white_00761_941201_fb_edt.bmp","8","33","9"
"html-keyboard-response","164","389622","0.0-19.0-1.9","5c3161130cfe9a00012f71ff","bdp_trlrn","Sun Mar 12 2023 16:25:59 GMT-0400 (Eastern Daylight Time)","629672","Trustworthy,Untrustworthy","","1253","","","","decision","","<div class='trialDiv'><img src='trustrating_stim/white_00807_941205_fb_edt.bmp'><br><font class='baseline'><strong>Sean</strong><p>Choose number of points to send.</font><div class='respPicDiv'><img src='img/responseButtonOffersNo0L.png' class='respPic'></div></div>","2","4","Sean","0","Shared","0.8,0.35","8","0.8","trustrating_stim/white_00807_941205_fb_edt.bmp","2","38","10"
"html-keyboard-response","165","389874","0.0-19.0-2.9","5c3161130cfe9a00012f71ff","bdp_trlrn","Sun Mar 12 2023 16:25:59 GMT-0400 (Eastern Daylight Time)","629672","Trustworthy,Untrustworthy","","null","","","","decisionFB","","<div class='trialDiv'><img src='trustrating_stim/white_00807_941205_fb_edt.bmp'><br><font class='baseline'><strong>Sean</strong><p>Choose number of points to send.</font><div class='respPicDiv'><img src='img/responseButtonOffersNo0L2.png' class='respPic'></div></div>","null","4","Sean","0","Shared","0.8,0.35","8","0.8","trustrating_stim/white_00807_941205_fb_edt.bmp","2","36","10"
"html-keyboard-response","166","390877","0.0-19.0-3.9","5c3161130cfe9a00012f71ff","bdp_trlrn","Sun Mar 12 2023 16:25:59 GMT-0400 (Eastern Daylight Time)","629672","Trustworthy,Untrustworthy","","null","","","","feedback","","<div class='trialDiv'><img src='trustrating_stim/white_00807_941205_fb_edt.bmp'><br><font class='baseline'><strong>Sean</strong><p>Received: <strong>8</strong></font> &nbsp; &nbsp; &nbsp; &nbsp; &nbsp; &nbsp;<font class='posOutcome'>Shared back: <strong>4</strong></font></font><div class='respPicDiv'><img src='img/responseButtonOffersNo0_wht.png' class='respPic'></div></div>","null","4","Sean","0","Shared","0.8,0.35","8","0.8","trustrating_stim/white_00807_941205_fb_edt.bmp","2","40","10"
"html-keyboard-response","167","391242","0.0-19.0-1.10","5c3161130cfe9a00012f71ff","bdp_trlrn","Sun Mar 12 2023 16:25:59 GMT-0400 (Eastern Daylight Time)","629672","Trustworthy,Untrustworthy","","364","","","","decision","","<div class='trialDiv'><img src='trustrating_stim/white_00761_941201_fb_edt.bmp'><br><font class='baseline'><strong>Michael</strong><p>Choose number of points to send.</font><div class='respPicDiv'><img src='img/responseButtonOffersNo0L.png' class='respPic'></div></div>","3","4","Michael","10","Shared","0.35,0.8","11","0.35","trustrating_stim/white_00761_941201_fb_edt.bmp","8","45","11"
"html-keyboard-response","168","391494","0.0-19.0-2.10","5c3161130cfe9a00012f71ff","bdp_trlrn","Sun Mar 12 2023 16:25:59 GMT-0400 (Eastern Daylight Time)","629672","Trustworthy,Untrustworthy","","null","","","","decisionFB","","<div class='trialDiv'><img src='trustrating_stim/white_00761_941201_fb_edt.bmp'><br><font class='baseline'><strong>Michael</strong><p>Choose number of points to send.</font><div class='respPicDiv'><img src='img/responseButtonOffersNo0L3.png' class='respPic'></div></div>","null","4","Michael","10","Shared","0.35,0.8","11","0.35","trustrating_stim/white_00761_941201_fb_edt.bmp","8","42","11"
"html-keyboard-response","169","392497","0.0-19.0-3.10","5c3161130cfe9a00012f71ff","bdp_trlrn","Sun Mar 12 2023 16:25:59 GMT-0400 (Eastern Daylight Time)","629672","Trustworthy,Untrustworthy","","null","","","","feedback","","<div class='trialDiv'><img src='trustrating_stim/white_00761_941201_fb_edt.bmp'><br><font class='baseline'><strong>Michael</strong><p>Received: <strong>12</strong></font> &nbsp; &nbsp; &nbsp; &nbsp; &nbsp; &nbsp;<font class='posOutcome'>Shared back: <strong>6</strong></font></font><div class='respPicDiv'><img src='img/responseButtonOffersNo0_wht.png' class='respPic'></div></div>","null","4","Michael","10","Shared","0.35,0.8","11","0.35","trustrating_stim/white_00761_941201_fb_edt.bmp","8","48","11"
"html-keyboard-response","170","393492","0.0-19.0-1.11","5c3161130cfe9a00012f71ff","bdp_trlrn","Sun Mar 12 2023 16:25:59 GMT-0400 (Eastern Daylight Time)","629672","Trustworthy,Untrustworthy","","993","","","","decision","","<div class='trialDiv'><img src='trustrating_stim/white_00785_941205_fb_edt.bmp'><br><font class='baseline'><strong>Brian</strong><p>Choose number of points to send.</font><div class='respPicDiv'><img src='img/responseButtonOffersNo0L.png' class='respPic'></div></div>","4","4","Brian","6","Shared","0.65,0.35","10","0.65","trustrating_stim/white_00785_941205_fb_edt.bmp","5","53","12"
"html-keyboard-response","171","393745","0.0-19.0-2.11","5c3161130cfe9a00012f71ff","bdp_trlrn","Sun Mar 12 2023 16:25:59 GMT-0400 (Eastern Daylight Time)","629672","Trustworthy,Untrustworthy","","null","","","","decisionFB","","<div class='trialDiv'><img src='trustrating_stim/white_00785_941205_fb_edt.bmp'><br><font class='baseline'><strong>Brian</strong><p>Choose number of points to send.</font><div class='respPicDiv'><img src='img/responseButtonOffersNo0L4.png' class='respPic'></div></div>","null","4","Brian","6","Shared","0.65,0.35","10","0.65","trustrating_stim/white_00785_941205_fb_edt.bmp","5","49","12"
"html-keyboard-response","172","394748","0.0-19.0-3.11","5c3161130cfe9a00012f71ff","bdp_trlrn","Sun Mar 12 2023 16:25:59 GMT-0400 (Eastern Daylight Time)","629672","Trustworthy,Untrustworthy","","null","","","","feedback","","<div class='trialDiv'><img src='trustrating_stim/white_00785_941205_fb_edt.bmp'><br><font class='baseline'><strong>Brian</strong><p>Received: <strong>16</strong></font> &nbsp; &nbsp; &nbsp; &nbsp; &nbsp; &nbsp;<font class='posOutcome'>Shared back: <strong>8</strong></font></font><div class='respPicDiv'><img src='img/responseButtonOffersNo0_wht.png' class='respPic'></div></div>","null","4","Brian","6","Shared","0.65,0.35","10","0.65","trustrating_stim/white_00785_941205_fb_edt.bmp","5","57","12"
"html-keyboard-response","173","395508","0.0-19.0-1.12","5c3161130cfe9a00012f71ff","bdp_trlrn","Sun Mar 12 2023 16:25:59 GMT-0400 (Eastern Daylight Time)","629672","Trustworthy,Untrustworthy","","757","","","","decision","","<div class='trialDiv'><img src='trustrating_stim/white_00761_941201_fb_edt.bmp'><br><font class='baseline'><strong>Michael</strong><p>Choose number of points to send.</font><div class='respPicDiv'><img src='img/responseButtonOffersNo0L.png' class='respPic'></div></div>","4","5","Michael","10","Kept","0.35,0.8","11","0.35","trustrating_stim/white_00761_941201_fb_edt.bmp","8","62","13"
"html-keyboard-response","174","395761","0.0-19.0-2.12","5c3161130cfe9a00012f71ff","bdp_trlrn","Sun Mar 12 2023 16:25:59 GMT-0400 (Eastern Daylight Time)","629672","Trustworthy,Untrustworthy","","null","","","","decisionFB","","<div class='trialDiv'><img src='trustrating_stim/white_00761_941201_fb_edt.bmp'><br><font class='baseline'><strong>Michael</strong><p>Choose number of points to send.</font><div class='respPicDiv'><img src='img/responseButtonOffersNo0L4.png' class='respPic'></div></div>","null","5","Michael","10","Kept","0.35,0.8","11","0.35","trustrating_stim/white_00761_941201_fb_edt.bmp","8","58","13"
"html-keyboard-response","175","396763","0.0-19.0-3.12","5c3161130cfe9a00012f71ff","bdp_trlrn","Sun Mar 12 2023 16:25:59 GMT-0400 (Eastern Daylight Time)","629672","Trustworthy,Untrustworthy","","null","","","","feedback","","<div class='trialDiv'><img src='trustrating_stim/white_00761_941201_fb_edt.bmp'><br><font class='baseline'><strong>Michael</strong><p>Received: <strong>16</strong></font> &nbsp; &nbsp; &nbsp; &nbsp; &nbsp; &nbsp;<font class='negOutcome'>Shared back: <strong>0</strong></font></font><div class='respPicDiv'><img src='img/responseButtonOffersNo0_wht.png' class='respPic'></div></div>","null","5","Michael","10","Kept","0.35,0.8","11","0.35","trustrating_stim/white_00761_941201_fb_edt.bmp","8","58","13"
"html-keyboard-response","176","397851","0.0-19.0-1.13","5c3161130cfe9a00012f71ff","bdp_trlrn","Sun Mar 12 2023 16:25:59 GMT-0400 (Eastern Daylight Time)","629672","Trustworthy,Untrustworthy","","1086","","","","decision","","<div class='trialDiv'><img src='trustrating_stim/white_00807_941205_fb_edt.bmp'><br><font class='baseline'><strong>Sean</strong><p>Choose number of points to send.</font><div class='respPicDiv'><img src='img/responseButtonOffersNo0L.png' class='respPic'></div></div>","5","5","Sean","0","Shared","0.8,0.35","8","0.8","trustrating_stim/white_00807_941205_fb_edt.bmp","2","63","14"
"html-keyboard-response","177","398103","0.0-19.0-2.13","5c3161130cfe9a00012f71ff","bdp_trlrn","Sun Mar 12 2023 16:25:59 GMT-0400 (Eastern Daylight Time)","629672","Trustworthy,Untrustworthy","","null","","","","decisionFB","","<div class='trialDiv'><img src='trustrating_stim/white_00807_941205_fb_edt.bmp'><br><font class='baseline'><strong>Sean</strong><p>Choose number of points to send.</font><div class='respPicDiv'><img src='img/responseButtonOffersNo0L5.png' class='respPic'></div></div>","null","5","Sean","0","Shared","0.8,0.35","8","0.8","trustrating_stim/white_00807_941205_fb_edt.bmp","2","58","14"
"html-keyboard-response","178","399106","0.0-19.0-3.13","5c3161130cfe9a00012f71ff","bdp_trlrn","Sun Mar 12 2023 16:25:59 GMT-0400 (Eastern Daylight Time)","629672","Trustworthy,Untrustworthy","","null","","","","feedback","","<div class='trialDiv'><img src='trustrating_stim/white_00807_941205_fb_edt.bmp'><br><font class='baseline'><strong>Sean</strong><p>Received: <strong>20</strong></font> &nbsp; &nbsp; &nbsp; &nbsp; &nbsp; &nbsp;<font class='posOutcome'>Shared back: <strong>10</strong></font></font><div class='respPicDiv'><img src='img/responseButtonOffersNo0_wht.png' class='respPic'></div></div>","null","5","Sean","0","Shared","0.8,0.35","8","0.8","trustrating_stim/white_00807_941205_fb_edt.bmp","2","68","14"
"html-keyboard-response","179","399587","0.0-19.0-1.14","5c3161130cfe9a00012f71ff","bdp_trlrn","Sun Mar 12 2023 16:25:59 GMT-0400 (Eastern Daylight Time)","629672","Trustworthy,Untrustworthy","","479","","","","decision","","<div class='trialDiv'><img src='trustrating_stim/white_00785_941205_fb_edt.bmp'><br><font class='baseline'><strong>Brian</strong><p>Choose number of points to send.</font><div class='respPicDiv'><img src='img/responseButtonOffersNo0L.png' class='respPic'></div></div>","5","5","Brian","6","Shared","0.65,0.35","10","0.65","trustrating_stim/white_00785_941205_fb_edt.bmp","5","73","15"
"html-keyboard-response","180","399839","0.0-19.0-2.14","5c3161130cfe9a00012f71ff","bdp_trlrn","Sun Mar 12 2023 16:25:59 GMT-0400 (Eastern Daylight Time)","629672","Trustworthy,Untrustworthy","","null","","","","decisionFB","","<div class='trialDiv'><img src='trustrating_stim/white_00785_941205_fb_edt.bmp'><br><font class='baseline'><strong>Brian</strong><p>Choose number of points to send.</font><div class='respPicDiv'><img src='img/responseButtonOffersNo0L5.png' class='respPic'></div></div>","null","5","Brian","6","Shared","0.65,0.35","10","0.65","trustrating_stim/white_00785_941205_fb_edt.bmp","5","68","15"
"html-keyboard-response","181","400842","0.0-19.0-3.14","5c3161130cfe9a00012f71ff","bdp_trlrn","Sun Mar 12 2023 16:25:59 GMT-0400 (Eastern Daylight Time)","629672","Trustworthy,Untrustworthy","","null","","","","feedback","","<div class='trialDiv'><img src='trustrating_stim/white_00785_941205_fb_edt.bmp'><br><font class='baseline'><strong>Brian</strong><p>Received: <strong>20</strong></font> &nbsp; &nbsp; &nbsp; &nbsp; &nbsp; &nbsp;<font class='posOutcome'>Shared back: <strong>10</strong></font></font><div class='respPicDiv'><img src='img/responseButtonOffersNo0_wht.png' class='respPic'></div></div>","null","5","Brian","6","Shared","0.65,0.35","10","0.65","trustrating_stim/white_00785_941205_fb_edt.bmp","5","78","15"
"html-keyboard-response","182","402470","0.0-19.0-1.15","5c3161130cfe9a00012f71ff","bdp_trlrn","Sun Mar 12 2023 16:25:59 GMT-0400 (Eastern Daylight Time)","629672","Trustworthy,Untrustworthy","","1626","","","","decision","","<div class='trialDiv'><img src='trustrating_stim/white_00807_941205_fb_edt.bmp'><br><font class='baseline'><strong>Sean</strong><p>Choose number of points to send.</font><div class='respPicDiv'><img src='img/responseButtonOffersNo0L.png' class='respPic'></div></div>","5","6","Sean","0","Kept","0.8,0.35","8","0.8","trustrating_stim/white_00807_941205_fb_edt.bmp","2","83","16"
"html-keyboard-response","183","402722","0.0-19.0-2.15","5c3161130cfe9a00012f71ff","bdp_trlrn","Sun Mar 12 2023 16:25:59 GMT-0400 (Eastern Daylight Time)","629672","Trustworthy,Untrustworthy","","null","","","","decisionFB","","<div class='trialDiv'><img src='trustrating_stim/white_00807_941205_fb_edt.bmp'><br><font class='baseline'><strong>Sean</strong><p>Choose number of points to send.</font><div class='respPicDiv'><img src='img/responseButtonOffersNo0L5.png' class='respPic'></div></div>","null","6","Sean","0","Kept","0.8,0.35","8","0.8","trustrating_stim/white_00807_941205_fb_edt.bmp","2","78","16"
"html-keyboard-response","184","403726","0.0-19.0-3.15","5c3161130cfe9a00012f71ff","bdp_trlrn","Sun Mar 12 2023 16:25:59 GMT-0400 (Eastern Daylight Time)","629672","Trustworthy,Untrustworthy","","null","","","","feedback","","<div class='trialDiv'><img src='trustrating_stim/white_00807_941205_fb_edt.bmp'><br><font class='baseline'><strong>Sean</strong><p>Received: <strong>20</strong></font> &nbsp; &nbsp; &nbsp; &nbsp; &nbsp; &nbsp;<font class='negOutcome'>Shared back: <strong>0</strong></font></font><div class='respPicDiv'><img src='img/responseButtonOffersNo0_wht.png' class='respPic'></div></div>","null","6","Sean","0","Kept","0.8,0.35","8","0.8","trustrating_stim/white_00807_941205_fb_edt.bmp","2","78","16"
"html-keyboard-response","185","404231","0.0-19.0-1.16","5c3161130cfe9a00012f71ff","bdp_trlrn","Sun Mar 12 2023 16:25:59 GMT-0400 (Eastern Daylight Time)","629672","Trustworthy,Untrustworthy","","504","","","","decision","","<div class='trialDiv'><img src='trustrating_stim/white_00785_941205_fb_edt.bmp'><br><font class='baseline'><strong>Brian</strong><p>Choose number of points to send.</font><div class='respPicDiv'><img src='img/responseButtonOffersNo0L.png' class='respPic'></div></div>","3","6","Brian","6","Shared","0.65,0.35","10","0.65","trustrating_stim/white_00785_941205_fb_edt.bmp","5","83","17"
"html-keyboard-response","186","404484","0.0-19.0-2.16","5c3161130cfe9a00012f71ff","bdp_trlrn","Sun Mar 12 2023 16:25:59 GMT-0400 (Eastern Daylight Time)","629672","Trustworthy,Untrustworthy","","null","","","","decisionFB","","<div class='trialDiv'><img src='trustrating_stim/white_00785_941205_fb_edt.bmp'><br><font class='baseline'><strong>Brian</strong><p>Choose number of points to send.</font><div class='respPicDiv'><img src='img/responseButtonOffersNo0L3.png' class='respPic'></div></div>","null","6","Brian","6","Shared","0.65,0.35","10","0.65","trustrating_stim/white_00785_941205_fb_edt.bmp","5","80","17"
"html-keyboard-response","187","405486","0.0-19.0-3.16","5c3161130cfe9a00012f71ff","bdp_trlrn","Sun Mar 12 2023 16:25:59 GMT-0400 (Eastern Daylight Time)","629672","Trustworthy,Untrustworthy","","null","","","","feedback","","<div class='trialDiv'><img src='trustrating_stim/white_00785_941205_fb_edt.bmp'><br><font class='baseline'><strong>Brian</strong><p>Received: <strong>12</strong></font> &nbsp; &nbsp; &nbsp; &nbsp; &nbsp; &nbsp;<font class='posOutcome'>Shared back: <strong>6</strong></font></font><div class='respPicDiv'><img src='img/responseButtonOffersNo0_wht.png' class='respPic'></div></div>","null","6","Brian","6","Shared","0.65,0.35","10","0.65","trustrating_stim/white_00785_941205_fb_edt.bmp","5","86","17"
"html-keyboard-response","188","407599","0.0-19.0-1.17","5c3161130cfe9a00012f71ff","bdp_trlrn","Sun Mar 12 2023 16:25:59 GMT-0400 (Eastern Daylight Time)","629672","Trustworthy,Untrustworthy","","2110","","","","decision","","<div class='trialDiv'><img src='trustrating_stim/white_00761_941201_fb_edt.bmp'><br><font class='baseline'><strong>Michael</strong><p>Choose number of points to send.</font><div class='respPicDiv'><img src='img/responseButtonOffersNo0L.png' class='respPic'></div></div>","1","6","Michael","10","Shared","0.35,0.8","11","0.35","trustrating_stim/white_00761_941201_fb_edt.bmp","8","91","18"
"html-keyboard-response","189","407850","0.0-19.0-2.17","5c3161130cfe9a00012f71ff","bdp_trlrn","Sun Mar 12 2023 16:25:59 GMT-0400 (Eastern Daylight Time)","629672","Trustworthy,Untrustworthy","","null","","","","decisionFB","","<div class='trialDiv'><img src='trustrating_stim/white_00761_941201_fb_edt.bmp'><br><font class='baseline'><strong>Michael</strong><p>Choose number of points to send.</font><div class='respPicDiv'><img src='img/responseButtonOffersNo0L1.png' class='respPic'></div></div>","null","6","Michael","10","Shared","0.35,0.8","11","0.35","trustrating_stim/white_00761_941201_fb_edt.bmp","8","90","18"
"html-keyboard-response","190","408853","0.0-19.0-3.17","5c3161130cfe9a00012f71ff","bdp_trlrn","Sun Mar 12 2023 16:25:59 GMT-0400 (Eastern Daylight Time)","629672","Trustworthy,Untrustworthy","","null","","","","feedback","","<div class='trialDiv'><img src='trustrating_stim/white_00761_941201_fb_edt.bmp'><br><font class='baseline'><strong>Michael</strong><p>Received: <strong>4</strong></font> &nbsp; &nbsp; &nbsp; &nbsp; &nbsp; &nbsp;<font class='posOutcome'>Shared back: <strong>2</strong></font></font><div class='respPicDiv'><img src='img/responseButtonOffersNo0_wht.png' class='respPic'></div></div>","null","6","Michael","10","Shared","0.35,0.8","11","0.35","trustrating_stim/white_00761_941201_fb_edt.bmp","8","92","18"
"html-keyboard-response","191","410018","0.0-19.0-1.18","5c3161130cfe9a00012f71ff","bdp_trlrn","Sun Mar 12 2023 16:25:59 GMT-0400 (Eastern Daylight Time)","629672","Trustworthy,Untrustworthy","","1163","","","","decision","","<div class='trialDiv'><img src='trustrating_stim/white_00807_941205_fb_edt.bmp'><br><font class='baseline'><strong>Sean</strong><p>Choose number of points to send.</font><div class='respPicDiv'><img src='img/responseButtonOffersNo0L.png' class='respPic'></div></div>","3","7","Sean","0","Shared","0.8,0.35","8","0.8","trustrating_stim/white_00807_941205_fb_edt.bmp","2","97","19"
"html-keyboard-response","192","410270","0.0-19.0-2.18","5c3161130cfe9a00012f71ff","bdp_trlrn","Sun Mar 12 2023 16:25:59 GMT-0400 (Eastern Daylight Time)","629672","Trustworthy,Untrustworthy","","null","","","","decisionFB","","<div class='trialDiv'><img src='trustrating_stim/white_00807_941205_fb_edt.bmp'><br><font class='baseline'><strong>Sean</strong><p>Choose number of points to send.</font><div class='respPicDiv'><img src='img/responseButtonOffersNo0L3.png' class='respPic'></div></div>","null","7","Sean","0","Shared","0.8,0.35","8","0.8","trustrating_stim/white_00807_941205_fb_edt.bmp","2","94","19"
"html-keyboard-response","193","411273","0.0-19.0-3.18","5c3161130cfe9a00012f71ff","bdp_trlrn","Sun Mar 12 2023 16:25:59 GMT-0400 (Eastern Daylight Time)","629672","Trustworthy,Untrustworthy","","null","","","","feedback","","<div class='trialDiv'><img src='trustrating_stim/white_00807_941205_fb_edt.bmp'><br><font class='baseline'><strong>Sean</strong><p>Received: <strong>12</strong></font> &nbsp; &nbsp; &nbsp; &nbsp; &nbsp; &nbsp;<font class='posOutcome'>Shared back: <strong>6</strong></font></font><div class='respPicDiv'><img src='img/responseButtonOffersNo0_wht.png' class='respPic'></div></div>","null","7","Sean","0","Shared","0.8,0.35","8","0.8","trustrating_stim/white_00807_941205_fb_edt.bmp","2","100","19"
"html-keyboard-response","194","412104","0.0-19.0-1.19","5c3161130cfe9a00012f71ff","bdp_trlrn","Sun Mar 12 2023 16:25:59 GMT-0400 (Eastern Daylight Time)","629672","Trustworthy,Untrustworthy","","829","","","","decision","","<div class='trialDiv'><img src='trustrating_stim/white_00761_941201_fb_edt.bmp'><br><font class='baseline'><strong>Michael</strong><p>Choose number of points to send.</font><div class='respPicDiv'><img src='img/responseButtonOffersNo0L.png' class='respPic'></div></div>","5","7","Michael","10","Kept","0.35,0.8","11","0.35","trustrating_stim/white_00761_941201_fb_edt.bmp","8","105","20"
"html-keyboard-response","195","412356","0.0-19.0-2.19","5c3161130cfe9a00012f71ff","bdp_trlrn","Sun Mar 12 2023 16:25:59 GMT-0400 (Eastern Daylight Time)","629672","Trustworthy,Untrustworthy","","null","","","","decisionFB","","<div class='trialDiv'><img src='trustrating_stim/white_00761_941201_fb_edt.bmp'><br><font class='baseline'><strong>Michael</strong><p>Choose number of points to send.</font><div class='respPicDiv'><img src='img/responseButtonOffersNo0L5.png' class='respPic'></div></div>","null","7","Michael","10","Kept","0.35,0.8","11","0.35","trustrating_stim/white_00761_941201_fb_edt.bmp","8","100","20"
"html-keyboard-response","196","413359","0.0-19.0-3.19","5c3161130cfe9a00012f71ff","bdp_trlrn","Sun Mar 12 2023 16:25:59 GMT-0400 (Eastern Daylight Time)","629672","Trustworthy,Untrustworthy","","null","","","","feedback","","<div class='trialDiv'><img src='trustrating_stim/white_00761_941201_fb_edt.bmp'><br><font class='baseline'><strong>Michael</strong><p>Received: <strong>20</strong></font> &nbsp; &nbsp; &nbsp; &nbsp; &nbsp; &nbsp;<font class='negOutcome'>Shared back: <strong>0</strong></font></font><div class='respPicDiv'><img src='img/responseButtonOffersNo0_wht.png' class='respPic'></div></div>","null","7","Michael","10","Kept","0.35,0.8","11","0.35","trustrating_stim/white_00761_941201_fb_edt.bmp","8","100","20"
"html-keyboard-response","197","413459","0.0-19.0-1.20","5c3161130cfe9a00012f71ff","bdp_trlrn","Sun Mar 12 2023 16:25:59 GMT-0400 (Eastern Daylight Time)","629672","Trustworthy,Untrustworthy","","99","","","","decision","","<div class='trialDiv'><img src='trustrating_stim/white_00785_941205_fb_edt.bmp'><br><font class='baseline'><strong>Brian</strong><p>Choose number of points to send.</font><div class='respPicDiv'><img src='img/responseButtonOffersNo0L.png' class='respPic'></div></div>","5","7","Brian","6","Shared","0.65,0.35","10","0.65","trustrating_stim/white_00785_941205_fb_edt.bmp","5","105","21"
"html-keyboard-response","198","413712","0.0-19.0-2.20","5c3161130cfe9a00012f71ff","bdp_trlrn","Sun Mar 12 2023 16:25:59 GMT-0400 (Eastern Daylight Time)","629672","Trustworthy,Untrustworthy","","null","","","","decisionFB","","<div class='trialDiv'><img src='trustrating_stim/white_00785_941205_fb_edt.bmp'><br><font class='baseline'><strong>Brian</strong><p>Choose number of points to send.</font><div class='respPicDiv'><img src='img/responseButtonOffersNo0L5.png' class='respPic'></div></div>","null","7","Brian","6","Shared","0.65,0.35","10","0.65","trustrating_stim/white_00785_941205_fb_edt.bmp","5","100","21"
"html-keyboard-response","199","414715","0.0-19.0-3.20","5c3161130cfe9a00012f71ff","bdp_trlrn","Sun Mar 12 2023 16:25:59 GMT-0400 (Eastern Daylight Time)","629672","Trustworthy,Untrustworthy","","null","","","","feedback","","<div class='trialDiv'><img src='trustrating_stim/white_00785_941205_fb_edt.bmp'><br><font class='baseline'><strong>Brian</strong><p>Received: <strong>20</strong></font> &nbsp; &nbsp; &nbsp; &nbsp; &nbsp; &nbsp;<font class='posOutcome'>Shared back: <strong>10</strong></font></font><div class='respPicDiv'><img src='img/responseButtonOffersNo0_wht.png' class='respPic'></div></div>","null","7","Brian","6","Shared","0.65,0.35","10","0.65","trustrating_stim/white_00785_941205_fb_edt.bmp","5","110","21"
"html-keyboard-response","200","414820","0.0-19.0-1.21","5c3161130cfe9a00012f71ff","bdp_trlrn","Sun Mar 12 2023 16:25:59 GMT-0400 (Eastern Daylight Time)","629672","Trustworthy,Untrustworthy","","103","","","","decision","","<div class='trialDiv'><img src='trustrating_stim/white_00761_941201_fb_edt.bmp'><br><font class='baseline'><strong>Michael</strong><p>Choose number of points to send.</font><div class='respPicDiv'><img src='img/responseButtonOffersNo0L.png' class='respPic'></div></div>","5","8","Michael","10","Kept","0.35,0.8","11","0.35","trustrating_stim/white_00761_941201_fb_edt.bmp","8","115","22"
"html-keyboard-response","201","415073","0.0-19.0-2.21","5c3161130cfe9a00012f71ff","bdp_trlrn","Sun Mar 12 2023 16:25:59 GMT-0400 (Eastern Daylight Time)","629672","Trustworthy,Untrustworthy","","null","","","","decisionFB","","<div class='trialDiv'><img src='trustrating_stim/white_00761_941201_fb_edt.bmp'><br><font class='baseline'><strong>Michael</strong><p>Choose number of points to send.</font><div class='respPicDiv'><img src='img/responseButtonOffersNo0L5.png' class='respPic'></div></div>","null","8","Michael","10","Kept","0.35,0.8","11","0.35","trustrating_stim/white_00761_941201_fb_edt.bmp","8","110","22"
"html-keyboard-response","202","416075","0.0-19.0-3.21","5c3161130cfe9a00012f71ff","bdp_trlrn","Sun Mar 12 2023 16:25:59 GMT-0400 (Eastern Daylight Time)","629672","Trustworthy,Untrustworthy","","null","","","","feedback","","<div class='trialDiv'><img src='trustrating_stim/white_00761_941201_fb_edt.bmp'><br><font class='baseline'><strong>Michael</strong><p>Received: <strong>20</strong></font> &nbsp; &nbsp; &nbsp; &nbsp; &nbsp; &nbsp;<font class='negOutcome'>Shared back: <strong>0</strong></font></font><div class='respPicDiv'><img src='img/responseButtonOffersNo0_wht.png' class='respPic'></div></div>","null","8","Michael","10","Kept","0.35,0.8","11","0.35","trustrating_stim/white_00761_941201_fb_edt.bmp","8","110","22"
"html-keyboard-response","203","416251","0.0-19.0-1.22","5c3161130cfe9a00012f71ff","bdp_trlrn","Sun Mar 12 2023 16:25:59 GMT-0400 (Eastern Daylight Time)","629672","Trustworthy,Untrustworthy","","174","","","","decision","","<div class='trialDiv'><img src='trustrating_stim/white_00785_941205_fb_edt.bmp'><br><font class='baseline'><strong>Brian</strong><p>Choose number of points to send.</font><div class='respPicDiv'><img src='img/responseButtonOffersNo0L.png' class='respPic'></div></div>","5","8","Brian","6","Kept","0.65,0.35","10","0.65","trustrating_stim/white_00785_941205_fb_edt.bmp","5","115","23"
"html-keyboard-response","204","416502","0.0-19.0-2.22","5c3161130cfe9a00012f71ff","bdp_trlrn","Sun Mar 12 2023 16:25:59 GMT-0400 (Eastern Daylight Time)","629672","Trustworthy,Untrustworthy","","null","","","","decisionFB","","<div class='trialDiv'><img src='trustrating_stim/white_00785_941205_fb_edt.bmp'><br><font class='baseline'><strong>Brian</strong><p>Choose number of points to send.</font><div class='respPicDiv'><img src='img/responseButtonOffersNo0L5.png' class='respPic'></div></div>","null","8","Brian","6","Kept","0.65,0.35","10","0.65","trustrating_stim/white_00785_941205_fb_edt.bmp","5","110","23"
"html-keyboard-response","205","417504","0.0-19.0-3.22","5c3161130cfe9a00012f71ff","bdp_trlrn","Sun Mar 12 2023 16:25:59 GMT-0400 (Eastern Daylight Time)","629672","Trustworthy,Untrustworthy","","null","","","","feedback","","<div class='trialDiv'><img src='trustrating_stim/white_00785_941205_fb_edt.bmp'><br><font class='baseline'><strong>Brian</strong><p>Received: <strong>20</strong></font> &nbsp; &nbsp; &nbsp; &nbsp; &nbsp; &nbsp;<font class='negOutcome'>Shared back: <strong>0</strong></font></font><div class='respPicDiv'><img src='img/responseButtonOffersNo0_wht.png' class='respPic'></div></div>","null","8","Brian","6","Kept","0.65,0.35","10","0.65","trustrating_stim/white_00785_941205_fb_edt.bmp","5","110","23"
"html-keyboard-response","206","417722","0.0-19.0-1.23","5c3161130cfe9a00012f71ff","bdp_trlrn","Sun Mar 12 2023 16:25:59 GMT-0400 (Eastern Daylight Time)","629672","Trustworthy,Untrustworthy","","216","","","","decision","","<div class='trialDiv'><img src='trustrating_stim/white_00807_941205_fb_edt.bmp'><br><font class='baseline'><strong>Sean</strong><p>Choose number of points to send.</font><div class='respPicDiv'><img src='img/responseButtonOffersNo0L.png' class='respPic'></div></div>","3","8","Sean","0","Kept","0.8,0.35","8","0.8","trustrating_stim/white_00807_941205_fb_edt.bmp","2","115","24"
"html-keyboard-response","207","417975","0.0-19.0-2.23","5c3161130cfe9a00012f71ff","bdp_trlrn","Sun Mar 12 2023 16:25:59 GMT-0400 (Eastern Daylight Time)","629672","Trustworthy,Untrustworthy","","null","","","","decisionFB","","<div class='trialDiv'><img src='trustrating_stim/white_00807_941205_fb_edt.bmp'><br><font class='baseline'><strong>Sean</strong><p>Choose number of points to send.</font><div class='respPicDiv'><img src='img/responseButtonOffersNo0L3.png' class='respPic'></div></div>","null","8","Sean","0","Kept","0.8,0.35","8","0.8","trustrating_stim/white_00807_941205_fb_edt.bmp","2","112","24"
"html-keyboard-response","208","418977","0.0-19.0-3.23","5c3161130cfe9a00012f71ff","bdp_trlrn","Sun Mar 12 2023 16:25:59 GMT-0400 (Eastern Daylight Time)","629672","Trustworthy,Untrustworthy","","null","","","","feedback","","<div class='trialDiv'><img src='trustrating_stim/white_00807_941205_fb_edt.bmp'><br><font class='baseline'><strong>Sean</strong><p>Received: <strong>12</strong></font> &nbsp; &nbsp; &nbsp; &nbsp; &nbsp; &nbsp;<font class='negOutcome'>Shared back: <strong>0</strong></font></font><div class='respPicDiv'><img src='img/responseButtonOffersNo0_wht.png' class='respPic'></div></div>","null","8","Sean","0","Kept","0.8,0.35","8","0.8","trustrating_stim/white_00807_941205_fb_edt.bmp","2","112","24"
"html-keyboard-response","209","419181","0.0-19.0-1.24","5c3161130cfe9a00012f71ff","bdp_trlrn","Sun Mar 12 2023 16:25:59 GMT-0400 (Eastern Daylight Time)","629672","Trustworthy,Untrustworthy","","201","","","","decision","","<div class='trialDiv'><img src='trustrating_stim/white_00785_941205_fb_edt.bmp'><br><font class='baseline'><strong>Brian</strong><p>Choose number of points to send.</font><div class='respPicDiv'><img src='img/responseButtonOffersNo0L.png' class='respPic'></div></div>","4","9","Brian","6","Kept","0.65,0.35","10","0.65","trustrating_stim/white_00785_941205_fb_edt.bmp","5","117","25"
"html-keyboard-response","210","419433","0.0-19.0-2.24","5c3161130cfe9a00012f71ff","bdp_trlrn","Sun Mar 12 2023 16:25:59 GMT-0400 (Eastern Daylight Time)","629672","Trustworthy,Untrustworthy","","null","","","","decisionFB","","<div class='trialDiv'><img src='trustrating_stim/white_00785_941205_fb_edt.bmp'><br><font class='baseline'><strong>Brian</strong><p>Choose number of points to send.</font><div class='respPicDiv'><img src='img/responseButtonOffersNo0L4.png' class='respPic'></div></div>","null","9","Brian","6","Kept","0.65,0.35","10","0.65","trustrating_stim/white_00785_941205_fb_edt.bmp","5","113","25"
"html-keyboard-response","211","420436","0.0-19.0-3.24","5c3161130cfe9a00012f71ff","bdp_trlrn","Sun Mar 12 2023 16:25:59 GMT-0400 (Eastern Daylight Time)","629672","Trustworthy,Untrustworthy","","null","","","","feedback","","<div class='trialDiv'><img src='trustrating_stim/white_00785_941205_fb_edt.bmp'><br><font class='baseline'><strong>Brian</strong><p>Received: <strong>16</strong></font> &nbsp; &nbsp; &nbsp; &nbsp; &nbsp; &nbsp;<font class='negOutcome'>Shared back: <strong>0</strong></font></font><div class='respPicDiv'><img src='img/responseButtonOffersNo0_wht.png' class='respPic'></div></div>","null","9","Brian","6","Kept","0.65,0.35","10","0.65","trustrating_stim/white_00785_941205_fb_edt.bmp","5","113","25"
"html-keyboard-response","212","420673","0.0-19.0-1.25","5c3161130cfe9a00012f71ff","bdp_trlrn","Sun Mar 12 2023 16:25:59 GMT-0400 (Eastern Daylight Time)","629672","Trustworthy,Untrustworthy","","235","","","","decision","","<div class='trialDiv'><img src='trustrating_stim/white_00761_941201_fb_edt.bmp'><br><font class='baseline'><strong>Michael</strong><p>Choose number of points to send.</font><div class='respPicDiv'><img src='img/responseButtonOffersNo0L.png' class='respPic'></div></div>","5","9","Michael","10","Kept","0.35,0.8","11","0.35","trustrating_stim/white_00761_941201_fb_edt.bmp","8","118","26"
"html-keyboard-response","213","420925","0.0-19.0-2.25","5c3161130cfe9a00012f71ff","bdp_trlrn","Sun Mar 12 2023 16:25:59 GMT-0400 (Eastern Daylight Time)","629672","Trustworthy,Untrustworthy","","null","","","","decisionFB","","<div class='trialDiv'><img src='trustrating_stim/white_00761_941201_fb_edt.bmp'><br><font class='baseline'><strong>Michael</strong><p>Choose number of points to send.</font><div class='respPicDiv'><img src='img/responseButtonOffersNo0L5.png' class='respPic'></div></div>","null","9","Michael","10","Kept","0.35,0.8","11","0.35","trustrating_stim/white_00761_941201_fb_edt.bmp","8","113","26"
"html-keyboard-response","214","421927","0.0-19.0-3.25","5c3161130cfe9a00012f71ff","bdp_trlrn","Sun Mar 12 2023 16:25:59 GMT-0400 (Eastern Daylight Time)","629672","Trustworthy,Untrustworthy","","null","","","","feedback","","<div class='trialDiv'><img src='trustrating_stim/white_00761_941201_fb_edt.bmp'><br><font class='baseline'><strong>Michael</strong><p>Received: <strong>20</strong></font> &nbsp; &nbsp; &nbsp; &nbsp; &nbsp; &nbsp;<font class='negOutcome'>Shared back: <strong>0</strong></font></font><div class='respPicDiv'><img src='img/responseButtonOffersNo0_wht.png' class='respPic'></div></div>","null","9","Michael","10","Kept","0.35,0.8","11","0.35","trustrating_stim/white_00761_941201_fb_edt.bmp","8","113","26"
"html-keyboard-response","215","423079","0.0-19.0-1.26","5c3161130cfe9a00012f71ff","bdp_trlrn","Sun Mar 12 2023 16:25:59 GMT-0400 (Eastern Daylight Time)","629672","Trustworthy,Untrustworthy","","1150","","","","decision","","<div class='trialDiv'><img src='trustrating_stim/white_00807_941205_fb_edt.bmp'><br><font class='baseline'><strong>Sean</strong><p>Choose number of points to send.</font><div class='respPicDiv'><img src='img/responseButtonOffersNo0L.png' class='respPic'></div></div>","3","9","Sean","0","Kept","0.8,0.35","8","0.8","trustrating_stim/white_00807_941205_fb_edt.bmp","2","118","27"
"html-keyboard-response","216","423331","0.0-19.0-2.26","5c3161130cfe9a00012f71ff","bdp_trlrn","Sun Mar 12 2023 16:25:59 GMT-0400 (Eastern Daylight Time)","629672","Trustworthy,Untrustworthy","","null","","","","decisionFB","","<div class='trialDiv'><img src='trustrating_stim/white_00807_941205_fb_edt.bmp'><br><font class='baseline'><strong>Sean</strong><p>Choose number of points to send.</font><div class='respPicDiv'><img src='img/responseButtonOffersNo0L3.png' class='respPic'></div></div>","null","9","Sean","0","Kept","0.8,0.35","8","0.8","trustrating_stim/white_00807_941205_fb_edt.bmp","2","115","27"
"html-keyboard-response","217","424334","0.0-19.0-3.26","5c3161130cfe9a00012f71ff","bdp_trlrn","Sun Mar 12 2023 16:25:59 GMT-0400 (Eastern Daylight Time)","629672","Trustworthy,Untrustworthy","","null","","","","feedback","","<div class='trialDiv'><img src='trustrating_stim/white_00807_941205_fb_edt.bmp'><br><font class='baseline'><strong>Sean</strong><p>Received: <strong>12</strong></font> &nbsp; &nbsp; &nbsp; &nbsp; &nbsp; &nbsp;<font class='negOutcome'>Shared back: <strong>0</strong></font></font><div class='respPicDiv'><img src='img/responseButtonOffersNo0_wht.png' class='respPic'></div></div>","null","9","Sean","0","Kept","0.8,0.35","8","0.8","trustrating_stim/white_00807_941205_fb_edt.bmp","2","115","27"
"html-keyboard-response","218","424663","0.0-19.0-1.27","5c3161130cfe9a00012f71ff","bdp_trlrn","Sun Mar 12 2023 16:25:59 GMT-0400 (Eastern Daylight Time)","629672","Trustworthy,Untrustworthy","","328","","","","decision","","<div class='trialDiv'><img src='trustrating_stim/white_00785_941205_fb_edt.bmp'><br><font class='baseline'><strong>Brian</strong><p>Choose number of points to send.</font><div class='respPicDiv'><img src='img/responseButtonOffersNo0L.png' class='respPic'></div></div>","4","10","Brian","6","Kept","0.65,0.35","10","0.65","trustrating_stim/white_00785_941205_fb_edt.bmp","5","120","28"
