"trial_type","trial_index","time_elapsed","internal_node_id","subject_id","task","startTime","totalTime","labels","view_history","rt","event","trial","time","trialtype","success","stimulus","key_press","aground","name","faceID","outcome","agenttype","agentswpt","agentcurrpshare","face","avgRating","point_total","round"
"pavlovia","0","3","0.0-0.0","628dec55823f672331c68577","bdp_trlrn","Tue Mar 14 2023 00:40:55 GMT-0400 (Eastern Daylight Time)","533560","Untrustworthy,Trustworthy","","","","","","","","","","","","","","","","","","","",""
"instructions","1","3955","0.0-1.0","628dec55823f672331c68577","bdp_trlrn","Tue Mar 14 2023 00:40:55 GMT-0400 (Eastern Daylight Time)","533560","Untrustworthy,Trustworthy","[{""page_index"":0,""viewing_time"":3952}]","3952","","","","","","","","","","","","","","","","","",""
"","","","","628dec55823f672331c68577","bdp_trlrn","Tue Mar 14 2023 00:40:55 GMT-0400 (Eastern Daylight Time)","533560","Untrustworthy,Trustworthy","","","fullscreenenter","2","7315","fullscreenenter","","","","","","","","","","","","","",""
"fullscreen","2","8301","0.0-2.0","628dec55823f672331c68577","bdp_trlrn","Tue Mar 14 2023 00:40:55 GMT-0400 (Eastern Daylight Time)","533560","Untrustworthy,Trustworthy","","","","","","","true","","","","","","","","","","","","",""
"instructions","3","16182","0.0-4.0","628dec55823f672331c68577","bdp_trlrn","Tue Mar 14 2023 00:40:55 GMT-0400 (Eastern Daylight Time)","533560","Untrustworthy,Trustworthy","[{""page_index"":0,""viewing_time"":4705},{""page_index"":1,""viewing_time"":3174}]","7880","","","","","","","","","","","","","","","","","",""
"instructions","4","17142","0.0-5.0","628dec55823f672331c68577","bdp_trlrn","Tue Mar 14 2023 00:40:55 GMT-0400 (Eastern Daylight Time)","533560","Untrustworthy,Trustworthy","[{""page_index"":0,""viewing_time"":959}]","959","","","","","","","","","","","","","","","","","",""
"image-keyboard-response","5","19567","0.0-6.0-1.0","628dec55823f672331c68577","bdp_trlrn","Tue Mar 14 2023 00:40:55 GMT-0400 (Eastern Daylight Time)","533560","Untrustworthy,Trustworthy","","2321","","","","rating","","trustrating_stim/white_00761_941201_fb_edt.bmp","5","","","","","","","","","","",""
"image-keyboard-response","6","19768","0.0-6.0-2.0","628dec55823f672331c68577","bdp_trlrn","Tue Mar 14 2023 00:40:55 GMT-0400 (Eastern Daylight Time)","533560","Untrustworthy,Trustworthy","","null","","","","ratingFB","","trustrating_stim/white_00761_941201_fb_edt.bmp","null","","","","","","","","","","",""
"image-keyboard-response","7","21501","0.0-6.0-1.1","628dec55823f672331c68577","bdp_trlrn","Tue Mar 14 2023 00:40:55 GMT-0400 (Eastern Daylight Time)","533560","Untrustworthy,Trustworthy","","1628","","","","rating","","trustrating_stim/white_00340_940422_fa_edt.bmp","4","","","","","","","","","","",""
"image-keyboard-response","8","21705","0.0-6.0-2.1","628dec55823f672331c68577","bdp_trlrn","Tue Mar 14 2023 00:40:55 GMT-0400 (Eastern Daylight Time)","533560","Untrustworthy,Trustworthy","","null","","","","ratingFB","","trustrating_stim/white_00340_940422_fa_edt.bmp","null","","","","","","","","","","",""
"image-keyboard-response","9","23378","0.0-6.0-1.2","628dec55823f672331c68577","bdp_trlrn","Tue Mar 14 2023 00:40:55 GMT-0400 (Eastern Daylight Time)","533560","Untrustworthy,Trustworthy","","1569","","","","rating","","trustrating_stim/white_mw056.bmp","3","","","","","","","","","","",""
"image-keyboard-response","10","23581","0.0-6.0-2.2","628dec55823f672331c68577","bdp_trlrn","Tue Mar 14 2023 00:40:55 GMT-0400 (Eastern Daylight Time)","533560","Untrustworthy,Trustworthy","","null","","","","ratingFB","","trustrating_stim/white_mw056.bmp","null","","","","","","","","","","",""
"image-keyboard-response","11","26794","0.0-6.0-1.3","628dec55823f672331c68577","bdp_trlrn","Tue Mar 14 2023 00:40:55 GMT-0400 (Eastern Daylight Time)","533560","Untrustworthy,Trustworthy","","3109","","","","rating","","trustrating_stim/white_mw046.bmp","6","","","","","","","","","","",""
"image-keyboard-response","12","26996","0.0-6.0-2.3","628dec55823f672331c68577","bdp_trlrn","Tue Mar 14 2023 00:40:55 GMT-0400 (Eastern Daylight Time)","533560","Untrustworthy,Trustworthy","","null","","","","ratingFB","","trustrating_stim/white_mw046.bmp","null","","","","","","","","","","",""
"image-keyboard-response","13","29401","0.0-6.0-1.4","628dec55823f672331c68577","bdp_trlrn","Tue Mar 14 2023 00:40:55 GMT-0400 (Eastern Daylight Time)","533560","Untrustworthy,Trustworthy","","2304","","","","rating","","trustrating_stim/white_mw084.bmp","5","","","","","","","","","","",""
"image-keyboard-response","14","29601","0.0-6.0-2.4","628dec55823f672331c68577","bdp_trlrn","Tue Mar 14 2023 00:40:55 GMT-0400 (Eastern Daylight Time)","533560","Untrustworthy,Trustworthy","","null","","","","ratingFB","","trustrating_stim/white_mw084.bmp","null","","","","","","","","","","",""
"image-keyboard-response","15","31641","0.0-6.0-1.5","628dec55823f672331c68577","bdp_trlrn","Tue Mar 14 2023 00:40:55 GMT-0400 (Eastern Daylight Time)","533560","Untrustworthy,Trustworthy","","1937","","","","rating","","trustrating_stim/white_00807_941205_fb_edt.bmp","4","","","","","","","","","","",""
"image-keyboard-response","16","31845","0.0-6.0-2.5","628dec55823f672331c68577","bdp_trlrn","Tue Mar 14 2023 00:40:55 GMT-0400 (Eastern Daylight Time)","533560","Untrustworthy,Trustworthy","","null","","","","ratingFB","","trustrating_stim/white_00807_941205_fb_edt.bmp","null","","","","","","","","","","",""
"image-keyboard-response","17","33618","0.0-6.0-1.6","628dec55823f672331c68577","bdp_trlrn","Tue Mar 14 2023 00:40:55 GMT-0400 (Eastern Daylight Time)","533560","Untrustworthy,Trustworthy","","1668","","","","rating","","trustrating_stim/white_mw071.bmp","2","","","","","","","","","","",""
"image-keyboard-response","18","33820","0.0-6.0-2.6","628dec55823f672331c68577","bdp_trlrn","Tue Mar 14 2023 00:40:55 GMT-0400 (Eastern Daylight Time)","533560","Untrustworthy,Trustworthy","","null","","","","ratingFB","","trustrating_stim/white_mw071.bmp","null","","","","","","","","","","",""
"image-keyboard-response","19","36368","0.0-6.0-1.7","628dec55823f672331c68577","bdp_trlrn","Tue Mar 14 2023 00:40:55 GMT-0400 (Eastern Daylight Time)","533560","Untrustworthy,Trustworthy","","2444","","","","rating","","trustrating_stim/white_00109_931230_fa_edt.bmp","4","","","","","","","","","","",""
"image-keyboard-response","20","36569","0.0-6.0-2.7","628dec55823f672331c68577","bdp_trlrn","Tue Mar 14 2023 00:40:55 GMT-0400 (Eastern Daylight Time)","533560","Untrustworthy,Trustworthy","","null","","","","ratingFB","","trustrating_stim/white_00109_931230_fa_edt.bmp","null","","","","","","","","","","",""
"image-keyboard-response","21","38702","0.0-6.0-1.8","628dec55823f672331c68577","bdp_trlrn","Tue Mar 14 2023 00:40:55 GMT-0400 (Eastern Daylight Time)","533560","Untrustworthy,Trustworthy","","2029","","","","rating","","trustrating_stim/white_00120_931230_fa_edt.bmp","5","","","","","","","","","","",""
"image-keyboard-response","22","38904","0.0-6.0-2.8","628dec55823f672331c68577","bdp_trlrn","Tue Mar 14 2023 00:40:55 GMT-0400 (Eastern Daylight Time)","533560","Untrustworthy,Trustworthy","","null","","","","ratingFB","","trustrating_stim/white_00120_931230_fa_edt.bmp","null","","","","","","","","","","",""
"image-keyboard-response","23","41906","0.0-6.0-1.9","628dec55823f672331c68577","bdp_trlrn","Tue Mar 14 2023 00:40:55 GMT-0400 (Eastern Daylight Time)","533560","Untrustworthy,Trustworthy","","2897","","","","rating","","trustrating_stim/white_00519_940519_fb_edt.bmp","4","","","","","","","","","","",""
"image-keyboard-response","24","42109","0.0-6.0-2.9","628dec55823f672331c68577","bdp_trlrn","Tue Mar 14 2023 00:40:55 GMT-0400 (Eastern Daylight Time)","533560","Untrustworthy,Trustworthy","","null","","","","ratingFB","","trustrating_stim/white_00519_940519_fb_edt.bmp","null","","","","","","","","","","",""
"image-keyboard-response","25","44595","0.0-6.0-1.10","628dec55823f672331c68577","bdp_trlrn","Tue Mar 14 2023 00:40:55 GMT-0400 (Eastern Daylight Time)","533560","Untrustworthy,Trustworthy","","2381","","","","rating","","trustrating_stim/white_mw066.bmp","2","","","","","","","","","","",""
"image-keyboard-response","26","44796","0.0-6.0-2.10","628dec55823f672331c68577","bdp_trlrn","Tue Mar 14 2023 00:40:55 GMT-0400 (Eastern Daylight Time)","533560","Untrustworthy,Trustworthy","","null","","","","ratingFB","","trustrating_stim/white_mw066.bmp","null","","","","","","","","","","",""
"image-keyboard-response","27","46228","0.0-6.0-1.11","628dec55823f672331c68577","bdp_trlrn","Tue Mar 14 2023 00:40:55 GMT-0400 (Eastern Daylight Time)","533560","Untrustworthy,Trustworthy","","1327","","","","rating","","trustrating_stim/white_mw089.bmp","1","","","","","","","","","","",""
"image-keyboard-response","28","46429","0.0-6.0-2.11","628dec55823f672331c68577","bdp_trlrn","Tue Mar 14 2023 00:40:55 GMT-0400 (Eastern Daylight Time)","533560","Untrustworthy,Trustworthy","","null","","","","ratingFB","","trustrating_stim/white_mw089.bmp","null","","","","","","","","","","",""
"image-keyboard-response","29","48562","0.0-6.0-1.12","628dec55823f672331c68577","bdp_trlrn","Tue Mar 14 2023 00:40:55 GMT-0400 (Eastern Daylight Time)","533560","Untrustworthy,Trustworthy","","2029","","","","rating","","trustrating_stim/white_00129_931230_fb_edt.bmp","6","","","","","","","","","","",""
"image-keyboard-response","30","48765","0.0-6.0-2.12","628dec55823f672331c68577","bdp_trlrn","Tue Mar 14 2023 00:40:55 GMT-0400 (Eastern Daylight Time)","533560","Untrustworthy,Trustworthy","","null","","","","ratingFB","","trustrating_stim/white_00129_931230_fb_edt.bmp","null","","","","","","","","","","",""
"image-keyboard-response","31","51206","0.0-6.0-1.13","628dec55823f672331c68577","bdp_trlrn","Tue Mar 14 2023 00:40:55 GMT-0400 (Eastern Daylight Time)","533560","Untrustworthy,Trustworthy","","2337","","","","rating","","trustrating_stim/white_mw035.bmp","5","","","","","","","","","","",""
"image-keyboard-response","32","51409","0.0-6.0-2.13","628dec55823f672331c68577","bdp_trlrn","Tue Mar 14 2023 00:40:55 GMT-0400 (Eastern Daylight Time)","533560","Untrustworthy,Trustworthy","","null","","","","ratingFB","","trustrating_stim/white_mw035.bmp","null","","","","","","","","","","",""
"image-keyboard-response","33","54251","0.0-6.0-1.14","628dec55823f672331c68577","bdp_trlrn","Tue Mar 14 2023 00:40:55 GMT-0400 (Eastern Daylight Time)","533560","Untrustworthy,Trustworthy","","2738","","","","rating","","trustrating_stim/white_00898_960530_fa_edt.bmp","6","","","","","","","","","","",""
"image-keyboard-response","34","54453","0.0-6.0-2.14","628dec55823f672331c68577","bdp_trlrn","Tue Mar 14 2023 00:40:55 GMT-0400 (Eastern Daylight Time)","533560","Untrustworthy,Trustworthy","","null","","","","ratingFB","","trustrating_stim/white_00898_960530_fa_edt.bmp","null","","","","","","","","","","",""
"image-keyboard-response","35","56303","0.0-6.0-1.15","628dec55823f672331c68577","bdp_trlrn","Tue Mar 14 2023 00:40:55 GMT-0400 (Eastern Daylight Time)","533560","Untrustworthy,Trustworthy","","1747","","","","rating","","trustrating_stim/white_00659_941121_fa_edt.bmp","4","","","","","","","","","","",""
"image-keyboard-response","36","56504","0.0-6.0-2.15","628dec55823f672331c68577","bdp_trlrn","Tue Mar 14 2023 00:40:55 GMT-0400 (Eastern Daylight Time)","533560","Untrustworthy,Trustworthy","","null","","","","ratingFB","","trustrating_stim/white_00659_941121_fa_edt.bmp","null","","","","","","","","","","",""
"image-keyboard-response","37","58528","0.0-6.0-1.16","628dec55823f672331c68577","bdp_trlrn","Tue Mar 14 2023 00:40:55 GMT-0400 (Eastern Daylight Time)","533560","Untrustworthy,Trustworthy","","1922","","","","rating","","trustrating_stim/white_mw053.bmp","4","","","","","","","","","","",""
"image-keyboard-response","38","58729","0.0-6.0-2.16","628dec55823f672331c68577","bdp_trlrn","Tue Mar 14 2023 00:40:55 GMT-0400 (Eastern Daylight Time)","533560","Untrustworthy,Trustworthy","","null","","","","ratingFB","","trustrating_stim/white_mw053.bmp","null","","","","","","","","","","",""
"image-keyboard-response","39","60905","0.0-6.0-1.17","628dec55823f672331c68577","bdp_trlrn","Tue Mar 14 2023 00:40:55 GMT-0400 (Eastern Daylight Time)","533560","Untrustworthy,Trustworthy","","2072","","","","rating","","trustrating_stim/white_00299_940422_fa_edt.bmp","5","","","","","","","","","","",""
"image-keyboard-response","40","61109","0.0-6.0-2.17","628dec55823f672331c68577","bdp_trlrn","Tue Mar 14 2023 00:40:55 GMT-0400 (Eastern Daylight Time)","533560","Untrustworthy,Trustworthy","","null","","","","ratingFB","","trustrating_stim/white_00299_940422_fa_edt.bmp","null","","","","","","","","","","",""
"image-keyboard-response","41","63362","0.0-6.0-1.18","628dec55823f672331c68577","bdp_trlrn","Tue Mar 14 2023 00:40:55 GMT-0400 (Eastern Daylight Time)","533560","Untrustworthy,Trustworthy","","2149","","","","rating","","trustrating_stim/white_00757_941201_fa_edt.bmp","4","","","","","","","","","","",""
"image-keyboard-response","42","63564","0.0-6.0-2.18","628dec55823f672331c68577","bdp_trlrn","Tue Mar 14 2023 00:40:55 GMT-0400 (Eastern Daylight Time)","533560","Untrustworthy,Trustworthy","","null","","","","ratingFB","","trustrating_stim/white_00757_941201_fa_edt.bmp","null","","","","","","","","","","",""
"image-keyboard-response","43","64904","0.0-6.0-1.19","628dec55823f672331c68577","bdp_trlrn","Tue Mar 14 2023 00:40:55 GMT-0400 (Eastern Daylight Time)","533560","Untrustworthy,Trustworthy","","1235","","","","rating","","trustrating_stim/white_mw060.bmp","4","","","","","","","","","","",""
"image-keyboard-response","44","65105","0.0-6.0-2.19","628dec55823f672331c68577","bdp_trlrn","Tue Mar 14 2023 00:40:55 GMT-0400 (Eastern Daylight Time)","533560","Untrustworthy,Trustworthy","","null","","","","ratingFB","","trustrating_stim/white_mw060.bmp","null","","","","","","","","","","",""
"image-keyboard-response","45","67117","0.0-6.0-1.20","628dec55823f672331c68577","bdp_trlrn","Tue Mar 14 2023 00:40:55 GMT-0400 (Eastern Daylight Time)","533560","Untrustworthy,Trustworthy","","1909","","","","rating","","trustrating_stim/white_mw063.bmp","7","","","","","","","","","","",""
"image-keyboard-response","46","67321","0.0-6.0-2.20","628dec55823f672331c68577","bdp_trlrn","Tue Mar 14 2023 00:40:55 GMT-0400 (Eastern Daylight Time)","533560","Untrustworthy,Trustworthy","","null","","","","ratingFB","","trustrating_stim/white_mw063.bmp","null","","","","","","","","","","",""
"image-keyboard-response","47","68766","0.0-6.0-1.21","628dec55823f672331c68577","bdp_trlrn","Tue Mar 14 2023 00:40:55 GMT-0400 (Eastern Daylight Time)","533560","Untrustworthy,Trustworthy","","1341","","","","rating","","trustrating_stim/white_00577_940928_fa_edt.bmp","7","","","","","","","","","","",""
"image-keyboard-response","48","68969","0.0-6.0-2.21","628dec55823f672331c68577","bdp_trlrn","Tue Mar 14 2023 00:40:55 GMT-0400 (Eastern Daylight Time)","533560","Untrustworthy,Trustworthy","","null","","","","ratingFB","","trustrating_stim/white_00577_940928_fa_edt.bmp","null","","","","","","","","","","",""
"image-keyboard-response","49","70239","0.0-6.0-1.22","628dec55823f672331c68577","bdp_trlrn","Tue Mar 14 2023 00:40:55 GMT-0400 (Eastern Daylight Time)","533560","Untrustworthy,Trustworthy","","1167","","","","rating","","trustrating_stim/white_mw097.bmp","2","","","","","","","","","","",""
"image-keyboard-response","50","70440","0.0-6.0-2.22","628dec55823f672331c68577","bdp_trlrn","Tue Mar 14 2023 00:40:55 GMT-0400 (Eastern Daylight Time)","533560","Untrustworthy,Trustworthy","","null","","","","ratingFB","","trustrating_stim/white_mw097.bmp","null","","","","","","","","","","",""
"image-keyboard-response","51","71831","0.0-6.0-1.23","628dec55823f672331c68577","bdp_trlrn","Tue Mar 14 2023 00:40:55 GMT-0400 (Eastern Daylight Time)","533560","Untrustworthy,Trustworthy","","1290","","","","rating","","trustrating_stim/white_00785_941205_fb_edt.bmp","2","","","","","","","","","","",""
"image-keyboard-response","52","72032","0.0-6.0-2.23","628dec55823f672331c68577","bdp_trlrn","Tue Mar 14 2023 00:40:55 GMT-0400 (Eastern Daylight Time)","533560","Untrustworthy,Trustworthy","","null","","","","ratingFB","","trustrating_stim/white_00785_941205_fb_edt.bmp","null","","","","","","","","","","",""
"image-keyboard-response","53","73007","0.0-6.0-1.24","628dec55823f672331c68577","bdp_trlrn","Tue Mar 14 2023 00:40:55 GMT-0400 (Eastern Daylight Time)","533560","Untrustworthy,Trustworthy","","869","","","","rating","","trustrating_stim/white_mw033.bmp","2","","","","","","","","","","",""
"image-keyboard-response","54","73209","0.0-6.0-2.24","628dec55823f672331c68577","bdp_trlrn","Tue Mar 14 2023 00:40:55 GMT-0400 (Eastern Daylight Time)","533560","Untrustworthy,Trustworthy","","null","","","","ratingFB","","trustrating_stim/white_mw033.bmp","null","","","","","","","","","","",""
"image-keyboard-response","55","74198","0.0-6.0-1.25","628dec55823f672331c68577","bdp_trlrn","Tue Mar 14 2023 00:40:55 GMT-0400 (Eastern Daylight Time)","533560","Untrustworthy,Trustworthy","","886","","","","rating","","trustrating_stim/white_mw099.bmp","1","","","","","","","","","","",""
"image-keyboard-response","56","74400","0.0-6.0-2.25","628dec55823f672331c68577","bdp_trlrn","Tue Mar 14 2023 00:40:55 GMT-0400 (Eastern Daylight Time)","533560","Untrustworthy,Trustworthy","","null","","","","ratingFB","","trustrating_stim/white_mw099.bmp","null","","","","","","","","","","",""
"image-keyboard-response","57","76306","0.0-6.0-1.26","628dec55823f672331c68577","bdp_trlrn","Tue Mar 14 2023 00:40:55 GMT-0400 (Eastern Daylight Time)","533560","Untrustworthy,Trustworthy","","1800","","","","rating","","trustrating_stim/white_mw049.bmp","8","","","","","","","","","","",""
"image-keyboard-response","58","76508","0.0-6.0-2.26","628dec55823f672331c68577","bdp_trlrn","Tue Mar 14 2023 00:40:55 GMT-0400 (Eastern Daylight Time)","533560","Untrustworthy,Trustworthy","","null","","","","ratingFB","","trustrating_stim/white_mw049.bmp","null","","","","","","","","","","",""
"image-keyboard-response","59","77935","0.0-6.0-1.27","628dec55823f672331c68577","bdp_trlrn","Tue Mar 14 2023 00:40:55 GMT-0400 (Eastern Daylight Time)","533560","Untrustworthy,Trustworthy","","1322","","","","rating","","trustrating_stim/white_mw048.bmp","3","","","","","","","","","","",""
"image-keyboard-response","60","78137","0.0-6.0-2.27","628dec55823f672331c68577","bdp_trlrn","Tue Mar 14 2023 00:40:55 GMT-0400 (Eastern Daylight Time)","533560","Untrustworthy,Trustworthy","","null","","","","ratingFB","","trustrating_stim/white_mw048.bmp","null","","","","","","","","","","",""
"image-keyboard-response","61","80891","0.0-6.0-1.28","628dec55823f672331c68577","bdp_trlrn","Tue Mar 14 2023 00:40:55 GMT-0400 (Eastern Daylight Time)","533560","Untrustworthy,Trustworthy","","2650","","","","rating","","trustrating_stim/white_00223_940128_fb_edt.bmp","2","","","","","","","","","","",""
"image-keyboard-response","62","81093","0.0-6.0-2.28","628dec55823f672331c68577","bdp_trlrn","Tue Mar 14 2023 00:40:55 GMT-0400 (Eastern Daylight Time)","533560","Untrustworthy,Trustworthy","","null","","","","ratingFB","","trustrating_stim/white_00223_940128_fb_edt.bmp","null","","","","","","","","","","",""
"image-keyboard-response","63","82674","0.0-6.0-1.29","628dec55823f672331c68577","bdp_trlrn","Tue Mar 14 2023 00:40:55 GMT-0400 (Eastern Daylight Time)","533560","Untrustworthy,Trustworthy","","1477","","","","rating","","trustrating_stim/white_00602_940928_fb_edt.bmp","6","","","","","","","","","","",""
"image-keyboard-response","64","82876","0.0-6.0-2.29","628dec55823f672331c68577","bdp_trlrn","Tue Mar 14 2023 00:40:55 GMT-0400 (Eastern Daylight Time)","533560","Untrustworthy,Trustworthy","","null","","","","ratingFB","","trustrating_stim/white_00602_940928_fb_edt.bmp","null","","","","","","","","","","",""
"image-keyboard-response","65","84093","0.0-6.0-1.30","628dec55823f672331c68577","bdp_trlrn","Tue Mar 14 2023 00:40:55 GMT-0400 (Eastern Daylight Time)","533560","Untrustworthy,Trustworthy","","1112","","","","rating","","trustrating_stim/white_mw063.bmp","4","","","","","","","","","","",""
"image-keyboard-response","66","84296","0.0-6.0-2.30","628dec55823f672331c68577","bdp_trlrn","Tue Mar 14 2023 00:40:55 GMT-0400 (Eastern Daylight Time)","533560","Untrustworthy,Trustworthy","","null","","","","ratingFB","","trustrating_stim/white_mw063.bmp","null","","","","","","","","","","",""
"image-keyboard-response","67","85948","0.0-6.0-1.31","628dec55823f672331c68577","bdp_trlrn","Tue Mar 14 2023 00:40:55 GMT-0400 (Eastern Daylight Time)","533560","Untrustworthy,Trustworthy","","1547","","","","rating","","trustrating_stim/white_mw033.bmp","3","","","","","","","","","","",""
"image-keyboard-response","68","86152","0.0-6.0-2.31","628dec55823f672331c68577","bdp_trlrn","Tue Mar 14 2023 00:40:55 GMT-0400 (Eastern Daylight Time)","533560","Untrustworthy,Trustworthy","","null","","","","ratingFB","","trustrating_stim/white_mw033.bmp","null","","","","","","","","","","",""
"image-keyboard-response","69","87158","0.0-6.0-1.32","628dec55823f672331c68577","bdp_trlrn","Tue Mar 14 2023 00:40:55 GMT-0400 (Eastern Daylight Time)","533560","Untrustworthy,Trustworthy","","901","","","","rating","","trustrating_stim/white_00340_940422_fa_edt.bmp","3","","","","","","","","","","",""
"image-keyboard-response","70","87361","0.0-6.0-2.32","628dec55823f672331c68577","bdp_trlrn","Tue Mar 14 2023 00:40:55 GMT-0400 (Eastern Daylight Time)","533560","Untrustworthy,Trustworthy","","null","","","","ratingFB","","trustrating_stim/white_00340_940422_fa_edt.bmp","null","","","","","","","","","","",""
"image-keyboard-response","71","88386","0.0-6.0-1.33","628dec55823f672331c68577","bdp_trlrn","Tue Mar 14 2023 00:40:55 GMT-0400 (Eastern Daylight Time)","533560","Untrustworthy,Trustworthy","","921","","","","rating","","trustrating_stim/white_00299_940422_fa_edt.bmp","2","","","","","","","","","","",""
"image-keyboard-response","72","88589","0.0-6.0-2.33","628dec55823f672331c68577","bdp_trlrn","Tue Mar 14 2023 00:40:55 GMT-0400 (Eastern Daylight Time)","533560","Untrustworthy,Trustworthy","","null","","","","ratingFB","","trustrating_stim/white_00299_940422_fa_edt.bmp","null","","","","","","","","","","",""
"image-keyboard-response","73","90222","0.0-6.0-1.34","628dec55823f672331c68577","bdp_trlrn","Tue Mar 14 2023 00:40:55 GMT-0400 (Eastern Daylight Time)","533560","Untrustworthy,Trustworthy","","1530","","","","rating","","trustrating_stim/white_mw056.bmp","2","","","","","","","","","","",""
"image-keyboard-response","74","90425","0.0-6.0-2.34","628dec55823f672331c68577","bdp_trlrn","Tue Mar 14 2023 00:40:55 GMT-0400 (Eastern Daylight Time)","533560","Untrustworthy,Trustworthy","","null","","","","ratingFB","","trustrating_stim/white_mw056.bmp","null","","","","","","","","","","",""
"image-keyboard-response","75","91457","0.0-6.0-1.35","628dec55823f672331c68577","bdp_trlrn","Tue Mar 14 2023 00:40:55 GMT-0400 (Eastern Daylight Time)","533560","Untrustworthy,Trustworthy","","928","","","","rating","","trustrating_stim/white_mw048.bmp","1","","","","","","","","","","",""
"image-keyboard-response","76","91661","0.0-6.0-2.35","628dec55823f672331c68577","bdp_trlrn","Tue Mar 14 2023 00:40:55 GMT-0400 (Eastern Daylight Time)","533560","Untrustworthy,Trustworthy","","null","","","","ratingFB","","trustrating_stim/white_mw048.bmp","null","","","","","","","","","","",""
"image-keyboard-response","77","92954","0.0-6.0-1.36","628dec55823f672331c68577","bdp_trlrn","Tue Mar 14 2023 00:40:55 GMT-0400 (Eastern Daylight Time)","533560","Untrustworthy,Trustworthy","","1189","","","","rating","","trustrating_stim/white_mw099.bmp","2","","","","","","","","","","",""
"image-keyboard-response","78","93156","0.0-6.0-2.36","628dec55823f672331c68577","bdp_trlrn","Tue Mar 14 2023 00:40:55 GMT-0400 (Eastern Daylight Time)","533560","Untrustworthy,Trustworthy","","null","","","","ratingFB","","trustrating_stim/white_mw099.bmp","null","","","","","","","","","","",""
"image-keyboard-response","79","94856","0.0-6.0-1.37","628dec55823f672331c68577","bdp_trlrn","Tue Mar 14 2023 00:40:55 GMT-0400 (Eastern Daylight Time)","533560","Untrustworthy,Trustworthy","","1595","","","","rating","","trustrating_stim/white_00129_931230_fb_edt.bmp","7","","","","","","","","","","",""
"image-keyboard-response","80","95061","0.0-6.0-2.37","628dec55823f672331c68577","bdp_trlrn","Tue Mar 14 2023 00:40:55 GMT-0400 (Eastern Daylight Time)","533560","Untrustworthy,Trustworthy","","null","","","","ratingFB","","trustrating_stim/white_00129_931230_fb_edt.bmp","null","","","","","","","","","","",""
"image-keyboard-response","81","96819","0.0-6.0-1.38","628dec55823f672331c68577","bdp_trlrn","Tue Mar 14 2023 00:40:55 GMT-0400 (Eastern Daylight Time)","533560","Untrustworthy,Trustworthy","","1653","","","","rating","","trustrating_stim/white_00602_940928_fb_edt.bmp","6","","","","","","","","","","",""
"image-keyboard-response","82","97021","0.0-6.0-2.38","628dec55823f672331c68577","bdp_trlrn","Tue Mar 14 2023 00:40:55 GMT-0400 (Eastern Daylight Time)","533560","Untrustworthy,Trustworthy","","null","","","","ratingFB","","trustrating_stim/white_00602_940928_fb_edt.bmp","null","","","","","","","","","","",""
"image-keyboard-response","83","98077","0.0-6.0-1.39","628dec55823f672331c68577","bdp_trlrn","Tue Mar 14 2023 00:40:55 GMT-0400 (Eastern Daylight Time)","533560","Untrustworthy,Trustworthy","","953","","","","rating","","trustrating_stim/white_mw089.bmp","2","","","","","","","","","","",""
"image-keyboard-response","84","98281","0.0-6.0-2.39","628dec55823f672331c68577","bdp_trlrn","Tue Mar 14 2023 00:40:55 GMT-0400 (Eastern Daylight Time)","533560","Untrustworthy,Trustworthy","","null","","","","ratingFB","","trustrating_stim/white_mw089.bmp","null","","","","","","","","","","",""
"image-keyboard-response","85","98441","0.0-6.0-1.40","628dec55823f672331c68577","bdp_trlrn","Tue Mar 14 2023 00:40:55 GMT-0400 (Eastern Daylight Time)","533560","Untrustworthy,Trustworthy","","57","","","","rating","","trustrating_stim/white_00109_931230_fa_edt.bmp","2","","","","","","","","","","",""
"image-keyboard-response","86","98645","0.0-6.0-2.40","628dec55823f672331c68577","bdp_trlrn","Tue Mar 14 2023 00:40:55 GMT-0400 (Eastern Daylight Time)","533560","Untrustworthy,Trustworthy","","null","","","","ratingFB","","trustrating_stim/white_00109_931230_fa_edt.bmp","null","","","","","","","","","","",""
"image-keyboard-response","87","100030","0.0-6.0-1.41","628dec55823f672331c68577","bdp_trlrn","Tue Mar 14 2023 00:40:55 GMT-0400 (Eastern Daylight Time)","533560","Untrustworthy,Trustworthy","","1281","","","","rating","","trustrating_stim/white_00659_941121_fa_edt.bmp","2","","","","","","","","","","",""
"image-keyboard-response","88","100233","0.0-6.0-2.41","628dec55823f672331c68577","bdp_trlrn","Tue Mar 14 2023 00:40:55 GMT-0400 (Eastern Daylight Time)","533560","Untrustworthy,Trustworthy","","null","","","","ratingFB","","trustrating_stim/white_00659_941121_fa_edt.bmp","null","","","","","","","","","","",""
"image-keyboard-response","89","101639","0.0-6.0-1.42","628dec55823f672331c68577","bdp_trlrn","Tue Mar 14 2023 00:40:55 GMT-0400 (Eastern Daylight Time)","533560","Untrustworthy,Trustworthy","","1303","","","","rating","","trustrating_stim/white_00785_941205_fb_edt.bmp","3","","","","","","","","","","",""
"image-keyboard-response","90","101841","0.0-6.0-2.42","628dec55823f672331c68577","bdp_trlrn","Tue Mar 14 2023 00:40:55 GMT-0400 (Eastern Daylight Time)","533560","Untrustworthy,Trustworthy","","null","","","","ratingFB","","trustrating_stim/white_00785_941205_fb_edt.bmp","null","","","","","","","","","","",""
"image-keyboard-response","91","103166","0.0-6.0-1.43","628dec55823f672331c68577","bdp_trlrn","Tue Mar 14 2023 00:40:55 GMT-0400 (Eastern Daylight Time)","533560","Untrustworthy,Trustworthy","","1225","","","","rating","","trustrating_stim/white_mw097.bmp","2","","","","","","","","","","",""
"image-keyboard-response","92","103369","0.0-6.0-2.43","628dec55823f672331c68577","bdp_trlrn","Tue Mar 14 2023 00:40:55 GMT-0400 (Eastern Daylight Time)","533560","Untrustworthy,Trustworthy","","null","","","","ratingFB","","trustrating_stim/white_mw097.bmp","null","","","","","","","","","","",""
"image-keyboard-response","93","105457","0.0-6.0-1.44","628dec55823f672331c68577","bdp_trlrn","Tue Mar 14 2023 00:40:55 GMT-0400 (Eastern Daylight Time)","533560","Untrustworthy,Trustworthy","","1984","","","","rating","","trustrating_stim/white_mw066.bmp","5","","","","","","","","","","",""
"image-keyboard-response","94","105660","0.0-6.0-2.44","628dec55823f672331c68577","bdp_trlrn","Tue Mar 14 2023 00:40:55 GMT-0400 (Eastern Daylight Time)","533560","Untrustworthy,Trustworthy","","null","","","","ratingFB","","trustrating_stim/white_mw066.bmp","null","","","","","","","","","","",""
"image-keyboard-response","95","107142","0.0-6.0-1.45","628dec55823f672331c68577","bdp_trlrn","Tue Mar 14 2023 00:40:55 GMT-0400 (Eastern Daylight Time)","533560","Untrustworthy,Trustworthy","","1377","","","","rating","","trustrating_stim/white_00223_940128_fb_edt.bmp","2","","","","","","","","","","",""
"image-keyboard-response","96","107345","0.0-6.0-2.45","628dec55823f672331c68577","bdp_trlrn","Tue Mar 14 2023 00:40:55 GMT-0400 (Eastern Daylight Time)","533560","Untrustworthy,Trustworthy","","null","","","","ratingFB","","trustrating_stim/white_00223_940128_fb_edt.bmp","null","","","","","","","","","","",""
"image-keyboard-response","97","108847","0.0-6.0-1.46","628dec55823f672331c68577","bdp_trlrn","Tue Mar 14 2023 00:40:55 GMT-0400 (Eastern Daylight Time)","533560","Untrustworthy,Trustworthy","","1399","","","","rating","","trustrating_stim/white_mw071.bmp","1","","","","","","","","","","",""
"image-keyboard-response","98","109048","0.0-6.0-2.46","628dec55823f672331c68577","bdp_trlrn","Tue Mar 14 2023 00:40:55 GMT-0400 (Eastern Daylight Time)","533560","Untrustworthy,Trustworthy","","null","","","","ratingFB","","trustrating_stim/white_mw071.bmp","null","","","","","","","","","","",""
"image-keyboard-response","99","110679","0.0-6.0-1.47","628dec55823f672331c68577","bdp_trlrn","Tue Mar 14 2023 00:40:55 GMT-0400 (Eastern Daylight Time)","533560","Untrustworthy,Trustworthy","","1527","","","","rating","","trustrating_stim/white_mw049.bmp","2","","","","","","","","","","",""
"image-keyboard-response","100","110880","0.0-6.0-2.47","628dec55823f672331c68577","bdp_trlrn","Tue Mar 14 2023 00:40:55 GMT-0400 (Eastern Daylight Time)","533560","Untrustworthy,Trustworthy","","null","","","","ratingFB","","trustrating_stim/white_mw049.bmp","null","","","","","","","","","","",""
"image-keyboard-response","101","112860","0.0-6.0-1.48","628dec55823f672331c68577","bdp_trlrn","Tue Mar 14 2023 00:40:55 GMT-0400 (Eastern Daylight Time)","533560","Untrustworthy,Trustworthy","","1875","","","","rating","","trustrating_stim/white_mw060.bmp","3","","","","","","","","","","",""
"image-keyboard-response","102","113061","0.0-6.0-2.48","628dec55823f672331c68577","bdp_trlrn","Tue Mar 14 2023 00:40:55 GMT-0400 (Eastern Daylight Time)","533560","Untrustworthy,Trustworthy","","null","","","","ratingFB","","trustrating_stim/white_mw060.bmp","null","","","","","","","","","","",""
"image-keyboard-response","103","116034","0.0-6.0-1.49","628dec55823f672331c68577","bdp_trlrn","Tue Mar 14 2023 00:40:55 GMT-0400 (Eastern Daylight Time)","533560","Untrustworthy,Trustworthy","","2870","","","","rating","","trustrating_stim/white_mw053.bmp","6","","","","","","","","","","",""
"image-keyboard-response","104","116237","0.0-6.0-2.49","628dec55823f672331c68577","bdp_trlrn","Tue Mar 14 2023 00:40:55 GMT-0400 (Eastern Daylight Time)","533560","Untrustworthy,Trustworthy","","null","","","","ratingFB","","trustrating_stim/white_mw053.bmp","null","","","","","","","","","","",""
"image-keyboard-response","105","119486","0.0-6.0-1.50","628dec55823f672331c68577","bdp_trlrn","Tue Mar 14 2023 00:40:55 GMT-0400 (Eastern Daylight Time)","533560","Untrustworthy,Trustworthy","","3145","","","","rating","","trustrating_stim/white_00761_941201_fb_edt.bmp","6","","","","","","","","","","",""
"image-keyboard-response","106","119688","0.0-6.0-2.50","628dec55823f672331c68577","bdp_trlrn","Tue Mar 14 2023 00:40:55 GMT-0400 (Eastern Daylight Time)","533560","Untrustworthy,Trustworthy","","null","","","","ratingFB","","trustrating_stim/white_00761_941201_fb_edt.bmp","null","","","","","","","","","","",""
"image-keyboard-response","107","120780","0.0-6.0-1.51","628dec55823f672331c68577","bdp_trlrn","Tue Mar 14 2023 00:40:55 GMT-0400 (Eastern Daylight Time)","533560","Untrustworthy,Trustworthy","","987","","","","rating","","trustrating_stim/white_mw046.bmp","2","","","","","","","","","","",""
"image-keyboard-response","108","120980","0.0-6.0-2.51","628dec55823f672331c68577","bdp_trlrn","Tue Mar 14 2023 00:40:55 GMT-0400 (Eastern Daylight Time)","533560","Untrustworthy,Trustworthy","","null","","","","ratingFB","","trustrating_stim/white_mw046.bmp","null","","","","","","","","","","",""
"image-keyboard-response","109","122578","0.0-6.0-1.52","628dec55823f672331c68577","bdp_trlrn","Tue Mar 14 2023 00:40:55 GMT-0400 (Eastern Daylight Time)","533560","Untrustworthy,Trustworthy","","1493","","","","rating","","trustrating_stim/white_mw084.bmp","4","","","","","","","","","","",""
"image-keyboard-response","110","122781","0.0-6.0-2.52","628dec55823f672331c68577","bdp_trlrn","Tue Mar 14 2023 00:40:55 GMT-0400 (Eastern Daylight Time)","533560","Untrustworthy,Trustworthy","","null","","","","ratingFB","","trustrating_stim/white_mw084.bmp","null","","","","","","","","","","",""
"image-keyboard-response","111","124306","0.0-6.0-1.53","628dec55823f672331c68577","bdp_trlrn","Tue Mar 14 2023 00:40:55 GMT-0400 (Eastern Daylight Time)","533560","Untrustworthy,Trustworthy","","1422","","","","rating","","trustrating_stim/white_00120_931230_fa_edt.bmp","5","","","","","","","","","","",""
"image-keyboard-response","112","124509","0.0-6.0-2.53","628dec55823f672331c68577","bdp_trlrn","Tue Mar 14 2023 00:40:55 GMT-0400 (Eastern Daylight Time)","533560","Untrustworthy,Trustworthy","","null","","","","ratingFB","","trustrating_stim/white_00120_931230_fa_edt.bmp","null","","","","","","","","","","",""
"image-keyboard-response","113","125917","0.0-6.0-1.54","628dec55823f672331c68577","bdp_trlrn","Tue Mar 14 2023 00:40:55 GMT-0400 (Eastern Daylight Time)","533560","Untrustworthy,Trustworthy","","1304","","","","rating","","trustrating_stim/white_00577_940928_fa_edt.bmp","3","","","","","","","","","","",""
"image-keyboard-response","114","126121","0.0-6.0-2.54","628dec55823f672331c68577","bdp_trlrn","Tue Mar 14 2023 00:40:55 GMT-0400 (Eastern Daylight Time)","533560","Untrustworthy,Trustworthy","","null","","","","ratingFB","","trustrating_stim/white_00577_940928_fa_edt.bmp","null","","","","","","","","","","",""
"image-keyboard-response","115","127678","0.0-6.0-1.55","628dec55823f672331c68577","bdp_trlrn","Tue Mar 14 2023 00:40:55 GMT-0400 (Eastern Daylight Time)","533560","Untrustworthy,Trustworthy","","1453","","","","rating","","trustrating_stim/white_00898_960530_fa_edt.bmp","7","","","","","","","","","","",""
"image-keyboard-response","116","127881","0.0-6.0-2.55","628dec55823f672331c68577","bdp_trlrn","Tue Mar 14 2023 00:40:55 GMT-0400 (Eastern Daylight Time)","533560","Untrustworthy,Trustworthy","","null","","","","ratingFB","","trustrating_stim/white_00898_960530_fa_edt.bmp","null","","","","","","","","","","",""
"image-keyboard-response","117","129350","0.0-6.0-1.56","628dec55823f672331c68577","bdp_trlrn","Tue Mar 14 2023 00:40:55 GMT-0400 (Eastern Daylight Time)","533560","Untrustworthy,Trustworthy","","1364","","","","rating","","trustrating_stim/white_mw035.bmp","3","","","","","","","","","","",""
"image-keyboard-response","118","129553","0.0-6.0-2.56","628dec55823f672331c68577","bdp_trlrn","Tue Mar 14 2023 00:40:55 GMT-0400 (Eastern Daylight Time)","533560","Untrustworthy,Trustworthy","","null","","","","ratingFB","","trustrating_stim/white_mw035.bmp","null","","","","","","","","","","",""
"image-keyboard-response","119","130681","0.0-6.0-1.57","628dec55823f672331c68577","bdp_trlrn","Tue Mar 14 2023 00:40:55 GMT-0400 (Eastern Daylight Time)","533560","Untrustworthy,Trustworthy","","1023","","","","rating","","trustrating_stim/white_00807_941205_fb_edt.bmp","3","","","","","","","","","","",""
"image-keyboard-response","120","130884","0.0-6.0-2.57","628dec55823f672331c68577","bdp_trlrn","Tue Mar 14 2023 00:40:55 GMT-0400 (Eastern Daylight Time)","533560","Untrustworthy,Trustworthy","","null","","","","ratingFB","","trustrating_stim/white_00807_941205_fb_edt.bmp","null","","","","","","","","","","",""
"image-keyboard-response","121","132160","0.0-6.0-1.58","628dec55823f672331c68577","bdp_trlrn","Tue Mar 14 2023 00:40:55 GMT-0400 (Eastern Daylight Time)","533560","Untrustworthy,Trustworthy","","1172","","","","rating","","trustrating_stim/white_00757_941201_fa_edt.bmp","2","","","","","","","","","","",""
"image-keyboard-response","122","132365","0.0-6.0-2.58","628dec55823f672331c68577","bdp_trlrn","Tue Mar 14 2023 00:40:55 GMT-0400 (Eastern Daylight Time)","533560","Untrustworthy,Trustworthy","","null","","","","ratingFB","","trustrating_stim/white_00757_941201_fa_edt.bmp","null","","","","","","","","","","",""
"image-keyboard-response","123","134169","0.0-6.0-1.59","628dec55823f672331c68577","bdp_trlrn","Tue Mar 14 2023 00:40:55 GMT-0400 (Eastern Daylight Time)","533560","Untrustworthy,Trustworthy","","1701","","","","rating","","trustrating_stim/white_00519_940519_fb_edt.bmp","6","","","","","","","","","","",""
"image-keyboard-response","124","134373","0.0-6.0-2.59","628dec55823f672331c68577","bdp_trlrn","Tue Mar 14 2023 00:40:55 GMT-0400 (Eastern Daylight Time)","533560","Untrustworthy,Trustworthy","","null","","","","ratingFB","","trustrating_stim/white_00519_940519_fb_edt.bmp","null","","","","","","","","","","",""
"instructions","125","135359","0.0-7.0","628dec55823f672331c68577","bdp_trlrn","Tue Mar 14 2023 00:40:55 GMT-0400 (Eastern Daylight Time)","533560","Untrustworthy,Trustworthy","[{""page_index"":0,""viewing_time"":882}]","882","","","","","","","","","","","","","","","","","",""
"instructions","126","221394","0.0-8.0","628dec55823f672331c68577","bdp_trlrn","Tue Mar 14 2023 00:40:55 GMT-0400 (Eastern Daylight Time)","533560","Untrustworthy,Trustworthy","[{""page_index"":0,""viewing_time"":11940},{""page_index"":1,""viewing_time"":25495},{""page_index"":2,""viewing_time"":7449},{""page_index"":3,""viewing_time"":6977},{""page_index"":4,""viewing_time"":2705},{""page_index"":5,""viewing_time"":8635},{""page_index"":6,""viewing_time"":19958},{""page_index"":7,""viewing_time"":2774}]","85933","","","","","","","","","","","","","","","","","",""
"html-keyboard-response","127","224007","0.0-9.0","628dec55823f672331c68577","bdp_trlrn","Tue Mar 14 2023 00:40:55 GMT-0400 (Eastern Daylight Time)","533560","Untrustworthy,Trustworthy","","2612","","","","","","<div class='header' style='text-align:left; position: absolute; top: 5%; left: 5%;'><small>Task 3 of 5</small></div><div class='instruxDiv'><p><strong>1) What is the minimum number of points you can choose to send to your partner?</strong></p><p>a) 0</p><p>b) 1</p><p>c) 5</p>","C","","","","","","","","","","",""
"html-keyboard-response","128","227592","0.0-10.0","628dec55823f672331c68577","bdp_trlrn","Tue Mar 14 2023 00:40:55 GMT-0400 (Eastern Daylight Time)","533560","Untrustworthy,Trustworthy","","3484","","","","","","<div class='header' style='text-align:left; position: absolute; top: 5%; left: 5%;'><small>Task 3 of 5</small></div><div class='instruxDiv'><p><strong>1) What is the minimum number of points you can choose to send to your partner?</strong></p><p>a) 1</p><p>b) 1</p><p style='color:#FF0000'>c) 5</p><h3 style='color:#FF0000'>Incorrect!</h3><h3 class='center-content'>The correct response is b).</h3><h3 class='center-content'>The minimum number of points you can choose to send to your partner is 1 point.</h3><p><em>Press SPACEBAR to continue</em></p></div>"," ","","","","","","","","","","",""
"html-keyboard-response","129","229858","0.0-11.0","628dec55823f672331c68577","bdp_trlrn","Tue Mar 14 2023 00:40:55 GMT-0400 (Eastern Daylight Time)","533560","Untrustworthy,Trustworthy","","2166","","","","","","<div class='header' style='text-align:left; position: absolute; top: 5%; left: 5%;'><small>Task 3 of 5</small></div><div class='instruxDiv'><p><strong>2) What is the maximum number of points you can choose to send to your partner?</strong></p><p>a) 8</p><p>b) 5</p><p>c) 3</p>","B","","","","","","","","","","",""
"html-keyboard-response","130","230647","0.0-12.0","628dec55823f672331c68577","bdp_trlrn","Tue Mar 14 2023 00:40:55 GMT-0400 (Eastern Daylight Time)","533560","Untrustworthy,Trustworthy","","686","","","","","","<div class='header' style='text-align:left; position: absolute; top: 5%; left: 5%;'><small>Task 3 of 5</small></div><div class='instruxDiv'><p><strong>2) What is the maximum number of points you can choose to send to your partner?</strong></p><p>a) 8</p><p style='color:#00FF00'>b) 5</p><p>c) 3</p><h3 style='color:#00FF00'>Correct!</h3><h3 class='center-content'>The correct response is b).</h3><h3 class='center-content'>The maximum number of points you can choose to send to your partner is 5 points.</h3><p><em>Press SPACEBAR to continue</em></p></div>"," ","","","","","","","","","","",""
"html-keyboard-response","131","232983","0.0-13.0","628dec55823f672331c68577","bdp_trlrn","Tue Mar 14 2023 00:40:55 GMT-0400 (Eastern Daylight Time)","533560","Untrustworthy,Trustworthy","","2235","","","","","","<div class='header' style='text-align:left; position: absolute; top: 5%; left: 5%;'><small>Task 3 of 5</small></div><div class='instruxDiv'><p><strong>3) What happens to the amount of points you send to your partner?</strong></p><p>a) Nothing</p><p>b) It doubles</p><p>c) It quadruples</p>","C","","","","","","","","","","",""
"html-keyboard-response","132","233669","0.0-14.0","628dec55823f672331c68577","bdp_trlrn","Tue Mar 14 2023 00:40:55 GMT-0400 (Eastern Daylight Time)","533560","Untrustworthy,Trustworthy","","584","","","","","","<div class='header' style='text-align:left; position: absolute; top: 5%; left: 5%;'><small>Task 3 of 5</small></div><div class='instruxDiv'><p><strong>3) What happens to the amount of points you send to your partner?</strong></p><p>a) Nothing</p><p>b) It doubles</p><p style='color:#00FF00'>c) It quadruples</p><h3 style='color:#00FF00'>Correct!</h3><h3 class='center-content'>The correct response is c).</h3><h3 class='center-content'>The amount of points you send to your partner quadruples.</h3><p><em>Press SPACEBAR to continue</em></p></div>"," ","","","","","","","","","","",""
"html-keyboard-response","133","245362","0.0-15.0","628dec55823f672331c68577","bdp_trlrn","Tue Mar 14 2023 00:40:55 GMT-0400 (Eastern Daylight Time)","533560","Untrustworthy,Trustworthy","","11590","","","","","","<div class='header' style='text-align:left; position: absolute; top: 5%; left: 5%;'><small>Task 3 of 5</small></div><div class='instruxDiv'><p><strong>4) If you decided to share 4 out of 5 points with your partner, and they decided to share half of the amount they received with you, how many points would you receive back from them on this round?</strong></p><p>a) 16</p><p>b) 0</p><p>c) 8</p>","C","","","","","","","","","","",""
"html-keyboard-response","134","246326","0.0-16.0","628dec55823f672331c68577","bdp_trlrn","Tue Mar 14 2023 00:40:55 GMT-0400 (Eastern Daylight Time)","533560","Untrustworthy,Trustworthy","","861","","","","","","<div class='header' style='text-align:left; position: absolute; top: 5%; left: 5%;'><small>Task 3 of 5</small></div><div class='instruxDiv'><p><strong>4) If you decided to share 4 out of 5 points with your partner, and they decided to share half of the amount they received with you, how many points would you receive back from them on this round?</strong></p><p>a) 16</p><p>b) 0</p><p style='color:#00FF00'>c) 8</p><h3 style='color:#00FF00'>Correct!</h3><h3 class='center-content'>The correct response is c).</h3><h3 class='center-content'>If you shared 4 out of 5 points with your partner and they decided to share half of the amount they received with you, you would receive 8 points back (i.e. (4 x 4)/2 = 8).</h3><p><em>Press SPACEBAR to continue</em></p></div>"," ","","","","","","","","","","",""
"html-keyboard-response","135","251429","0.0-17.0","628dec55823f672331c68577","bdp_trlrn","Tue Mar 14 2023 00:40:55 GMT-0400 (Eastern Daylight Time)","533560","Untrustworthy,Trustworthy","","null","","","","","","<div class='header' style='text-align:left; position: absolute; top: 5%; left: 5%;'><small>Task 3 of 5</small></div><div class='instruxDiv'><p>Thank you for completing the quiz<p>These are the actual partners you will be interacting with in the next block:<p><div class='tc' align='center'><img class='introPic' src='trustrating_stim/white_mw099.bmp'><br><strong>James</strong></div><div class='bl' align='center'><img class='introPic' src='trustrating_stim/white_00340_940422_fa_edt.bmp'><br><strong>Jacob</strong></div><div class='br' align='center'><img class='introPic' src='trustrating_stim/white_00129_931230_fb_edt.bmp'><br><strong>Richard</strong></div></div><p>Across <strong>66 rounds</strong> you will interact with each partner <strong>22 times</strong> (in random order).<p style='align:center; color:white'><font <em>Press SPACEBAR to continue</em></p>","null","","","","","","","","","","",""
"instructions","136","254018","0.0-18.0","628dec55823f672331c68577","bdp_trlrn","Tue Mar 14 2023 00:40:55 GMT-0400 (Eastern Daylight Time)","533560","Untrustworthy,Trustworthy","[{""page_index"":0,""viewing_time"":1332},{""page_index"":1,""viewing_time"":1256}]","2588","","","","","","","","","","","","","","","","","",""
"html-keyboard-response","137","257370","0.0-19.0-1.0","628dec55823f672331c68577","bdp_trlrn","Tue Mar 14 2023 00:40:55 GMT-0400 (Eastern Daylight Time)","533560","Untrustworthy,Trustworthy","","3248","","","","decision","","<div class='trialDiv'><img src='trustrating_stim/white_00129_931230_fb_edt.bmp'><br><font class='baseline'><strong>Richard</strong><p>Choose number of points to send.</font><div class='respPicDiv'><img src='img/responseButtonOffersNo0L.png' class='respPic'></div></div>","1","1","Richard","11","Shared","0.8,0.2","13","0.8","trustrating_stim/white_00129_931230_fb_edt.bmp","6.5","5","1"
"html-keyboard-response","138","257621","0.0-19.0-2.0","628dec55823f672331c68577","bdp_trlrn","Tue Mar 14 2023 00:40:55 GMT-0400 (Eastern Daylight Time)","533560","Untrustworthy,Trustworthy","","null","","","","decisionFB","","<div class='trialDiv'><img src='trustrating_stim/white_00129_931230_fb_edt.bmp'><br><font class='baseline'><strong>Richard</strong><p>Choose number of points to send.</font><div class='respPicDiv'><img src='img/responseButtonOffersNo0L1.png' class='respPic'></div></div>","null","1","Richard","11","Shared","0.8,0.2","13","0.8","trustrating_stim/white_00129_931230_fb_edt.bmp","6.5","4","1"
"html-keyboard-response","139","258625","0.0-19.0-3.0","628dec55823f672331c68577","bdp_trlrn","Tue Mar 14 2023 00:40:55 GMT-0400 (Eastern Daylight Time)","533560","Untrustworthy,Trustworthy","","null","","","","feedback","","<div class='trialDiv'><img src='trustrating_stim/white_00129_931230_fb_edt.bmp'><br><font class='baseline'><strong>Richard</strong><p>Received: <strong>4</strong></font> &nbsp; &nbsp; &nbsp; &nbsp; &nbsp; &nbsp;<font class='posOutcome'>Shared back: <strong>2</strong></font></font><div class='respPicDiv'><img src='img/responseButtonOffersNo0_wht.png' class='respPic'></div></div>","null","1","Richard","11","Shared","0.8,0.2","13","0.8","trustrating_stim/white_00129_931230_fb_edt.bmp","6.5","6","1"
"html-keyboard-response","140","259601","0.0-19.0-1.1","628dec55823f672331c68577","bdp_trlrn","Tue Mar 14 2023 00:40:55 GMT-0400 (Eastern Daylight Time)","533560","Untrustworthy,Trustworthy","","975","","","","decision","","<div class='trialDiv'><img src='trustrating_stim/white_00340_940422_fa_edt.bmp'><br><font class='baseline'><strong>Jacob</strong><p>Choose number of points to send.</font><div class='respPicDiv'><img src='img/responseButtonOffersNo0L.png' class='respPic'></div></div>","1","1","Jacob","5","Shared","0.8,0.35","14","0.8","trustrating_stim/white_00340_940422_fa_edt.bmp","3.5","11","2"
"html-keyboard-response","141","259853","0.0-19.0-2.1","628dec55823f672331c68577","bdp_trlrn","Tue Mar 14 2023 00:40:55 GMT-0400 (Eastern Daylight Time)","533560","Untrustworthy,Trustworthy","","null","","","","decisionFB","","<div class='trialDiv'><img src='trustrating_stim/white_00340_940422_fa_edt.bmp'><br><font class='baseline'><strong>Jacob</strong><p>Choose number of points to send.</font><div class='respPicDiv'><img src='img/responseButtonOffersNo0L1.png' class='respPic'></div></div>","null","1","Jacob","5","Shared","0.8,0.35","14","0.8","trustrating_stim/white_00340_940422_fa_edt.bmp","3.5","10","2"
"html-keyboard-response","142","260857","0.0-19.0-3.1","628dec55823f672331c68577","bdp_trlrn","Tue Mar 14 2023 00:40:55 GMT-0400 (Eastern Daylight Time)","533560","Untrustworthy,Trustworthy","","null","","","","feedback","","<div class='trialDiv'><img src='trustrating_stim/white_00340_940422_fa_edt.bmp'><br><font class='baseline'><strong>Jacob</strong><p>Received: <strong>4</strong></font> &nbsp; &nbsp; &nbsp; &nbsp; &nbsp; &nbsp;<font class='posOutcome'>Shared back: <strong>2</strong></font></font><div class='respPicDiv'><img src='img/responseButtonOffersNo0_wht.png' class='respPic'></div></div>","null","1","Jacob","5","Shared","0.8,0.35","14","0.8","trustrating_stim/white_00340_940422_fa_edt.bmp","3.5","12","2"
"html-keyboard-response","143","261155","0.0-19.0-1.2","628dec55823f672331c68577","bdp_trlrn","Tue Mar 14 2023 00:40:55 GMT-0400 (Eastern Daylight Time)","533560","Untrustworthy,Trustworthy","","298","","","","decision","","<div class='trialDiv'><img src='trustrating_stim/white_mw099.bmp'><br><font class='baseline'><strong>James</strong><p>Choose number of points to send.</font><div class='respPicDiv'><img src='img/responseButtonOffersNo0L.png' class='respPic'></div></div>","1","1","James","1","Kept","0.35,0.8","8","0.35","trustrating_stim/white_mw099.bmp","1.5","17","3"
"html-keyboard-response","144","261409","0.0-19.0-2.2","628dec55823f672331c68577","bdp_trlrn","Tue Mar 14 2023 00:40:55 GMT-0400 (Eastern Daylight Time)","533560","Untrustworthy,Trustworthy","","null","","","","decisionFB","","<div class='trialDiv'><img src='trustrating_stim/white_mw099.bmp'><br><font class='baseline'><strong>James</strong><p>Choose number of points to send.</font><div class='respPicDiv'><img src='img/responseButtonOffersNo0L1.png' class='respPic'></div></div>","null","1","James","1","Kept","0.35,0.8","8","0.35","trustrating_stim/white_mw099.bmp","1.5","16","3"
"html-keyboard-response","145","262413","0.0-19.0-3.2","628dec55823f672331c68577","bdp_trlrn","Tue Mar 14 2023 00:40:55 GMT-0400 (Eastern Daylight Time)","533560","Untrustworthy,Trustworthy","","null","","","","feedback","","<div class='trialDiv'><img src='trustrating_stim/white_mw099.bmp'><br><font class='baseline'><strong>James</strong><p>Received: <strong>4</strong></font> &nbsp; &nbsp; &nbsp; &nbsp; &nbsp; &nbsp;<font class='negOutcome'>Shared back: <strong>0</strong></font></font><div class='respPicDiv'><img src='img/responseButtonOffersNo0_wht.png' class='respPic'></div></div>","null","1","James","1","Kept","0.35,0.8","8","0.35","trustrating_stim/white_mw099.bmp","1.5","16","3"
"html-keyboard-response","146","265781","0.0-19.0-1.3","628dec55823f672331c68577","bdp_trlrn","Tue Mar 14 2023 00:40:55 GMT-0400 (Eastern Daylight Time)","533560","Untrustworthy,Trustworthy","","3368","","","","decision","","<div class='trialDiv'><img src='trustrating_stim/white_00129_931230_fb_edt.bmp'><br><font class='baseline'><strong>Richard</strong><p>Choose number of points to send.</font><div class='respPicDiv'><img src='img/responseButtonOffersNo0L.png' class='respPic'></div></div>","3","2","Richard","11","Shared","0.8,0.2","13","0.8","trustrating_stim/white_00129_931230_fb_edt.bmp","6.5","21","4"
"html-keyboard-response","147","266036","0.0-19.0-2.3","628dec55823f672331c68577","bdp_trlrn","Tue Mar 14 2023 00:40:55 GMT-0400 (Eastern Daylight Time)","533560","Untrustworthy,Trustworthy","","null","","","","decisionFB","","<div class='trialDiv'><img src='trustrating_stim/white_00129_931230_fb_edt.bmp'><br><font class='baseline'><strong>Richard</strong><p>Choose number of points to send.</font><div class='respPicDiv'><img src='img/responseButtonOffersNo0L3.png' class='respPic'></div></div>","null","2","Richard","11","Shared","0.8,0.2","13","0.8","trustrating_stim/white_00129_931230_fb_edt.bmp","6.5","18","4"
"html-keyboard-response","148","267037","0.0-19.0-3.3","628dec55823f672331c68577","bdp_trlrn","Tue Mar 14 2023 00:40:55 GMT-0400 (Eastern Daylight Time)","533560","Untrustworthy,Trustworthy","","null","","","","feedback","","<div class='trialDiv'><img src='trustrating_stim/white_00129_931230_fb_edt.bmp'><br><font class='baseline'><strong>Richard</strong><p>Received: <strong>12</strong></font> &nbsp; &nbsp; &nbsp; &nbsp; &nbsp; &nbsp;<font class='posOutcome'>Shared back: <strong>6</strong></font></font><div class='respPicDiv'><img src='img/responseButtonOffersNo0_wht.png' class='respPic'></div></div>","null","2","Richard","11","Shared","0.8,0.2","13","0.8","trustrating_stim/white_00129_931230_fb_edt.bmp","6.5","24","4"
"html-keyboard-response","149","268470","0.0-19.0-1.4","628dec55823f672331c68577","bdp_trlrn","Tue Mar 14 2023 00:40:55 GMT-0400 (Eastern Daylight Time)","533560","Untrustworthy,Trustworthy","","1433","","","","decision","","<div class='trialDiv'><img src='trustrating_stim/white_00340_940422_fa_edt.bmp'><br><font class='baseline'><strong>Jacob</strong><p>Choose number of points to send.</font><div class='respPicDiv'><img src='img/responseButtonOffersNo0L.png' class='respPic'></div></div>","3","2","Jacob","5","Shared","0.8,0.35","14","0.8","trustrating_stim/white_00340_940422_fa_edt.bmp","3.5","29","5"
"html-keyboard-response","150","268725","0.0-19.0-2.4","628dec55823f672331c68577","bdp_trlrn","Tue Mar 14 2023 00:40:55 GMT-0400 (Eastern Daylight Time)","533560","Untrustworthy,Trustworthy","","null","","","","decisionFB","","<div class='trialDiv'><img src='trustrating_stim/white_00340_940422_fa_edt.bmp'><br><font class='baseline'><strong>Jacob</strong><p>Choose number of points to send.</font><div class='respPicDiv'><img src='img/responseButtonOffersNo0L3.png' class='respPic'></div></div>","null","2","Jacob","5","Shared","0.8,0.35","14","0.8","trustrating_stim/white_00340_940422_fa_edt.bmp","3.5","26","5"
"html-keyboard-response","151","269728","0.0-19.0-3.4","628dec55823f672331c68577","bdp_trlrn","Tue Mar 14 2023 00:40:55 GMT-0400 (Eastern Daylight Time)","533560","Untrustworthy,Trustworthy","","null","","","","feedback","","<div class='trialDiv'><img src='trustrating_stim/white_00340_940422_fa_edt.bmp'><br><font class='baseline'><strong>Jacob</strong><p>Received: <strong>12</strong></font> &nbsp; &nbsp; &nbsp; &nbsp; &nbsp; &nbsp;<font class='posOutcome'>Shared back: <strong>6</strong></font></font><div class='respPicDiv'><img src='img/responseButtonOffersNo0_wht.png' class='respPic'></div></div>","null","2","Jacob","5","Shared","0.8,0.35","14","0.8","trustrating_stim/white_00340_940422_fa_edt.bmp","3.5","32","5"
"html-keyboard-response","152","270595","0.0-19.0-1.5","628dec55823f672331c68577","bdp_trlrn","Tue Mar 14 2023 00:40:55 GMT-0400 (Eastern Daylight Time)","533560","Untrustworthy,Trustworthy","","866","","","","decision","","<div class='trialDiv'><img src='trustrating_stim/white_mw099.bmp'><br><font class='baseline'><strong>James</strong><p>Choose number of points to send.</font><div class='respPicDiv'><img src='img/responseButtonOffersNo0L.png' class='respPic'></div></div>","3","2","James","1","Kept","0.35,0.8","8","0.35","trustrating_stim/white_mw099.bmp","1.5","37","6"
"html-keyboard-response","153","270848","0.0-19.0-2.5","628dec55823f672331c68577","bdp_trlrn","Tue Mar 14 2023 00:40:55 GMT-0400 (Eastern Daylight Time)","533560","Untrustworthy,Trustworthy","","null","","","","decisionFB","","<div class='trialDiv'><img src='trustrating_stim/white_mw099.bmp'><br><font class='baseline'><strong>James</strong><p>Choose number of points to send.</font><div class='respPicDiv'><img src='img/responseButtonOffersNo0L3.png' class='respPic'></div></div>","null","2","James","1","Kept","0.35,0.8","8","0.35","trustrating_stim/white_mw099.bmp","1.5","34","6"
"html-keyboard-response","154","271849","0.0-19.0-3.5","628dec55823f672331c68577","bdp_trlrn","Tue Mar 14 2023 00:40:55 GMT-0400 (Eastern Daylight Time)","533560","Untrustworthy,Trustworthy","","null","","","","feedback","","<div class='trialDiv'><img src='trustrating_stim/white_mw099.bmp'><br><font class='baseline'><strong>James</strong><p>Received: <strong>12</strong></font> &nbsp; &nbsp; &nbsp; &nbsp; &nbsp; &nbsp;<font class='negOutcome'>Shared back: <strong>0</strong></font></font><div class='respPicDiv'><img src='img/responseButtonOffersNo0_wht.png' class='respPic'></div></div>","null","2","James","1","Kept","0.35,0.8","8","0.35","trustrating_stim/white_mw099.bmp","1.5","34","6"
"html-keyboard-response","155","273009","0.0-19.0-1.6","628dec55823f672331c68577","bdp_trlrn","Tue Mar 14 2023 00:40:55 GMT-0400 (Eastern Daylight Time)","533560","Untrustworthy,Trustworthy","","1160","","","","decision","","<div class='trialDiv'><img src='trustrating_stim/white_00340_940422_fa_edt.bmp'><br><font class='baseline'><strong>Jacob</strong><p>Choose number of points to send.</font><div class='respPicDiv'><img src='img/responseButtonOffersNo0L.png' class='respPic'></div></div>","5","3","Jacob","5","Shared","0.8,0.35","14","0.8","trustrating_stim/white_00340_940422_fa_edt.bmp","3.5","39","7"
"html-keyboard-response","156","273261","0.0-19.0-2.6","628dec55823f672331c68577","bdp_trlrn","Tue Mar 14 2023 00:40:55 GMT-0400 (Eastern Daylight Time)","533560","Untrustworthy,Trustworthy","","null","","","","decisionFB","","<div class='trialDiv'><img src='trustrating_stim/white_00340_940422_fa_edt.bmp'><br><font class='baseline'><strong>Jacob</strong><p>Choose number of points to send.</font><div class='respPicDiv'><img src='img/responseButtonOffersNo0L5.png' class='respPic'></div></div>","null","3","Jacob","5","Shared","0.8,0.35","14","0.8","trustrating_stim/white_00340_940422_fa_edt.bmp","3.5","34","7"
"html-keyboard-response","157","274264","0.0-19.0-3.6","628dec55823f672331c68577","bdp_trlrn","Tue Mar 14 2023 00:40:55 GMT-0400 (Eastern Daylight Time)","533560","Untrustworthy,Trustworthy","","null","","","","feedback","","<div class='trialDiv'><img src='trustrating_stim/white_00340_940422_fa_edt.bmp'><br><font class='baseline'><strong>Jacob</strong><p>Received: <strong>20</strong></font> &nbsp; &nbsp; &nbsp; &nbsp; &nbsp; &nbsp;<font class='posOutcome'>Shared back: <strong>10</strong></font></font><div class='respPicDiv'><img src='img/responseButtonOffersNo0_wht.png' class='respPic'></div></div>","null","3","Jacob","5","Shared","0.8,0.35","14","0.8","trustrating_stim/white_00340_940422_fa_edt.bmp","3.5","44","7"
"html-keyboard-response","158","275981","0.0-19.0-1.7","628dec55823f672331c68577","bdp_trlrn","Tue Mar 14 2023 00:40:55 GMT-0400 (Eastern Daylight Time)","533560","Untrustworthy,Trustworthy","","1716","","","","decision","","<div class='trialDiv'><img src='trustrating_stim/white_mw099.bmp'><br><font class='baseline'><strong>James</strong><p>Choose number of points to send.</font><div class='respPicDiv'><img src='img/responseButtonOffersNo0L.png' class='respPic'></div></div>","1","3","James","1","Shared","0.35,0.8","8","0.35","trustrating_stim/white_mw099.bmp","1.5","49","8"
"html-keyboard-response","159","276233","0.0-19.0-2.7","628dec55823f672331c68577","bdp_trlrn","Tue Mar 14 2023 00:40:55 GMT-0400 (Eastern Daylight Time)","533560","Untrustworthy,Trustworthy","","null","","","","decisionFB","","<div class='trialDiv'><img src='trustrating_stim/white_mw099.bmp'><br><font class='baseline'><strong>James</strong><p>Choose number of points to send.</font><div class='respPicDiv'><img src='img/responseButtonOffersNo0L1.png' class='respPic'></div></div>","null","3","James","1","Shared","0.35,0.8","8","0.35","trustrating_stim/white_mw099.bmp","1.5","48","8"
"html-keyboard-response","160","277236","0.0-19.0-3.7","628dec55823f672331c68577","bdp_trlrn","Tue Mar 14 2023 00:40:55 GMT-0400 (Eastern Daylight Time)","533560","Untrustworthy,Trustworthy","","null","","","","feedback","","<div class='trialDiv'><img src='trustrating_stim/white_mw099.bmp'><br><font class='baseline'><strong>James</strong><p>Received: <strong>4</strong></font> &nbsp; &nbsp; &nbsp; &nbsp; &nbsp; &nbsp;<font class='posOutcome'>Shared back: <strong>2</strong></font></font><div class='respPicDiv'><img src='img/responseButtonOffersNo0_wht.png' class='respPic'></div></div>","null","3","James","1","Shared","0.35,0.8","8","0.35","trustrating_stim/white_mw099.bmp","1.5","50","8"
"html-keyboard-response","161","278173","0.0-19.0-1.8","628dec55823f672331c68577","bdp_trlrn","Tue Mar 14 2023 00:40:55 GMT-0400 (Eastern Daylight Time)","533560","Untrustworthy,Trustworthy","","937","","","","decision","","<div class='trialDiv'><img src='trustrating_stim/white_00129_931230_fb_edt.bmp'><br><font class='baseline'><strong>Richard</strong><p>Choose number of points to send.</font><div class='respPicDiv'><img src='img/responseButtonOffersNo0L.png' class='respPic'></div></div>","5","3","Richard","11","Kept","0.8,0.2","13","0.8","trustrating_stim/white_00129_931230_fb_edt.bmp","6.5","55","9"
"html-keyboard-response","162","278424","0.0-19.0-2.8","628dec55823f672331c68577","bdp_trlrn","Tue Mar 14 2023 00:40:55 GMT-0400 (Eastern Daylight Time)","533560","Untrustworthy,Trustworthy","","null","","","","decisionFB","","<div class='trialDiv'><img src='trustrating_stim/white_00129_931230_fb_edt.bmp'><br><font class='baseline'><strong>Richard</strong><p>Choose number of points to send.</font><div class='respPicDiv'><img src='img/responseButtonOffersNo0L5.png' class='respPic'></div></div>","null","3","Richard","11","Kept","0.8,0.2","13","0.8","trustrating_stim/white_00129_931230_fb_edt.bmp","6.5","50","9"
"html-keyboard-response","163","279425","0.0-19.0-3.8","628dec55823f672331c68577","bdp_trlrn","Tue Mar 14 2023 00:40:55 GMT-0400 (Eastern Daylight Time)","533560","Untrustworthy,Trustworthy","","null","","","","feedback","","<div class='trialDiv'><img src='trustrating_stim/white_00129_931230_fb_edt.bmp'><br><font class='baseline'><strong>Richard</strong><p>Received: <strong>20</strong></font> &nbsp; &nbsp; &nbsp; &nbsp; &nbsp; &nbsp;<font class='negOutcome'>Shared back: <strong>0</strong></font></font><div class='respPicDiv'><img src='img/responseButtonOffersNo0_wht.png' class='respPic'></div></div>","null","3","Richard","11","Kept","0.8,0.2","13","0.8","trustrating_stim/white_00129_931230_fb_edt.bmp","6.5","50","9"
"html-keyboard-response","164","280326","0.0-19.0-1.9","628dec55823f672331c68577","bdp_trlrn","Tue Mar 14 2023 00:40:55 GMT-0400 (Eastern Daylight Time)","533560","Untrustworthy,Trustworthy","","901","","","","decision","","<div class='trialDiv'><img src='trustrating_stim/white_mw099.bmp'><br><font class='baseline'><strong>James</strong><p>Choose number of points to send.</font><div class='respPicDiv'><img src='img/responseButtonOffersNo0L.png' class='respPic'></div></div>","1","4","James","1","Kept","0.35,0.8","8","0.35","trustrating_stim/white_mw099.bmp","1.5","55","10"
"html-keyboard-response","165","280577","0.0-19.0-2.9","628dec55823f672331c68577","bdp_trlrn","Tue Mar 14 2023 00:40:55 GMT-0400 (Eastern Daylight Time)","533560","Untrustworthy,Trustworthy","","null","","","","decisionFB","","<div class='trialDiv'><img src='trustrating_stim/white_mw099.bmp'><br><font class='baseline'><strong>James</strong><p>Choose number of points to send.</font><div class='respPicDiv'><img src='img/responseButtonOffersNo0L1.png' class='respPic'></div></div>","null","4","James","1","Kept","0.35,0.8","8","0.35","trustrating_stim/white_mw099.bmp","1.5","54","10"
"html-keyboard-response","166","281580","0.0-19.0-3.9","628dec55823f672331c68577","bdp_trlrn","Tue Mar 14 2023 00:40:55 GMT-0400 (Eastern Daylight Time)","533560","Untrustworthy,Trustworthy","","null","","","","feedback","","<div class='trialDiv'><img src='trustrating_stim/white_mw099.bmp'><br><font class='baseline'><strong>James</strong><p>Received: <strong>4</strong></font> &nbsp; &nbsp; &nbsp; &nbsp; &nbsp; &nbsp;<font class='negOutcome'>Shared back: <strong>0</strong></font></font><div class='respPicDiv'><img src='img/responseButtonOffersNo0_wht.png' class='respPic'></div></div>","null","4","James","1","Kept","0.35,0.8","8","0.35","trustrating_stim/white_mw099.bmp","1.5","54","10"
"html-keyboard-response","167","282042","0.0-19.0-1.10","628dec55823f672331c68577","bdp_trlrn","Tue Mar 14 2023 00:40:55 GMT-0400 (Eastern Daylight Time)","533560","Untrustworthy,Trustworthy","","460","","","","decision","","<div class='trialDiv'><img src='trustrating_stim/white_00340_940422_fa_edt.bmp'><br><font class='baseline'><strong>Jacob</strong><p>Choose number of points to send.</font><div class='respPicDiv'><img src='img/responseButtonOffersNo0L.png' class='respPic'></div></div>","5","4","Jacob","5","Shared","0.8,0.35","14","0.8","trustrating_stim/white_00340_940422_fa_edt.bmp","3.5","59","11"
"html-keyboard-response","168","282293","0.0-19.0-2.10","628dec55823f672331c68577","bdp_trlrn","Tue Mar 14 2023 00:40:55 GMT-0400 (Eastern Daylight Time)","533560","Untrustworthy,Trustworthy","","null","","","","decisionFB","","<div class='trialDiv'><img src='trustrating_stim/white_00340_940422_fa_edt.bmp'><br><font class='baseline'><strong>Jacob</strong><p>Choose number of points to send.</font><div class='respPicDiv'><img src='img/responseButtonOffersNo0L5.png' class='respPic'></div></div>","null","4","Jacob","5","Shared","0.8,0.35","14","0.8","trustrating_stim/white_00340_940422_fa_edt.bmp","3.5","54","11"
"html-keyboard-response","169","283297","0.0-19.0-3.10","628dec55823f672331c68577","bdp_trlrn","Tue Mar 14 2023 00:40:55 GMT-0400 (Eastern Daylight Time)","533560","Untrustworthy,Trustworthy","","null","","","","feedback","","<div class='trialDiv'><img src='trustrating_stim/white_00340_940422_fa_edt.bmp'><br><font class='baseline'><strong>Jacob</strong><p>Received: <strong>20</strong></font> &nbsp; &nbsp; &nbsp; &nbsp; &nbsp; &nbsp;<font class='posOutcome'>Shared back: <strong>10</strong></font></font><div class='respPicDiv'><img src='img/responseButtonOffersNo0_wht.png' class='respPic'></div></div>","null","4","Jacob","5","Shared","0.8,0.35","14","0.8","trustrating_stim/white_00340_940422_fa_edt.bmp","3.5","64","11"
"html-keyboard-response","170","284904","0.0-19.0-1.11","628dec55823f672331c68577","bdp_trlrn","Tue Mar 14 2023 00:40:55 GMT-0400 (Eastern Daylight Time)","533560","Untrustworthy,Trustworthy","","1607","","","","decision","","<div class='trialDiv'><img src='trustrating_stim/white_00129_931230_fb_edt.bmp'><br><font class='baseline'><strong>Richard</strong><p>Choose number of points to send.</font><div class='respPicDiv'><img src='img/responseButtonOffersNo0L.png' class='respPic'></div></div>","5","4","Richard","11","Shared","0.8,0.2","13","0.8","trustrating_stim/white_00129_931230_fb_edt.bmp","6.5","69","12"
"html-keyboard-response","171","285156","0.0-19.0-2.11","628dec55823f672331c68577","bdp_trlrn","Tue Mar 14 2023 00:40:55 GMT-0400 (Eastern Daylight Time)","533560","Untrustworthy,Trustworthy","","null","","","","decisionFB","","<div class='trialDiv'><img src='trustrating_stim/white_00129_931230_fb_edt.bmp'><br><font class='baseline'><strong>Richard</strong><p>Choose number of points to send.</font><div class='respPicDiv'><img src='img/responseButtonOffersNo0L5.png' class='respPic'></div></div>","null","4","Richard","11","Shared","0.8,0.2","13","0.8","trustrating_stim/white_00129_931230_fb_edt.bmp","6.5","64","12"
"html-keyboard-response","172","286160","0.0-19.0-3.11","628dec55823f672331c68577","bdp_trlrn","Tue Mar 14 2023 00:40:55 GMT-0400 (Eastern Daylight Time)","533560","Untrustworthy,Trustworthy","","null","","","","feedback","","<div class='trialDiv'><img src='trustrating_stim/white_00129_931230_fb_edt.bmp'><br><font class='baseline'><strong>Richard</strong><p>Received: <strong>20</strong></font> &nbsp; &nbsp; &nbsp; &nbsp; &nbsp; &nbsp;<font class='posOutcome'>Shared back: <strong>10</strong></font></font><div class='respPicDiv'><img src='img/responseButtonOffersNo0_wht.png' class='respPic'></div></div>","null","4","Richard","11","Shared","0.8,0.2","13","0.8","trustrating_stim/white_00129_931230_fb_edt.bmp","6.5","74","12"
"html-keyboard-response","173","287721","0.0-19.0-1.12","628dec55823f672331c68577","bdp_trlrn","Tue Mar 14 2023 00:40:55 GMT-0400 (Eastern Daylight Time)","533560","Untrustworthy,Trustworthy","","1560","","","","decision","","<div class='trialDiv'><img src='trustrating_stim/white_00340_940422_fa_edt.bmp'><br><font class='baseline'><strong>Jacob</strong><p>Choose number of points to send.</font><div class='respPicDiv'><img src='img/responseButtonOffersNo0L.png' class='respPic'></div></div>","5","5","Jacob","5","Shared","0.8,0.35","14","0.8","trustrating_stim/white_00340_940422_fa_edt.bmp","3.5","79","13"
"html-keyboard-response","174","287973","0.0-19.0-2.12","628dec55823f672331c68577","bdp_trlrn","Tue Mar 14 2023 00:40:55 GMT-0400 (Eastern Daylight Time)","533560","Untrustworthy,Trustworthy","","null","","","","decisionFB","","<div class='trialDiv'><img src='trustrating_stim/white_00340_940422_fa_edt.bmp'><br><font class='baseline'><strong>Jacob</strong><p>Choose number of points to send.</font><div class='respPicDiv'><img src='img/responseButtonOffersNo0L5.png' class='respPic'></div></div>","null","5","Jacob","5","Shared","0.8,0.35","14","0.8","trustrating_stim/white_00340_940422_fa_edt.bmp","3.5","74","13"
"html-keyboard-response","175","288977","0.0-19.0-3.12","628dec55823f672331c68577","bdp_trlrn","Tue Mar 14 2023 00:40:55 GMT-0400 (Eastern Daylight Time)","533560","Untrustworthy,Trustworthy","","null","","","","feedback","","<div class='trialDiv'><img src='trustrating_stim/white_00340_940422_fa_edt.bmp'><br><font class='baseline'><strong>Jacob</strong><p>Received: <strong>20</strong></font> &nbsp; &nbsp; &nbsp; &nbsp; &nbsp; &nbsp;<font class='posOutcome'>Shared back: <strong>10</strong></font></font><div class='respPicDiv'><img src='img/responseButtonOffersNo0_wht.png' class='respPic'></div></div>","null","5","Jacob","5","Shared","0.8,0.35","14","0.8","trustrating_stim/white_00340_940422_fa_edt.bmp","3.5","84","13"
"html-keyboard-response","176","289586","0.0-19.0-1.13","628dec55823f672331c68577","bdp_trlrn","Tue Mar 14 2023 00:40:55 GMT-0400 (Eastern Daylight Time)","533560","Untrustworthy,Trustworthy","","609","","","","decision","","<div class='trialDiv'><img src='trustrating_stim/white_00129_931230_fb_edt.bmp'><br><font class='baseline'><strong>Richard</strong><p>Choose number of points to send.</font><div class='respPicDiv'><img src='img/responseButtonOffersNo0L.png' class='respPic'></div></div>","5","5","Richard","11","Shared","0.8,0.2","13","0.8","trustrating_stim/white_00129_931230_fb_edt.bmp","6.5","89","14"
"html-keyboard-response","177","289837","0.0-19.0-2.13","628dec55823f672331c68577","bdp_trlrn","Tue Mar 14 2023 00:40:55 GMT-0400 (Eastern Daylight Time)","533560","Untrustworthy,Trustworthy","","null","","","","decisionFB","","<div class='trialDiv'><img src='trustrating_stim/white_00129_931230_fb_edt.bmp'><br><font class='baseline'><strong>Richard</strong><p>Choose number of points to send.</font><div class='respPicDiv'><img src='img/responseButtonOffersNo0L5.png' class='respPic'></div></div>","null","5","Richard","11","Shared","0.8,0.2","13","0.8","trustrating_stim/white_00129_931230_fb_edt.bmp","6.5","84","14"
"html-keyboard-response","178","290841","0.0-19.0-3.13","628dec55823f672331c68577","bdp_trlrn","Tue Mar 14 2023 00:40:55 GMT-0400 (Eastern Daylight Time)","533560","Untrustworthy,Trustworthy","","null","","","","feedback","","<div class='trialDiv'><img src='trustrating_stim/white_00129_931230_fb_edt.bmp'><br><font class='baseline'><strong>Richard</strong><p>Received: <strong>20</strong></font> &nbsp; &nbsp; &nbsp; &nbsp; &nbsp; &nbsp;<font class='posOutcome'>Shared back: <strong>10</strong></font></font><div class='respPicDiv'><img src='img/responseButtonOffersNo0_wht.png' class='respPic'></div></div>","null","5","Richard","11","Shared","0.8,0.2","13","0.8","trustrating_stim/white_00129_931230_fb_edt.bmp","6.5","94","14"
"html-keyboard-response","179","291794","0.0-19.0-1.14","628dec55823f672331c68577","bdp_trlrn","Tue Mar 14 2023 00:40:55 GMT-0400 (Eastern Daylight Time)","533560","Untrustworthy,Trustworthy","","952","","","","decision","","<div class='trialDiv'><img src='trustrating_stim/white_mw099.bmp'><br><font class='baseline'><strong>James</strong><p>Choose number of points to send.</font><div class='respPicDiv'><img src='img/responseButtonOffersNo0L.png' class='respPic'></div></div>","1","5","James","1","Kept","0.35,0.8","8","0.35","trustrating_stim/white_mw099.bmp","1.5","99","15"
"html-keyboard-response","180","292044","0.0-19.0-2.14","628dec55823f672331c68577","bdp_trlrn","Tue Mar 14 2023 00:40:55 GMT-0400 (Eastern Daylight Time)","533560","Untrustworthy,Trustworthy","","null","","","","decisionFB","","<div class='trialDiv'><img src='trustrating_stim/white_mw099.bmp'><br><font class='baseline'><strong>James</strong><p>Choose number of points to send.</font><div class='respPicDiv'><img src='img/responseButtonOffersNo0L1.png' class='respPic'></div></div>","null","5","James","1","Kept","0.35,0.8","8","0.35","trustrating_stim/white_mw099.bmp","1.5","98","15"
"html-keyboard-response","181","293045","0.0-19.0-3.14","628dec55823f672331c68577","bdp_trlrn","Tue Mar 14 2023 00:40:55 GMT-0400 (Eastern Daylight Time)","533560","Untrustworthy,Trustworthy","","null","","","","feedback","","<div class='trialDiv'><img src='trustrating_stim/white_mw099.bmp'><br><font class='baseline'><strong>James</strong><p>Received: <strong>4</strong></font> &nbsp; &nbsp; &nbsp; &nbsp; &nbsp; &nbsp;<font class='negOutcome'>Shared back: <strong>0</strong></font></font><div class='respPicDiv'><img src='img/responseButtonOffersNo0_wht.png' class='respPic'></div></div>","null","5","James","1","Kept","0.35,0.8","8","0.35","trustrating_stim/white_mw099.bmp","1.5","98","15"
"html-keyboard-response","182","293909","0.0-19.0-1.15","628dec55823f672331c68577","bdp_trlrn","Tue Mar 14 2023 00:40:55 GMT-0400 (Eastern Daylight Time)","533560","Untrustworthy,Trustworthy","","864","","","","decision","","<div class='trialDiv'><img src='trustrating_stim/white_00340_940422_fa_edt.bmp'><br><font class='baseline'><strong>Jacob</strong><p>Choose number of points to send.</font><div class='respPicDiv'><img src='img/responseButtonOffersNo0L.png' class='respPic'></div></div>","5","6","Jacob","5","Kept","0.8,0.35","14","0.8","trustrating_stim/white_00340_940422_fa_edt.bmp","3.5","103","16"
"html-keyboard-response","183","294161","0.0-19.0-2.15","628dec55823f672331c68577","bdp_trlrn","Tue Mar 14 2023 00:40:55 GMT-0400 (Eastern Daylight Time)","533560","Untrustworthy,Trustworthy","","null","","","","decisionFB","","<div class='trialDiv'><img src='trustrating_stim/white_00340_940422_fa_edt.bmp'><br><font class='baseline'><strong>Jacob</strong><p>Choose number of points to send.</font><div class='respPicDiv'><img src='img/responseButtonOffersNo0L5.png' class='respPic'></div></div>","null","6","Jacob","5","Kept","0.8,0.35","14","0.8","trustrating_stim/white_00340_940422_fa_edt.bmp","3.5","98","16"
"html-keyboard-response","184","295164","0.0-19.0-3.15","628dec55823f672331c68577","bdp_trlrn","Tue Mar 14 2023 00:40:55 GMT-0400 (Eastern Daylight Time)","533560","Untrustworthy,Trustworthy","","null","","","","feedback","","<div class='trialDiv'><img src='trustrating_stim/white_00340_940422_fa_edt.bmp'><br><font class='baseline'><strong>Jacob</strong><p>Received: <strong>20</strong></font> &nbsp; &nbsp; &nbsp; &nbsp; &nbsp; &nbsp;<font class='negOutcome'>Shared back: <strong>0</strong></font></font><div class='respPicDiv'><img src='img/responseButtonOffersNo0_wht.png' class='respPic'></div></div>","null","6","Jacob","5","Kept","0.8,0.35","14","0.8","trustrating_stim/white_00340_940422_fa_edt.bmp","3.5","98","16"
"html-keyboard-response","185","296233","0.0-19.0-1.16","628dec55823f672331c68577","bdp_trlrn","Tue Mar 14 2023 00:40:55 GMT-0400 (Eastern Daylight Time)","533560","Untrustworthy,Trustworthy","","1069","","","","decision","","<div class='trialDiv'><img src='trustrating_stim/white_00129_931230_fb_edt.bmp'><br><font class='baseline'><strong>Richard</strong><p>Choose number of points to send.</font><div class='respPicDiv'><img src='img/responseButtonOffersNo0L.png' class='respPic'></div></div>","5","6","Richard","11","Shared","0.8,0.2","13","0.8","trustrating_stim/white_00129_931230_fb_edt.bmp","6.5","103","17"
"html-keyboard-response","186","296484","0.0-19.0-2.16","628dec55823f672331c68577","bdp_trlrn","Tue Mar 14 2023 00:40:55 GMT-0400 (Eastern Daylight Time)","533560","Untrustworthy,Trustworthy","","null","","","","decisionFB","","<div class='trialDiv'><img src='trustrating_stim/white_00129_931230_fb_edt.bmp'><br><font class='baseline'><strong>Richard</strong><p>Choose number of points to send.</font><div class='respPicDiv'><img src='img/responseButtonOffersNo0L5.png' class='respPic'></div></div>","null","6","Richard","11","Shared","0.8,0.2","13","0.8","trustrating_stim/white_00129_931230_fb_edt.bmp","6.5","98","17"
"html-keyboard-response","187","297489","0.0-19.0-3.16","628dec55823f672331c68577","bdp_trlrn","Tue Mar 14 2023 00:40:55 GMT-0400 (Eastern Daylight Time)","533560","Untrustworthy,Trustworthy","","null","","","","feedback","","<div class='trialDiv'><img src='trustrating_stim/white_00129_931230_fb_edt.bmp'><br><font class='baseline'><strong>Richard</strong><p>Received: <strong>20</strong></font> &nbsp; &nbsp; &nbsp; &nbsp; &nbsp; &nbsp;<font class='posOutcome'>Shared back: <strong>10</strong></font></font><div class='respPicDiv'><img src='img/responseButtonOffersNo0_wht.png' class='respPic'></div></div>","null","6","Richard","11","Shared","0.8,0.2","13","0.8","trustrating_stim/white_00129_931230_fb_edt.bmp","6.5","108","17"
"html-keyboard-response","188","298263","0.0-19.0-1.17","628dec55823f672331c68577","bdp_trlrn","Tue Mar 14 2023 00:40:55 GMT-0400 (Eastern Daylight Time)","533560","Untrustworthy,Trustworthy","","774","","","","decision","","<div class='trialDiv'><img src='trustrating_stim/white_mw099.bmp'><br><font class='baseline'><strong>James</strong><p>Choose number of points to send.</font><div class='respPicDiv'><img src='img/responseButtonOffersNo0L.png' class='respPic'></div></div>","1","6","James","1","Kept","0.35,0.8","8","0.35","trustrating_stim/white_mw099.bmp","1.5","113","18"
"html-keyboard-response","189","298516","0.0-19.0-2.17","628dec55823f672331c68577","bdp_trlrn","Tue Mar 14 2023 00:40:55 GMT-0400 (Eastern Daylight Time)","533560","Untrustworthy,Trustworthy","","null","","","","decisionFB","","<div class='trialDiv'><img src='trustrating_stim/white_mw099.bmp'><br><font class='baseline'><strong>James</strong><p>Choose number of points to send.</font><div class='respPicDiv'><img src='img/responseButtonOffersNo0L1.png' class='respPic'></div></div>","null","6","James","1","Kept","0.35,0.8","8","0.35","trustrating_stim/white_mw099.bmp","1.5","112","18"
"html-keyboard-response","190","299520","0.0-19.0-3.17","628dec55823f672331c68577","bdp_trlrn","Tue Mar 14 2023 00:40:55 GMT-0400 (Eastern Daylight Time)","533560","Untrustworthy,Trustworthy","","null","","","","feedback","","<div class='trialDiv'><img src='trustrating_stim/white_mw099.bmp'><br><font class='baseline'><strong>James</strong><p>Received: <strong>4</strong></font> &nbsp; &nbsp; &nbsp; &nbsp; &nbsp; &nbsp;<font class='negOutcome'>Shared back: <strong>0</strong></font></font><div class='respPicDiv'><img src='img/responseButtonOffersNo0_wht.png' class='respPic'></div></div>","null","6","James","1","Kept","0.35,0.8","8","0.35","trustrating_stim/white_mw099.bmp","1.5","112","18"
"html-keyboard-response","191","300085","0.0-19.0-1.18","628dec55823f672331c68577","bdp_trlrn","Tue Mar 14 2023 00:40:55 GMT-0400 (Eastern Daylight Time)","533560","Untrustworthy,Trustworthy","","564","","","","decision","","<div class='trialDiv'><img src='trustrating_stim/white_00129_931230_fb_edt.bmp'><br><font class='baseline'><strong>Richard</strong><p>Choose number of points to send.</font><div class='respPicDiv'><img src='img/responseButtonOffersNo0L.png' class='respPic'></div></div>","5","7","Richard","11","Shared","0.8,0.2","13","0.8","trustrating_stim/white_00129_931230_fb_edt.bmp","6.5","117","19"
"html-keyboard-response","192","300337","0.0-19.0-2.18","628dec55823f672331c68577","bdp_trlrn","Tue Mar 14 2023 00:40:55 GMT-0400 (Eastern Daylight Time)","533560","Untrustworthy,Trustworthy","","null","","","","decisionFB","","<div class='trialDiv'><img src='trustrating_stim/white_00129_931230_fb_edt.bmp'><br><font class='baseline'><strong>Richard</strong><p>Choose number of points to send.</font><div class='respPicDiv'><img src='img/responseButtonOffersNo0L5.png' class='respPic'></div></div>","null","7","Richard","11","Shared","0.8,0.2","13","0.8","trustrating_stim/white_00129_931230_fb_edt.bmp","6.5","112","19"
"html-keyboard-response","193","301341","0.0-19.0-3.18","628dec55823f672331c68577","bdp_trlrn","Tue Mar 14 2023 00:40:55 GMT-0400 (Eastern Daylight Time)","533560","Untrustworthy,Trustworthy","","null","","","","feedback","","<div class='trialDiv'><img src='trustrating_stim/white_00129_931230_fb_edt.bmp'><br><font class='baseline'><strong>Richard</strong><p>Received: <strong>20</strong></font> &nbsp; &nbsp; &nbsp; &nbsp; &nbsp; &nbsp;<font class='posOutcome'>Shared back: <strong>10</strong></font></font><div class='respPicDiv'><img src='img/responseButtonOffersNo0_wht.png' class='respPic'></div></div>","null","7","Richard","11","Shared","0.8,0.2","13","0.8","trustrating_stim/white_00129_931230_fb_edt.bmp","6.5","122","19"
"html-keyboard-response","194","301936","0.0-19.0-1.19","628dec55823f672331c68577","bdp_trlrn","Tue Mar 14 2023 00:40:55 GMT-0400 (Eastern Daylight Time)","533560","Untrustworthy,Trustworthy","","595","","","","decision","","<div class='trialDiv'><img src='trustrating_stim/white_00340_940422_fa_edt.bmp'><br><font class='baseline'><strong>Jacob</strong><p>Choose number of points to send.</font><div class='respPicDiv'><img src='img/responseButtonOffersNo0L.png' class='respPic'></div></div>","5","7","Jacob","5","Kept","0.8,0.35","14","0.8","trustrating_stim/white_00340_940422_fa_edt.bmp","3.5","127","20"
"html-keyboard-response","195","302188","0.0-19.0-2.19","628dec55823f672331c68577","bdp_trlrn","Tue Mar 14 2023 00:40:55 GMT-0400 (Eastern Daylight Time)","533560","Untrustworthy,Trustworthy","","null","","","","decisionFB","","<div class='trialDiv'><img src='trustrating_stim/white_00340_940422_fa_edt.bmp'><br><font class='baseline'><strong>Jacob</strong><p>Choose number of points to send.</font><div class='respPicDiv'><img src='img/responseButtonOffersNo0L5.png' class='respPic'></div></div>","null","7","Jacob","5","Kept","0.8,0.35","14","0.8","trustrating_stim/white_00340_940422_fa_edt.bmp","3.5","122","20"
"html-keyboard-response","196","303193","0.0-19.0-3.19","628dec55823f672331c68577","bdp_trlrn","Tue Mar 14 2023 00:40:55 GMT-0400 (Eastern Daylight Time)","533560","Untrustworthy,Trustworthy","","null","","","","feedback","","<div class='trialDiv'><img src='trustrating_stim/white_00340_940422_fa_edt.bmp'><br><font class='baseline'><strong>Jacob</strong><p>Received: <strong>20</strong></font> &nbsp; &nbsp; &nbsp; &nbsp; &nbsp; &nbsp;<font class='negOutcome'>Shared back: <strong>0</strong></font></font><div class='respPicDiv'><img src='img/responseButtonOffersNo0_wht.png' class='respPic'></div></div>","null","7","Jacob","5","Kept","0.8,0.35","14","0.8","trustrating_stim/white_00340_940422_fa_edt.bmp","3.5","122","20"
"html-keyboard-response","197","303733","0.0-19.0-1.20","628dec55823f672331c68577","bdp_trlrn","Tue Mar 14 2023 00:40:55 GMT-0400 (Eastern Daylight Time)","533560","Untrustworthy,Trustworthy","","540","","","","decision","","<div class='trialDiv'><img src='trustrating_stim/white_mw099.bmp'><br><font class='baseline'><strong>James</strong><p>Choose number of points to send.</font><div class='respPicDiv'><img src='img/responseButtonOffersNo0L.png' class='respPic'></div></div>","1","7","James","1","Shared","0.35,0.8","8","0.35","trustrating_stim/white_mw099.bmp","1.5","127","21"
"html-keyboard-response","198","303984","0.0-19.0-2.20","628dec55823f672331c68577","bdp_trlrn","Tue Mar 14 2023 00:40:55 GMT-0400 (Eastern Daylight Time)","533560","Untrustworthy,Trustworthy","","null","","","","decisionFB","","<div class='trialDiv'><img src='trustrating_stim/white_mw099.bmp'><br><font class='baseline'><strong>James</strong><p>Choose number of points to send.</font><div class='respPicDiv'><img src='img/responseButtonOffersNo0L1.png' class='respPic'></div></div>","null","7","James","1","Shared","0.35,0.8","8","0.35","trustrating_stim/white_mw099.bmp","1.5","126","21"
"html-keyboard-response","199","304988","0.0-19.0-3.20","628dec55823f672331c68577","bdp_trlrn","Tue Mar 14 2023 00:40:55 GMT-0400 (Eastern Daylight Time)","533560","Untrustworthy,Trustworthy","","null","","","","feedback","","<div class='trialDiv'><img src='trustrating_stim/white_mw099.bmp'><br><font class='baseline'><strong>James</strong><p>Received: <strong>4</strong></font> &nbsp; &nbsp; &nbsp; &nbsp; &nbsp; &nbsp;<font class='posOutcome'>Shared back: <strong>2</strong></font></font><div class='respPicDiv'><img src='img/responseButtonOffersNo0_wht.png' class='respPic'></div></div>","null","7","James","1","Shared","0.35,0.8","8","0.35","trustrating_stim/white_mw099.bmp","1.5","128","21"
"html-keyboard-response","200","305501","0.0-19.0-1.21","628dec55823f672331c68577","bdp_trlrn","Tue Mar 14 2023 00:40:55 GMT-0400 (Eastern Daylight Time)","533560","Untrustworthy,Trustworthy","","512","","","","decision","","<div class='trialDiv'><img src='trustrating_stim/white_00340_940422_fa_edt.bmp'><br><font class='baseline'><strong>Jacob</strong><p>Choose number of points to send.</font><div class='respPicDiv'><img src='img/responseButtonOffersNo0L.png' class='respPic'></div></div>","5","8","Jacob","5","Shared","0.8,0.35","14","0.8","trustrating_stim/white_00340_940422_fa_edt.bmp","3.5","133","22"
"html-keyboard-response","201","305752","0.0-19.0-2.21","628dec55823f672331c68577","bdp_trlrn","Tue Mar 14 2023 00:40:55 GMT-0400 (Eastern Daylight Time)","533560","Untrustworthy,Trustworthy","","null","","","","decisionFB","","<div class='trialDiv'><img src='trustrating_stim/white_00340_940422_fa_edt.bmp'><br><font class='baseline'><strong>Jacob</strong><p>Choose number of points to send.</font><div class='respPicDiv'><img src='img/responseButtonOffersNo0L5.png' class='respPic'></div></div>","null","8","Jacob","5","Shared","0.8,0.35","14","0.8","trustrating_stim/white_00340_940422_fa_edt.bmp","3.5","128","22"
"html-keyboard-response","202","306753","0.0-19.0-3.21","628dec55823f672331c68577","bdp_trlrn","Tue Mar 14 2023 00:40:55 GMT-0400 (Eastern Daylight Time)","533560","Untrustworthy,Trustworthy","","null","","","","feedback","","<div class='trialDiv'><img src='trustrating_stim/white_00340_940422_fa_edt.bmp'><br><font class='baseline'><strong>Jacob</strong><p>Received: <strong>20</strong></font> &nbsp; &nbsp; &nbsp; &nbsp; &nbsp; &nbsp;<font class='posOutcome'>Shared back: <strong>10</strong></font></font><div class='respPicDiv'><img src='img/responseButtonOffersNo0_wht.png' class='respPic'></div></div>","null","8","Jacob","5","Shared","0.8,0.35","14","0.8","trustrating_stim/white_00340_940422_fa_edt.bmp","3.5","138","22"
"html-keyboard-response","203","307296","0.0-19.0-1.22","628dec55823f672331c68577","bdp_trlrn","Tue Mar 14 2023 00:40:55 GMT-0400 (Eastern Daylight Time)","533560","Untrustworthy,Trustworthy","","542","","","","decision","","<div class='trialDiv'><img src='trustrating_stim/white_00129_931230_fb_edt.bmp'><br><font class='baseline'><strong>Richard</strong><p>Choose number of points to send.</font><div class='respPicDiv'><img src='img/responseButtonOffersNo0L.png' class='respPic'></div></div>","5","8","Richard","11","Shared","0.8,0.2","13","0.8","trustrating_stim/white_00129_931230_fb_edt.bmp","6.5","143","23"
"html-keyboard-response","204","307548","0.0-19.0-2.22","628dec55823f672331c68577","bdp_trlrn","Tue Mar 14 2023 00:40:55 GMT-0400 (Eastern Daylight Time)","533560","Untrustworthy,Trustworthy","","null","","","","decisionFB","","<div class='trialDiv'><img src='trustrating_stim/white_00129_931230_fb_edt.bmp'><br><font class='baseline'><strong>Richard</strong><p>Choose number of points to send.</font><div class='respPicDiv'><img src='img/responseButtonOffersNo0L5.png' class='respPic'></div></div>","null","8","Richard","11","Shared","0.8,0.2","13","0.8","trustrating_stim/white_00129_931230_fb_edt.bmp","6.5","138","23"
"html-keyboard-response","205","308549","0.0-19.0-3.22","628dec55823f672331c68577","bdp_trlrn","Tue Mar 14 2023 00:40:55 GMT-0400 (Eastern Daylight Time)","533560","Untrustworthy,Trustworthy","","null","","","","feedback","","<div class='trialDiv'><img src='trustrating_stim/white_00129_931230_fb_edt.bmp'><br><font class='baseline'><strong>Richard</strong><p>Received: <strong>20</strong></font> &nbsp; &nbsp; &nbsp; &nbsp; &nbsp; &nbsp;<font class='posOutcome'>Shared back: <strong>10</strong></font></font><div class='respPicDiv'><img src='img/responseButtonOffersNo0_wht.png' class='respPic'></div></div>","null","8","Richard","11","Shared","0.8,0.2","13","0.8","trustrating_stim/white_00129_931230_fb_edt.bmp","6.5","148","23"
"html-keyboard-response","206","309073","0.0-19.0-1.23","628dec55823f672331c68577","bdp_trlrn","Tue Mar 14 2023 00:40:55 GMT-0400 (Eastern Daylight Time)","533560","Untrustworthy,Trustworthy","","523","","","","decision","","<div class='trialDiv'><img src='trustrating_stim/white_mw099.bmp'><br><font class='baseline'><strong>James</strong><p>Choose number of points to send.</font><div class='respPicDiv'><img src='img/responseButtonOffersNo0L.png' class='respPic'></div></div>","1","8","James","1","Shared","0.35,0.8","8","0.35","trustrating_stim/white_mw099.bmp","1.5","153","24"
"html-keyboard-response","207","309325","0.0-19.0-2.23","628dec55823f672331c68577","bdp_trlrn","Tue Mar 14 2023 00:40:55 GMT-0400 (Eastern Daylight Time)","533560","Untrustworthy,Trustworthy","","null","","","","decisionFB","","<div class='trialDiv'><img src='trustrating_stim/white_mw099.bmp'><br><font class='baseline'><strong>James</strong><p>Choose number of points to send.</font><div class='respPicDiv'><img src='img/responseButtonOffersNo0L1.png' class='respPic'></div></div>","null","8","James","1","Shared","0.35,0.8","8","0.35","trustrating_stim/white_mw099.bmp","1.5","152","24"
"html-keyboard-response","208","310329","0.0-19.0-3.23","628dec55823f672331c68577","bdp_trlrn","Tue Mar 14 2023 00:40:55 GMT-0400 (Eastern Daylight Time)","533560","Untrustworthy,Trustworthy","","null","","","","feedback","","<div class='trialDiv'><img src='trustrating_stim/white_mw099.bmp'><br><font class='baseline'><strong>James</strong><p>Received: <strong>4</strong></font> &nbsp; &nbsp; &nbsp; &nbsp; &nbsp; &nbsp;<font class='posOutcome'>Shared back: <strong>2</strong></font></font><div class='respPicDiv'><img src='img/responseButtonOffersNo0_wht.png' class='respPic'></div></div>","null","8","James","1","Shared","0.35,0.8","8","0.35","trustrating_stim/white_mw099.bmp","1.5","154","24"
"html-keyboard-response","209","312024","0.0-19.0-1.24","628dec55823f672331c68577","bdp_trlrn","Tue Mar 14 2023 00:40:55 GMT-0400 (Eastern Daylight Time)","533560","Untrustworthy,Trustworthy","","1694","","","","decision","","<div class='trialDiv'><img src='trustrating_stim/white_00340_940422_fa_edt.bmp'><br><font class='baseline'><strong>Jacob</strong><p>Choose number of points to send.</font><div class='respPicDiv'><img src='img/responseButtonOffersNo0L.png' class='respPic'></div></div>","4","9","Jacob","5","Shared","0.8,0.35","14","0.8","trustrating_stim/white_00340_940422_fa_edt.bmp","3.5","159","25"
"html-keyboard-response","210","312276","0.0-19.0-2.24","628dec55823f672331c68577","bdp_trlrn","Tue Mar 14 2023 00:40:55 GMT-0400 (Eastern Daylight Time)","533560","Untrustworthy,Trustworthy","","null","","","","decisionFB","","<div class='trialDiv'><img src='trustrating_stim/white_00340_940422_fa_edt.bmp'><br><font class='baseline'><strong>Jacob</strong><p>Choose number of points to send.</font><div class='respPicDiv'><img src='img/responseButtonOffersNo0L4.png' class='respPic'></div></div>","null","9","Jacob","5","Shared","0.8,0.35","14","0.8","trustrating_stim/white_00340_940422_fa_edt.bmp","3.5","155","25"
"html-keyboard-response","211","313280","0.0-19.0-3.24","628dec55823f672331c68577","bdp_trlrn","Tue Mar 14 2023 00:40:55 GMT-0400 (Eastern Daylight Time)","533560","Untrustworthy,Trustworthy","","null","","","","feedback","","<div class='trialDiv'><img src='trustrating_stim/white_00340_940422_fa_edt.bmp'><br><font class='baseline'><strong>Jacob</strong><p>Received: <strong>16</strong></font> &nbsp; &nbsp; &nbsp; &nbsp; &nbsp; &nbsp;<font class='posOutcome'>Shared back: <strong>8</strong></font></font><div class='respPicDiv'><img src='img/responseButtonOffersNo0_wht.png' class='respPic'></div></div>","null","9","Jacob","5","Shared","0.8,0.35","14","0.8","trustrating_stim/white_00340_940422_fa_edt.bmp","3.5","163","25"
"html-keyboard-response","212","314118","0.0-19.0-1.25","628dec55823f672331c68577","bdp_trlrn","Tue Mar 14 2023 00:40:55 GMT-0400 (Eastern Daylight Time)","533560","Untrustworthy,Trustworthy","","837","","","","decision","","<div class='trialDiv'><img src='trustrating_stim/white_mw099.bmp'><br><font class='baseline'><strong>James</strong><p>Choose number of points to send.</font><div class='respPicDiv'><img src='img/responseButtonOffersNo0L.png' class='respPic'></div></div>","1","9","James","1","Shared","0.35,0.8","8","0.35","trustrating_stim/white_mw099.bmp","1.5","168","26"
"html-keyboard-response","213","314372","0.0-19.0-2.25","628dec55823f672331c68577","bdp_trlrn","Tue Mar 14 2023 00:40:55 GMT-0400 (Eastern Daylight Time)","533560","Untrustworthy,Trustworthy","","null","","","","decisionFB","","<div class='trialDiv'><img src='trustrating_stim/white_mw099.bmp'><br><font class='baseline'><strong>James</strong><p>Choose number of points to send.</font><div class='respPicDiv'><img src='img/responseButtonOffersNo0L1.png' class='respPic'></div></div>","null","9","James","1","Shared","0.35,0.8","8","0.35","trustrating_stim/white_mw099.bmp","1.5","167","26"
"html-keyboard-response","214","315376","0.0-19.0-3.25","628dec55823f672331c68577","bdp_trlrn","Tue Mar 14 2023 00:40:55 GMT-0400 (Eastern Daylight Time)","533560","Untrustworthy,Trustworthy","","null","","","","feedback","","<div class='trialDiv'><img src='trustrating_stim/white_mw099.bmp'><br><font class='baseline'><strong>James</strong><p>Received: <strong>4</strong></font> &nbsp; &nbsp; &nbsp; &nbsp; &nbsp; &nbsp;<font class='posOutcome'>Shared back: <strong>2</strong></font></font><div class='respPicDiv'><img src='img/responseButtonOffersNo0_wht.png' class='respPic'></div></div>","null","9","James","1","Shared","0.35,0.8","8","0.35","trustrating_stim/white_mw099.bmp","1.5","169","26"
"html-keyboard-response","215","315857","0.0-19.0-1.26","628dec55823f672331c68577","bdp_trlrn","Tue Mar 14 2023 00:40:55 GMT-0400 (Eastern Daylight Time)","533560","Untrustworthy,Trustworthy","","480","","","","decision","","<div class='trialDiv'><img src='trustrating_stim/white_00129_931230_fb_edt.bmp'><br><font class='baseline'><strong>Richard</strong><p>Choose number of points to send.</font><div class='respPicDiv'><img src='img/responseButtonOffersNo0L.png' class='respPic'></div></div>","5","9","Richard","11","Shared","0.8,0.2","13","0.8","trustrating_stim/white_00129_931230_fb_edt.bmp","6.5","174","27"
"html-keyboard-response","216","316109","0.0-19.0-2.26","628dec55823f672331c68577","bdp_trlrn","Tue Mar 14 2023 00:40:55 GMT-0400 (Eastern Daylight Time)","533560","Untrustworthy,Trustworthy","","null","","","","decisionFB","","<div class='trialDiv'><img src='trustrating_stim/white_00129_931230_fb_edt.bmp'><br><font class='baseline'><strong>Richard</strong><p>Choose number of points to send.</font><div class='respPicDiv'><img src='img/responseButtonOffersNo0L5.png' class='respPic'></div></div>","null","9","Richard","11","Shared","0.8,0.2","13","0.8","trustrating_stim/white_00129_931230_fb_edt.bmp","6.5","169","27"
"html-keyboard-response","217","317112","0.0-19.0-3.26","628dec55823f672331c68577","bdp_trlrn","Tue Mar 14 2023 00:40:55 GMT-0400 (Eastern Daylight Time)","533560","Untrustworthy,Trustworthy","","null","","","","feedback","","<div class='trialDiv'><img src='trustrating_stim/white_00129_931230_fb_edt.bmp'><br><font class='baseline'><strong>Richard</strong><p>Received: <strong>20</strong></font> &nbsp; &nbsp; &nbsp; &nbsp; &nbsp; &nbsp;<font class='posOutcome'>Shared back: <strong>10</strong></font></font><div class='respPicDiv'><img src='img/responseButtonOffersNo0_wht.png' class='respPic'></div></div>","null","9","Richard","11","Shared","0.8,0.2","13","0.8","trustrating_stim/white_00129_931230_fb_edt.bmp","6.5","179","27"
"html-keyboard-response","218","317508","0.0-19.0-1.27","628dec55823f672331c68577","bdp_trlrn","Tue Mar 14 2023 00:40:55 GMT-0400 (Eastern Daylight Time)","533560","Untrustworthy,Trustworthy","","395","","","","decision","","<div class='trialDiv'><img src='trustrating_stim/white_mw099.bmp'><br><font class='baseline'><strong>James</strong><p>Choose number of points to send.</font><div class='respPicDiv'><img src='img/responseButtonOffersNo0L.png' class='respPic'></div></div>","5","10","James","1","Shared","0.35,0.8","8","0.35","trustrating_stim/white_mw099.bmp","1.5","184","28"
"html-keyboard-response","219","317760","0.0-19.0-2.27","628dec55823f672331c68577","bdp_trlrn","Tue Mar 14 2023 00:40:55 GMT-0400 (Eastern Daylight Time)","533560","Untrustworthy,Trustworthy","","null","","","","decisionFB","","<div class='trialDiv'><img src='trustrating_stim/white_mw099.bmp'><br><font class='baseline'><strong>James</strong><p>Choose number of points to send.</font><div class='respPicDiv'><img src='img/responseButtonOffersNo0L5.png' class='respPic'></div></div>","null","10","James","1","Shared","0.35,0.8","8","0.35","trustrating_stim/white_mw099.bmp","1.5","179","28"
