"event","trial","time","trialtype","subject_id","task","startTime","totalTime","labels","trial_type","trial_index","time_elapsed","internal_node_id","numBlurs","view_history","rt","success","stimulus","key_press","aground","name","faceID","outcome","agenttype","agentswpt","agentcurrpshare","face","avgRating","point_total","round"
"focus","0","0","focusevent","63dafeda84d9a5e684adb6be","bdp_trlrn","Tue Mar 14 2023 21:31:39 GMT-0400 (Eastern Daylight Time)","765345","Trustworthy,Untrustworthy","","","","","","","","","","","","","","","","","","","","",""
"focus","0","0","focusevent","63dafeda84d9a5e684adb6be","bdp_trlrn","Tue Mar 14 2023 21:31:39 GMT-0400 (Eastern Daylight Time)","765345","Trustworthy,Untrustworthy","","","","","","","","","","","","","","","","","","","","",""
"","","","","63dafeda84d9a5e684adb6be","bdp_trlrn","Tue Mar 14 2023 21:31:39 GMT-0400 (Eastern Daylight Time)","765345","Trustworthy,Untrustworthy","pavlovia","0","4","0.0-0.0","","","","","","","","","","","","","","","","",""
"blur","1","1179","blurevent","63dafeda84d9a5e684adb6be","bdp_trlrn","Tue Mar 14 2023 21:31:39 GMT-0400 (Eastern Daylight Time)","765345","Trustworthy,Untrustworthy","","","","","1","","","","","","","","","","","","","","","",""
"focus","1","11143","focusevent","63dafeda84d9a5e684adb6be","bdp_trlrn","Tue Mar 14 2023 21:31:39 GMT-0400 (Eastern Daylight Time)","765345","Trustworthy,Untrustworthy","","","","","","","","","","","","","","","","","","","","",""
"","","","","63dafeda84d9a5e684adb6be","bdp_trlrn","Tue Mar 14 2023 21:31:39 GMT-0400 (Eastern Daylight Time)","765345","Trustworthy,Untrustworthy","instructions","1","16067","0.0-1.0","","[{""page_index"":0,""viewing_time"":16062}]","16062","","","","","","","","","","","","","",""
"fullscreenenter","2","18594","fullscreenenter","63dafeda84d9a5e684adb6be","bdp_trlrn","Tue Mar 14 2023 21:31:39 GMT-0400 (Eastern Daylight Time)","765345","Trustworthy,Untrustworthy","","","","","","","","","","","","","","","","","","","","",""
"","","","","63dafeda84d9a5e684adb6be","bdp_trlrn","Tue Mar 14 2023 21:31:39 GMT-0400 (Eastern Daylight Time)","765345","Trustworthy,Untrustworthy","fullscreen","2","19593","0.0-2.0","","","","true","","","","","","","","","","","","",""
"","","","","63dafeda84d9a5e684adb6be","bdp_trlrn","Tue Mar 14 2023 21:31:39 GMT-0400 (Eastern Daylight Time)","765345","Trustworthy,Untrustworthy","instructions","3","48165","0.0-4.0","","[{""page_index"":0,""viewing_time"":12693},{""page_index"":1,""viewing_time"":15877}]","28570","","","","","","","","","","","","","",""
"","","","","63dafeda84d9a5e684adb6be","bdp_trlrn","Tue Mar 14 2023 21:31:39 GMT-0400 (Eastern Daylight Time)","765345","Trustworthy,Untrustworthy","instructions","4","49279","0.0-5.0","","[{""page_index"":0,""viewing_time"":1112}]","1112","","","","","","","","","","","","","",""
"","","","rating","63dafeda84d9a5e684adb6be","bdp_trlrn","Tue Mar 14 2023 21:31:39 GMT-0400 (Eastern Daylight Time)","765345","Trustworthy,Untrustworthy","image-keyboard-response","5","52519","0.0-6.0-1.0","","","3131","","trustrating_stim/white_00340_940422_fa_edt.bmp","1","","","","","","","","","","",""
"","","","ratingFB","63dafeda84d9a5e684adb6be","bdp_trlrn","Tue Mar 14 2023 21:31:39 GMT-0400 (Eastern Daylight Time)","765345","Trustworthy,Untrustworthy","image-keyboard-response","6","52721","0.0-6.0-2.0","","","null","","trustrating_stim/white_00340_940422_fa_edt.bmp","null","","","","","","","","","","",""
"","","","rating","63dafeda84d9a5e684adb6be","bdp_trlrn","Tue Mar 14 2023 21:31:39 GMT-0400 (Eastern Daylight Time)","765345","Trustworthy,Untrustworthy","image-keyboard-response","7","54844","0.0-6.0-1.1","","","2018","","trustrating_stim/white_00757_941201_fa_edt.bmp","3","","","","","","","","","","",""
"","","","ratingFB","63dafeda84d9a5e684adb6be","bdp_trlrn","Tue Mar 14 2023 21:31:39 GMT-0400 (Eastern Daylight Time)","765345","Trustworthy,Untrustworthy","image-keyboard-response","8","55049","0.0-6.0-2.1","","","null","","trustrating_stim/white_00757_941201_fa_edt.bmp","null","","","","","","","","","","",""
"","","","rating","63dafeda84d9a5e684adb6be","bdp_trlrn","Tue Mar 14 2023 21:31:39 GMT-0400 (Eastern Daylight Time)","765345","Trustworthy,Untrustworthy","image-keyboard-response","9","56787","0.0-6.0-1.2","","","1633","","trustrating_stim/white_00129_931230_fb_edt.bmp","6","","","","","","","","","","",""
"","","","ratingFB","63dafeda84d9a5e684adb6be","bdp_trlrn","Tue Mar 14 2023 21:31:39 GMT-0400 (Eastern Daylight Time)","765345","Trustworthy,Untrustworthy","image-keyboard-response","10","56993","0.0-6.0-2.2","","","null","","trustrating_stim/white_00129_931230_fb_edt.bmp","null","","","","","","","","","","",""
"","","","rating","63dafeda84d9a5e684adb6be","bdp_trlrn","Tue Mar 14 2023 21:31:39 GMT-0400 (Eastern Daylight Time)","765345","Trustworthy,Untrustworthy","image-keyboard-response","11","58723","0.0-6.0-1.3","","","1624","","trustrating_stim/white_00761_941201_fb_edt.bmp","5","","","","","","","","","","",""
"","","","ratingFB","63dafeda84d9a5e684adb6be","bdp_trlrn","Tue Mar 14 2023 21:31:39 GMT-0400 (Eastern Daylight Time)","765345","Trustworthy,Untrustworthy","image-keyboard-response","12","58929","0.0-6.0-2.3","","","null","","trustrating_stim/white_00761_941201_fb_edt.bmp","null","","","","","","","","","","",""
"","","","rating","63dafeda84d9a5e684adb6be","bdp_trlrn","Tue Mar 14 2023 21:31:39 GMT-0400 (Eastern Daylight Time)","765345","Trustworthy,Untrustworthy","image-keyboard-response","13","60581","0.0-6.0-1.4","","","1546","","trustrating_stim/white_mw060.bmp","2","","","","","","","","","","",""
"","","","ratingFB","63dafeda84d9a5e684adb6be","bdp_trlrn","Tue Mar 14 2023 21:31:39 GMT-0400 (Eastern Daylight Time)","765345","Trustworthy,Untrustworthy","image-keyboard-response","14","60785","0.0-6.0-2.4","","","null","","trustrating_stim/white_mw060.bmp","null","","","","","","","","","","",""
"","","","rating","63dafeda84d9a5e684adb6be","bdp_trlrn","Tue Mar 14 2023 21:31:39 GMT-0400 (Eastern Daylight Time)","765345","Trustworthy,Untrustworthy","image-keyboard-response","15","63439","0.0-6.0-1.5","","","2549","","trustrating_stim/white_00807_941205_fb_edt.bmp","5","","","","","","","","","","",""
"","","","ratingFB","63dafeda84d9a5e684adb6be","bdp_trlrn","Tue Mar 14 2023 21:31:39 GMT-0400 (Eastern Daylight Time)","765345","Trustworthy,Untrustworthy","image-keyboard-response","16","63641","0.0-6.0-2.5","","","null","","trustrating_stim/white_00807_941205_fb_edt.bmp","null","","","","","","","","","","",""
"","","","rating","63dafeda84d9a5e684adb6be","bdp_trlrn","Tue Mar 14 2023 21:31:39 GMT-0400 (Eastern Daylight Time)","765345","Trustworthy,Untrustworthy","image-keyboard-response","17","65399","0.0-6.0-1.6","","","1653","","trustrating_stim/white_00659_941121_fa_edt.bmp","1","","","","","","","","","","",""
"","","","ratingFB","63dafeda84d9a5e684adb6be","bdp_trlrn","Tue Mar 14 2023 21:31:39 GMT-0400 (Eastern Daylight Time)","765345","Trustworthy,Untrustworthy","image-keyboard-response","18","65601","0.0-6.0-2.6","","","null","","trustrating_stim/white_00659_941121_fa_edt.bmp","null","","","","","","","","","","",""
"","","","rating","63dafeda84d9a5e684adb6be","bdp_trlrn","Tue Mar 14 2023 21:31:39 GMT-0400 (Eastern Daylight Time)","765345","Trustworthy,Untrustworthy","image-keyboard-response","19","68106","0.0-6.0-1.7","","","2400","","trustrating_stim/white_00577_940928_fa_edt.bmp","4","","","","","","","","","","",""
"","","","ratingFB","63dafeda84d9a5e684adb6be","bdp_trlrn","Tue Mar 14 2023 21:31:39 GMT-0400 (Eastern Daylight Time)","765345","Trustworthy,Untrustworthy","image-keyboard-response","20","68313","0.0-6.0-2.7","","","null","","trustrating_stim/white_00577_940928_fa_edt.bmp","null","","","","","","","","","","",""
"","","","rating","63dafeda84d9a5e684adb6be","bdp_trlrn","Tue Mar 14 2023 21:31:39 GMT-0400 (Eastern Daylight Time)","765345","Trustworthy,Untrustworthy","image-keyboard-response","21","70373","0.0-6.0-1.8","","","1947","","trustrating_stim/white_mw056.bmp","7","","","","","","","","","","",""
"","","","ratingFB","63dafeda84d9a5e684adb6be","bdp_trlrn","Tue Mar 14 2023 21:31:39 GMT-0400 (Eastern Daylight Time)","765345","Trustworthy,Untrustworthy","image-keyboard-response","22","70577","0.0-6.0-2.8","","","null","","trustrating_stim/white_mw056.bmp","null","","","","","","","","","","",""
"","","","rating","63dafeda84d9a5e684adb6be","bdp_trlrn","Tue Mar 14 2023 21:31:39 GMT-0400 (Eastern Daylight Time)","765345","Trustworthy,Untrustworthy","image-keyboard-response","23","72748","0.0-6.0-1.9","","","2065","","trustrating_stim/white_mw066.bmp","5","","","","","","","","","","",""
"","","","ratingFB","63dafeda84d9a5e684adb6be","bdp_trlrn","Tue Mar 14 2023 21:31:39 GMT-0400 (Eastern Daylight Time)","765345","Trustworthy,Untrustworthy","image-keyboard-response","24","72953","0.0-6.0-2.9","","","null","","trustrating_stim/white_mw066.bmp","null","","","","","","","","","","",""
"","","","rating","63dafeda84d9a5e684adb6be","bdp_trlrn","Tue Mar 14 2023 21:31:39 GMT-0400 (Eastern Daylight Time)","765345","Trustworthy,Untrustworthy","image-keyboard-response","25","75016","0.0-6.0-1.10","","","1957","","trustrating_stim/white_00898_960530_fa_edt.bmp","7","","","","","","","","","","",""
"","","","ratingFB","63dafeda84d9a5e684adb6be","bdp_trlrn","Tue Mar 14 2023 21:31:39 GMT-0400 (Eastern Daylight Time)","765345","Trustworthy,Untrustworthy","image-keyboard-response","26","75225","0.0-6.0-2.10","","","null","","trustrating_stim/white_00898_960530_fa_edt.bmp","null","","","","","","","","","","",""
"","","","rating","63dafeda84d9a5e684adb6be","bdp_trlrn","Tue Mar 14 2023 21:31:39 GMT-0400 (Eastern Daylight Time)","765345","Trustworthy,Untrustworthy","image-keyboard-response","27","76976","0.0-6.0-1.11","","","1646","","trustrating_stim/white_mw033.bmp","3","","","","","","","","","","",""
"","","","ratingFB","63dafeda84d9a5e684adb6be","bdp_trlrn","Tue Mar 14 2023 21:31:39 GMT-0400 (Eastern Daylight Time)","765345","Trustworthy,Untrustworthy","image-keyboard-response","28","77185","0.0-6.0-2.11","","","null","","trustrating_stim/white_mw033.bmp","null","","","","","","","","","","",""
"","","","rating","63dafeda84d9a5e684adb6be","bdp_trlrn","Tue Mar 14 2023 21:31:39 GMT-0400 (Eastern Daylight Time)","765345","Trustworthy,Untrustworthy","image-keyboard-response","29","79291","0.0-6.0-1.12","","","2001","","trustrating_stim/white_mw097.bmp","1","","","","","","","","","","",""
"","","","ratingFB","63dafeda84d9a5e684adb6be","bdp_trlrn","Tue Mar 14 2023 21:31:39 GMT-0400 (Eastern Daylight Time)","765345","Trustworthy,Untrustworthy","image-keyboard-response","30","79497","0.0-6.0-2.12","","","null","","trustrating_stim/white_mw097.bmp","null","","","","","","","","","","",""
"","","","rating","63dafeda84d9a5e684adb6be","bdp_trlrn","Tue Mar 14 2023 21:31:39 GMT-0400 (Eastern Daylight Time)","765345","Trustworthy,Untrustworthy","image-keyboard-response","31","81450","0.0-6.0-1.13","","","1847","","trustrating_stim/white_00109_931230_fa_edt.bmp","7","","","","","","","","","","",""
"","","","ratingFB","63dafeda84d9a5e684adb6be","bdp_trlrn","Tue Mar 14 2023 21:31:39 GMT-0400 (Eastern Daylight Time)","765345","Trustworthy,Untrustworthy","image-keyboard-response","32","81657","0.0-6.0-2.13","","","null","","trustrating_stim/white_00109_931230_fa_edt.bmp","null","","","","","","","","","","",""
"","","","rating","63dafeda84d9a5e684adb6be","bdp_trlrn","Tue Mar 14 2023 21:31:39 GMT-0400 (Eastern Daylight Time)","765345","Trustworthy,Untrustworthy","image-keyboard-response","33","83552","0.0-6.0-1.14","","","1790","","trustrating_stim/white_mw084.bmp","3","","","","","","","","","","",""
"","","","ratingFB","63dafeda84d9a5e684adb6be","bdp_trlrn","Tue Mar 14 2023 21:31:39 GMT-0400 (Eastern Daylight Time)","765345","Trustworthy,Untrustworthy","image-keyboard-response","34","83761","0.0-6.0-2.14","","","null","","trustrating_stim/white_mw084.bmp","null","","","","","","","","","","",""
"","","","rating","63dafeda84d9a5e684adb6be","bdp_trlrn","Tue Mar 14 2023 21:31:39 GMT-0400 (Eastern Daylight Time)","765345","Trustworthy,Untrustworthy","image-keyboard-response","35","86638","0.0-6.0-1.15","","","2771","","trustrating_stim/white_00519_940519_fb_edt.bmp","6","","","","","","","","","","",""
"","","","ratingFB","63dafeda84d9a5e684adb6be","bdp_trlrn","Tue Mar 14 2023 21:31:39 GMT-0400 (Eastern Daylight Time)","765345","Trustworthy,Untrustworthy","image-keyboard-response","36","86842","0.0-6.0-2.15","","","null","","trustrating_stim/white_00519_940519_fb_edt.bmp","null","","","","","","","","","","",""
"","","","rating","63dafeda84d9a5e684adb6be","bdp_trlrn","Tue Mar 14 2023 21:31:39 GMT-0400 (Eastern Daylight Time)","765345","Trustworthy,Untrustworthy","image-keyboard-response","37","90816","0.0-6.0-1.16","","","3870","","trustrating_stim/white_00299_940422_fa_edt.bmp","6","","","","","","","","","","",""
"","","","ratingFB","63dafeda84d9a5e684adb6be","bdp_trlrn","Tue Mar 14 2023 21:31:39 GMT-0400 (Eastern Daylight Time)","765345","Trustworthy,Untrustworthy","image-keyboard-response","38","91025","0.0-6.0-2.16","","","null","","trustrating_stim/white_00299_940422_fa_edt.bmp","null","","","","","","","","","","",""
"","","","rating","63dafeda84d9a5e684adb6be","bdp_trlrn","Tue Mar 14 2023 21:31:39 GMT-0400 (Eastern Daylight Time)","765345","Trustworthy,Untrustworthy","image-keyboard-response","39","93254","0.0-6.0-1.17","","","2124","","trustrating_stim/white_mw048.bmp","2","","","","","","","","","","",""
"","","","ratingFB","63dafeda84d9a5e684adb6be","bdp_trlrn","Tue Mar 14 2023 21:31:39 GMT-0400 (Eastern Daylight Time)","765345","Trustworthy,Untrustworthy","image-keyboard-response","40","93457","0.0-6.0-2.17","","","null","","trustrating_stim/white_mw048.bmp","null","","","","","","","","","","",""
"","","","rating","63dafeda84d9a5e684adb6be","bdp_trlrn","Tue Mar 14 2023 21:31:39 GMT-0400 (Eastern Daylight Time)","765345","Trustworthy,Untrustworthy","image-keyboard-response","41","95308","0.0-6.0-1.18","","","1746","","trustrating_stim/white_00223_940128_fb_edt.bmp","1","","","","","","","","","","",""
"","","","ratingFB","63dafeda84d9a5e684adb6be","bdp_trlrn","Tue Mar 14 2023 21:31:39 GMT-0400 (Eastern Daylight Time)","765345","Trustworthy,Untrustworthy","image-keyboard-response","42","95513","0.0-6.0-2.18","","","null","","trustrating_stim/white_00223_940128_fb_edt.bmp","null","","","","","","","","","","",""
"","","","rating","63dafeda84d9a5e684adb6be","bdp_trlrn","Tue Mar 14 2023 21:31:39 GMT-0400 (Eastern Daylight Time)","765345","Trustworthy,Untrustworthy","image-keyboard-response","43","98236","0.0-6.0-1.19","","","2618","","trustrating_stim/white_00785_941205_fb_edt.bmp","3","","","","","","","","","","",""
"","","","ratingFB","63dafeda84d9a5e684adb6be","bdp_trlrn","Tue Mar 14 2023 21:31:39 GMT-0400 (Eastern Daylight Time)","765345","Trustworthy,Untrustworthy","image-keyboard-response","44","98441","0.0-6.0-2.19","","","null","","trustrating_stim/white_00785_941205_fb_edt.bmp","null","","","","","","","","","","",""
"","","","rating","63dafeda84d9a5e684adb6be","bdp_trlrn","Tue Mar 14 2023 21:31:39 GMT-0400 (Eastern Daylight Time)","765345","Trustworthy,Untrustworthy","image-keyboard-response","45","100129","0.0-6.0-1.20","","","1583","","trustrating_stim/white_mw046.bmp","4","","","","","","","","","","",""
"","","","ratingFB","63dafeda84d9a5e684adb6be","bdp_trlrn","Tue Mar 14 2023 21:31:39 GMT-0400 (Eastern Daylight Time)","765345","Trustworthy,Untrustworthy","image-keyboard-response","46","100337","0.0-6.0-2.20","","","null","","trustrating_stim/white_mw046.bmp","null","","","","","","","","","","",""
"","","","rating","63dafeda84d9a5e684adb6be","bdp_trlrn","Tue Mar 14 2023 21:31:39 GMT-0400 (Eastern Daylight Time)","765345","Trustworthy,Untrustworthy","image-keyboard-response","47","102592","0.0-6.0-1.21","","","2150","","trustrating_stim/white_mw071.bmp","5","","","","","","","","","","",""
"","","","ratingFB","63dafeda84d9a5e684adb6be","bdp_trlrn","Tue Mar 14 2023 21:31:39 GMT-0400 (Eastern Daylight Time)","765345","Trustworthy,Untrustworthy","image-keyboard-response","48","102801","0.0-6.0-2.21","","","null","","trustrating_stim/white_mw071.bmp","null","","","","","","","","","","",""
"","","","rating","63dafeda84d9a5e684adb6be","bdp_trlrn","Tue Mar 14 2023 21:31:39 GMT-0400 (Eastern Daylight Time)","765345","Trustworthy,Untrustworthy","image-keyboard-response","49","105050","0.0-6.0-1.22","","","2144","","trustrating_stim/white_00602_940928_fb_edt.bmp","8","","","","","","","","","","",""
"","","","ratingFB","63dafeda84d9a5e684adb6be","bdp_trlrn","Tue Mar 14 2023 21:31:39 GMT-0400 (Eastern Daylight Time)","765345","Trustworthy,Untrustworthy","image-keyboard-response","50","105257","0.0-6.0-2.22","","","null","","trustrating_stim/white_00602_940928_fb_edt.bmp","null","","","","","","","","","","",""
"","","","rating","63dafeda84d9a5e684adb6be","bdp_trlrn","Tue Mar 14 2023 21:31:39 GMT-0400 (Eastern Daylight Time)","765345","Trustworthy,Untrustworthy","image-keyboard-response","51","107001","0.0-6.0-1.23","","","1638","","trustrating_stim/white_mw063.bmp","2","","","","","","","","","","",""
"","","","ratingFB","63dafeda84d9a5e684adb6be","bdp_trlrn","Tue Mar 14 2023 21:31:39 GMT-0400 (Eastern Daylight Time)","765345","Trustworthy,Untrustworthy","image-keyboard-response","52","107209","0.0-6.0-2.23","","","null","","trustrating_stim/white_mw063.bmp","null","","","","","","","","","","",""
"","","","rating","63dafeda84d9a5e684adb6be","bdp_trlrn","Tue Mar 14 2023 21:31:39 GMT-0400 (Eastern Daylight Time)","765345","Trustworthy,Untrustworthy","image-keyboard-response","53","109214","0.0-6.0-1.24","","","1899","","trustrating_stim/white_mw049.bmp","6","","","","","","","","","","",""
"","","","ratingFB","63dafeda84d9a5e684adb6be","bdp_trlrn","Tue Mar 14 2023 21:31:39 GMT-0400 (Eastern Daylight Time)","765345","Trustworthy,Untrustworthy","image-keyboard-response","54","109417","0.0-6.0-2.24","","","null","","trustrating_stim/white_mw049.bmp","null","","","","","","","","","","",""
"","","","rating","63dafeda84d9a5e684adb6be","bdp_trlrn","Tue Mar 14 2023 21:31:39 GMT-0400 (Eastern Daylight Time)","765345","Trustworthy,Untrustworthy","image-keyboard-response","55","112483","0.0-6.0-1.25","","","2961","","trustrating_stim/white_mw099.bmp","4","","","","","","","","","","",""
"","","","ratingFB","63dafeda84d9a5e684adb6be","bdp_trlrn","Tue Mar 14 2023 21:31:39 GMT-0400 (Eastern Daylight Time)","765345","Trustworthy,Untrustworthy","image-keyboard-response","56","112689","0.0-6.0-2.25","","","null","","trustrating_stim/white_mw099.bmp","null","","","","","","","","","","",""
"","","","rating","63dafeda84d9a5e684adb6be","bdp_trlrn","Tue Mar 14 2023 21:31:39 GMT-0400 (Eastern Daylight Time)","765345","Trustworthy,Untrustworthy","image-keyboard-response","57","114547","0.0-6.0-1.26","","","1752","","trustrating_stim/white_mw053.bmp","5","","","","","","","","","","",""
"","","","ratingFB","63dafeda84d9a5e684adb6be","bdp_trlrn","Tue Mar 14 2023 21:31:39 GMT-0400 (Eastern Daylight Time)","765345","Trustworthy,Untrustworthy","image-keyboard-response","58","114753","0.0-6.0-2.26","","","null","","trustrating_stim/white_mw053.bmp","null","","","","","","","","","","",""
"","","","rating","63dafeda84d9a5e684adb6be","bdp_trlrn","Tue Mar 14 2023 21:31:39 GMT-0400 (Eastern Daylight Time)","765345","Trustworthy,Untrustworthy","image-keyboard-response","59","117894","0.0-6.0-1.27","","","3036","","trustrating_stim/white_00120_931230_fa_edt.bmp","6","","","","","","","","","","",""
"","","","ratingFB","63dafeda84d9a5e684adb6be","bdp_trlrn","Tue Mar 14 2023 21:31:39 GMT-0400 (Eastern Daylight Time)","765345","Trustworthy,Untrustworthy","image-keyboard-response","60","118097","0.0-6.0-2.27","","","null","","trustrating_stim/white_00120_931230_fa_edt.bmp","null","","","","","","","","","","",""
"","","","rating","63dafeda84d9a5e684adb6be","bdp_trlrn","Tue Mar 14 2023 21:31:39 GMT-0400 (Eastern Daylight Time)","765345","Trustworthy,Untrustworthy","image-keyboard-response","61","119956","0.0-6.0-1.28","","","1753","","trustrating_stim/white_mw035.bmp","5","","","","","","","","","","",""
"","","","ratingFB","63dafeda84d9a5e684adb6be","bdp_trlrn","Tue Mar 14 2023 21:31:39 GMT-0400 (Eastern Daylight Time)","765345","Trustworthy,Untrustworthy","image-keyboard-response","62","120162","0.0-6.0-2.28","","","null","","trustrating_stim/white_mw035.bmp","null","","","","","","","","","","",""
"","","","rating","63dafeda84d9a5e684adb6be","bdp_trlrn","Tue Mar 14 2023 21:31:39 GMT-0400 (Eastern Daylight Time)","765345","Trustworthy,Untrustworthy","image-keyboard-response","63","122512","0.0-6.0-1.29","","","2246","","trustrating_stim/white_mw089.bmp","2","","","","","","","","","","",""
"","","","ratingFB","63dafeda84d9a5e684adb6be","bdp_trlrn","Tue Mar 14 2023 21:31:39 GMT-0400 (Eastern Daylight Time)","765345","Trustworthy,Untrustworthy","image-keyboard-response","64","122721","0.0-6.0-2.29","","","null","","trustrating_stim/white_mw089.bmp","null","","","","","","","","","","",""
"","","","rating","63dafeda84d9a5e684adb6be","bdp_trlrn","Tue Mar 14 2023 21:31:39 GMT-0400 (Eastern Daylight Time)","765345","Trustworthy,Untrustworthy","image-keyboard-response","65","125226","0.0-6.0-1.30","","","2401","","trustrating_stim/white_mw033.bmp","4","","","","","","","","","","",""
"","","","ratingFB","63dafeda84d9a5e684adb6be","bdp_trlrn","Tue Mar 14 2023 21:31:39 GMT-0400 (Eastern Daylight Time)","765345","Trustworthy,Untrustworthy","image-keyboard-response","66","125433","0.0-6.0-2.30","","","null","","trustrating_stim/white_mw033.bmp","null","","","","","","","","","","",""
"","","","rating","63dafeda84d9a5e684adb6be","bdp_trlrn","Tue Mar 14 2023 21:31:39 GMT-0400 (Eastern Daylight Time)","765345","Trustworthy,Untrustworthy","image-keyboard-response","67","128006","0.0-6.0-1.31","","","2468","","trustrating_stim/white_mw084.bmp","3","","","","","","","","","","",""
"","","","ratingFB","63dafeda84d9a5e684adb6be","bdp_trlrn","Tue Mar 14 2023 21:31:39 GMT-0400 (Eastern Daylight Time)","765345","Trustworthy,Untrustworthy","image-keyboard-response","68","128210","0.0-6.0-2.31","","","null","","trustrating_stim/white_mw084.bmp","null","","","","","","","","","","",""
"","","","rating","63dafeda84d9a5e684adb6be","bdp_trlrn","Tue Mar 14 2023 21:31:39 GMT-0400 (Eastern Daylight Time)","765345","Trustworthy,Untrustworthy","image-keyboard-response","69","130716","0.0-6.0-1.32","","","2402","","trustrating_stim/white_00340_940422_fa_edt.bmp","1","","","","","","","","","","",""
"","","","ratingFB","63dafeda84d9a5e684adb6be","bdp_trlrn","Tue Mar 14 2023 21:31:39 GMT-0400 (Eastern Daylight Time)","765345","Trustworthy,Untrustworthy","image-keyboard-response","70","130921","0.0-6.0-2.32","","","null","","trustrating_stim/white_00340_940422_fa_edt.bmp","null","","","","","","","","","","",""
"","","","rating","63dafeda84d9a5e684adb6be","bdp_trlrn","Tue Mar 14 2023 21:31:39 GMT-0400 (Eastern Daylight Time)","765345","Trustworthy,Untrustworthy","image-keyboard-response","71","133270","0.0-6.0-1.33","","","2244","","trustrating_stim/white_00807_941205_fb_edt.bmp","3","","","","","","","","","","",""
"","","","ratingFB","63dafeda84d9a5e684adb6be","bdp_trlrn","Tue Mar 14 2023 21:31:39 GMT-0400 (Eastern Daylight Time)","765345","Trustworthy,Untrustworthy","image-keyboard-response","72","133473","0.0-6.0-2.33","","","null","","trustrating_stim/white_00807_941205_fb_edt.bmp","null","","","","","","","","","","",""
"","","","rating","63dafeda84d9a5e684adb6be","bdp_trlrn","Tue Mar 14 2023 21:31:39 GMT-0400 (Eastern Daylight Time)","765345","Trustworthy,Untrustworthy","image-keyboard-response","73","137168","0.0-6.0-1.34","","","3590","","trustrating_stim/white_00299_940422_fa_edt.bmp","5","","","","","","","","","","",""
"","","","ratingFB","63dafeda84d9a5e684adb6be","bdp_trlrn","Tue Mar 14 2023 21:31:39 GMT-0400 (Eastern Daylight Time)","765345","Trustworthy,Untrustworthy","image-keyboard-response","74","137377","0.0-6.0-2.34","","","null","","trustrating_stim/white_00299_940422_fa_edt.bmp","null","","","","","","","","","","",""
"","","","rating","63dafeda84d9a5e684adb6be","bdp_trlrn","Tue Mar 14 2023 21:31:39 GMT-0400 (Eastern Daylight Time)","765345","Trustworthy,Untrustworthy","image-keyboard-response","75","139359","0.0-6.0-1.35","","","1877","","trustrating_stim/white_00785_941205_fb_edt.bmp","1","","","","","","","","","","",""
"","","","ratingFB","63dafeda84d9a5e684adb6be","bdp_trlrn","Tue Mar 14 2023 21:31:39 GMT-0400 (Eastern Daylight Time)","765345","Trustworthy,Untrustworthy","image-keyboard-response","76","139561","0.0-6.0-2.35","","","null","","trustrating_stim/white_00785_941205_fb_edt.bmp","null","","","","","","","","","","",""
"","","","rating","63dafeda84d9a5e684adb6be","bdp_trlrn","Tue Mar 14 2023 21:31:39 GMT-0400 (Eastern Daylight Time)","765345","Trustworthy,Untrustworthy","image-keyboard-response","77","141368","0.0-6.0-1.36","","","1702","","trustrating_stim/white_00223_940128_fb_edt.bmp","1","","","","","","","","","","",""
"","","","ratingFB","63dafeda84d9a5e684adb6be","bdp_trlrn","Tue Mar 14 2023 21:31:39 GMT-0400 (Eastern Daylight Time)","765345","Trustworthy,Untrustworthy","image-keyboard-response","78","141577","0.0-6.0-2.36","","","null","","trustrating_stim/white_00223_940128_fb_edt.bmp","null","","","","","","","","","","",""
"","","","rating","63dafeda84d9a5e684adb6be","bdp_trlrn","Tue Mar 14 2023 21:31:39 GMT-0400 (Eastern Daylight Time)","765345","Trustworthy,Untrustworthy","image-keyboard-response","79","143748","0.0-6.0-1.37","","","2066","","trustrating_stim/white_00519_940519_fb_edt.bmp","8","","","","","","","","","","",""
"","","","ratingFB","63dafeda84d9a5e684adb6be","bdp_trlrn","Tue Mar 14 2023 21:31:39 GMT-0400 (Eastern Daylight Time)","765345","Trustworthy,Untrustworthy","image-keyboard-response","80","143953","0.0-6.0-2.37","","","null","","trustrating_stim/white_00519_940519_fb_edt.bmp","null","","","","","","","","","","",""
"","","","rating","63dafeda84d9a5e684adb6be","bdp_trlrn","Tue Mar 14 2023 21:31:39 GMT-0400 (Eastern Daylight Time)","765345","Trustworthy,Untrustworthy","image-keyboard-response","81","145556","0.0-6.0-1.38","","","1497","","trustrating_stim/white_00898_960530_fa_edt.bmp","4","","","","","","","","","","",""
"","","","ratingFB","63dafeda84d9a5e684adb6be","bdp_trlrn","Tue Mar 14 2023 21:31:39 GMT-0400 (Eastern Daylight Time)","765345","Trustworthy,Untrustworthy","image-keyboard-response","82","145761","0.0-6.0-2.38","","","null","","trustrating_stim/white_00898_960530_fa_edt.bmp","null","","","","","","","","","","",""
"","","","rating","63dafeda84d9a5e684adb6be","bdp_trlrn","Tue Mar 14 2023 21:31:39 GMT-0400 (Eastern Daylight Time)","765345","Trustworthy,Untrustworthy","image-keyboard-response","83","147869","0.0-6.0-1.39","","","2002","","trustrating_stim/white_mw046.bmp","5","","","","","","","","","","",""
"","","","ratingFB","63dafeda84d9a5e684adb6be","bdp_trlrn","Tue Mar 14 2023 21:31:39 GMT-0400 (Eastern Daylight Time)","765345","Trustworthy,Untrustworthy","image-keyboard-response","84","148073","0.0-6.0-2.39","","","null","","trustrating_stim/white_mw046.bmp","null","","","","","","","","","","",""
"","","","rating","63dafeda84d9a5e684adb6be","bdp_trlrn","Tue Mar 14 2023 21:31:39 GMT-0400 (Eastern Daylight Time)","765345","Trustworthy,Untrustworthy","image-keyboard-response","85","150767","0.0-6.0-1.40","","","2589","","trustrating_stim/white_mw035.bmp","3","","","","","","","","","","",""
"","","","ratingFB","63dafeda84d9a5e684adb6be","bdp_trlrn","Tue Mar 14 2023 21:31:39 GMT-0400 (Eastern Daylight Time)","765345","Trustworthy,Untrustworthy","image-keyboard-response","86","150969","0.0-6.0-2.40","","","null","","trustrating_stim/white_mw035.bmp","null","","","","","","","","","","",""
"","","","rating","63dafeda84d9a5e684adb6be","bdp_trlrn","Tue Mar 14 2023 21:31:39 GMT-0400 (Eastern Daylight Time)","765345","Trustworthy,Untrustworthy","image-keyboard-response","87","152683","0.0-6.0-1.41","","","1609","","trustrating_stim/white_mw097.bmp","1","","","","","","","","","","",""
"","","","ratingFB","63dafeda84d9a5e684adb6be","bdp_trlrn","Tue Mar 14 2023 21:31:39 GMT-0400 (Eastern Daylight Time)","765345","Trustworthy,Untrustworthy","image-keyboard-response","88","152889","0.0-6.0-2.41","","","null","","trustrating_stim/white_mw097.bmp","null","","","","","","","","","","",""
"","","","rating","63dafeda84d9a5e684adb6be","bdp_trlrn","Tue Mar 14 2023 21:31:39 GMT-0400 (Eastern Daylight Time)","765345","Trustworthy,Untrustworthy","image-keyboard-response","89","154858","0.0-6.0-1.42","","","1863","","trustrating_stim/white_mw089.bmp","2","","","","","","","","","","",""
"","","","ratingFB","63dafeda84d9a5e684adb6be","bdp_trlrn","Tue Mar 14 2023 21:31:39 GMT-0400 (Eastern Daylight Time)","765345","Trustworthy,Untrustworthy","image-keyboard-response","90","155065","0.0-6.0-2.42","","","null","","trustrating_stim/white_mw089.bmp","null","","","","","","","","","","",""
"","","","rating","63dafeda84d9a5e684adb6be","bdp_trlrn","Tue Mar 14 2023 21:31:39 GMT-0400 (Eastern Daylight Time)","765345","Trustworthy,Untrustworthy","image-keyboard-response","91","156631","0.0-6.0-1.43","","","1461","","trustrating_stim/white_00659_941121_fa_edt.bmp","1","","","","","","","","","","",""
"","","","ratingFB","63dafeda84d9a5e684adb6be","bdp_trlrn","Tue Mar 14 2023 21:31:39 GMT-0400 (Eastern Daylight Time)","765345","Trustworthy,Untrustworthy","image-keyboard-response","92","156833","0.0-6.0-2.43","","","null","","trustrating_stim/white_00659_941121_fa_edt.bmp","null","","","","","","","","","","",""
"","","","rating","63dafeda84d9a5e684adb6be","bdp_trlrn","Tue Mar 14 2023 21:31:39 GMT-0400 (Eastern Daylight Time)","765345","Trustworthy,Untrustworthy","image-keyboard-response","93","158875","0.0-6.0-1.44","","","1937","","trustrating_stim/white_00129_931230_fb_edt.bmp","7","","","","","","","","","","",""
"","","","ratingFB","63dafeda84d9a5e684adb6be","bdp_trlrn","Tue Mar 14 2023 21:31:39 GMT-0400 (Eastern Daylight Time)","765345","Trustworthy,Untrustworthy","image-keyboard-response","94","159081","0.0-6.0-2.44","","","null","","trustrating_stim/white_00129_931230_fb_edt.bmp","null","","","","","","","","","","",""
"","","","rating","63dafeda84d9a5e684adb6be","bdp_trlrn","Tue Mar 14 2023 21:31:39 GMT-0400 (Eastern Daylight Time)","765345","Trustworthy,Untrustworthy","image-keyboard-response","95","162144","0.0-6.0-1.45","","","2957","","trustrating_stim/white_00120_931230_fa_edt.bmp","8","","","","","","","","","","",""
"","","","ratingFB","63dafeda84d9a5e684adb6be","bdp_trlrn","Tue Mar 14 2023 21:31:39 GMT-0400 (Eastern Daylight Time)","765345","Trustworthy,Untrustworthy","image-keyboard-response","96","162353","0.0-6.0-2.45","","","null","","trustrating_stim/white_00120_931230_fa_edt.bmp","null","","","","","","","","","","",""
"","","","rating","63dafeda84d9a5e684adb6be","bdp_trlrn","Tue Mar 14 2023 21:31:39 GMT-0400 (Eastern Daylight Time)","765345","Trustworthy,Untrustworthy","image-keyboard-response","97","164037","0.0-6.0-1.46","","","1578","","trustrating_stim/white_mw063.bmp","1","","","","","","","","","","",""
"","","","ratingFB","63dafeda84d9a5e684adb6be","bdp_trlrn","Tue Mar 14 2023 21:31:39 GMT-0400 (Eastern Daylight Time)","765345","Trustworthy,Untrustworthy","image-keyboard-response","98","164241","0.0-6.0-2.46","","","null","","trustrating_stim/white_mw063.bmp","null","","","","","","","","","","",""
"","","","rating","63dafeda84d9a5e684adb6be","bdp_trlrn","Tue Mar 14 2023 21:31:39 GMT-0400 (Eastern Daylight Time)","765345","Trustworthy,Untrustworthy","image-keyboard-response","99","166718","0.0-6.0-1.47","","","2372","","trustrating_stim/white_mw071.bmp","5","","","","","","","","","","",""
"","","","ratingFB","63dafeda84d9a5e684adb6be","bdp_trlrn","Tue Mar 14 2023 21:31:39 GMT-0400 (Eastern Daylight Time)","765345","Trustworthy,Untrustworthy","image-keyboard-response","100","166921","0.0-6.0-2.47","","","null","","trustrating_stim/white_mw071.bmp","null","","","","","","","","","","",""
"","","","rating","63dafeda84d9a5e684adb6be","bdp_trlrn","Tue Mar 14 2023 21:31:39 GMT-0400 (Eastern Daylight Time)","765345","Trustworthy,Untrustworthy","image-keyboard-response","101","169178","0.0-6.0-1.48","","","2152","","trustrating_stim/white_00761_941201_fb_edt.bmp","4","","","","","","","","","","",""
"","","","ratingFB","63dafeda84d9a5e684adb6be","bdp_trlrn","Tue Mar 14 2023 21:31:39 GMT-0400 (Eastern Daylight Time)","765345","Trustworthy,Untrustworthy","image-keyboard-response","102","169385","0.0-6.0-2.48","","","null","","trustrating_stim/white_00761_941201_fb_edt.bmp","null","","","","","","","","","","",""
"","","","rating","63dafeda84d9a5e684adb6be","bdp_trlrn","Tue Mar 14 2023 21:31:39 GMT-0400 (Eastern Daylight Time)","765345","Trustworthy,Untrustworthy","image-keyboard-response","103","171458","0.0-6.0-1.49","","","1968","","trustrating_stim/white_mw066.bmp","7","","","","","","","","","","",""
"","","","ratingFB","63dafeda84d9a5e684adb6be","bdp_trlrn","Tue Mar 14 2023 21:31:39 GMT-0400 (Eastern Daylight Time)","765345","Trustworthy,Untrustworthy","image-keyboard-response","104","171665","0.0-6.0-2.49","","","null","","trustrating_stim/white_mw066.bmp","null","","","","","","","","","","",""
"","","","rating","63dafeda84d9a5e684adb6be","bdp_trlrn","Tue Mar 14 2023 21:31:39 GMT-0400 (Eastern Daylight Time)","765345","Trustworthy,Untrustworthy","image-keyboard-response","105","173682","0.0-6.0-1.50","","","1912","","trustrating_stim/white_00757_941201_fa_edt.bmp","3","","","","","","","","","","",""
"","","","ratingFB","63dafeda84d9a5e684adb6be","bdp_trlrn","Tue Mar 14 2023 21:31:39 GMT-0400 (Eastern Daylight Time)","765345","Trustworthy,Untrustworthy","image-keyboard-response","106","173890","0.0-6.0-2.50","","","null","","trustrating_stim/white_00757_941201_fa_edt.bmp","null","","","","","","","","","","",""
"","","","rating","63dafeda84d9a5e684adb6be","bdp_trlrn","Tue Mar 14 2023 21:31:39 GMT-0400 (Eastern Daylight Time)","765345","Trustworthy,Untrustworthy","image-keyboard-response","107","176241","0.0-6.0-1.51","","","2247","","trustrating_stim/white_00109_931230_fa_edt.bmp","7","","","","","","","","","","",""
"","","","ratingFB","63dafeda84d9a5e684adb6be","bdp_trlrn","Tue Mar 14 2023 21:31:39 GMT-0400 (Eastern Daylight Time)","765345","Trustworthy,Untrustworthy","image-keyboard-response","108","176449","0.0-6.0-2.51","","","null","","trustrating_stim/white_00109_931230_fa_edt.bmp","null","","","","","","","","","","",""
"","","","rating","63dafeda84d9a5e684adb6be","bdp_trlrn","Tue Mar 14 2023 21:31:39 GMT-0400 (Eastern Daylight Time)","765345","Trustworthy,Untrustworthy","image-keyboard-response","109","178454","0.0-6.0-1.52","","","1899","","trustrating_stim/white_mw060.bmp","1","","","","","","","","","","",""
"","","","ratingFB","63dafeda84d9a5e684adb6be","bdp_trlrn","Tue Mar 14 2023 21:31:39 GMT-0400 (Eastern Daylight Time)","765345","Trustworthy,Untrustworthy","image-keyboard-response","110","178657","0.0-6.0-2.52","","","null","","trustrating_stim/white_mw060.bmp","null","","","","","","","","","","",""
"","","","rating","63dafeda84d9a5e684adb6be","bdp_trlrn","Tue Mar 14 2023 21:31:39 GMT-0400 (Eastern Daylight Time)","765345","Trustworthy,Untrustworthy","image-keyboard-response","111","181376","0.0-6.0-1.53","","","2614","","trustrating_stim/white_mw056.bmp","5","","","","","","","","","","",""
"","","","ratingFB","63dafeda84d9a5e684adb6be","bdp_trlrn","Tue Mar 14 2023 21:31:39 GMT-0400 (Eastern Daylight Time)","765345","Trustworthy,Untrustworthy","image-keyboard-response","112","181585","0.0-6.0-2.53","","","null","","trustrating_stim/white_mw056.bmp","null","","","","","","","","","","",""
"","","","rating","63dafeda84d9a5e684adb6be","bdp_trlrn","Tue Mar 14 2023 21:31:39 GMT-0400 (Eastern Daylight Time)","765345","Trustworthy,Untrustworthy","image-keyboard-response","113","184598","0.0-6.0-1.54","","","2908","","trustrating_stim/white_mw053.bmp","4","","","","","","","","","","",""
"","","","ratingFB","63dafeda84d9a5e684adb6be","bdp_trlrn","Tue Mar 14 2023 21:31:39 GMT-0400 (Eastern Daylight Time)","765345","Trustworthy,Untrustworthy","image-keyboard-response","114","184801","0.0-6.0-2.54","","","null","","trustrating_stim/white_mw053.bmp","null","","","","","","","","","","",""
"","","","rating","63dafeda84d9a5e684adb6be","bdp_trlrn","Tue Mar 14 2023 21:31:39 GMT-0400 (Eastern Daylight Time)","765345","Trustworthy,Untrustworthy","image-keyboard-response","115","186981","0.0-6.0-1.55","","","2076","","trustrating_stim/white_mw099.bmp","5","","","","","","","","","","",""
"","","","ratingFB","63dafeda84d9a5e684adb6be","bdp_trlrn","Tue Mar 14 2023 21:31:39 GMT-0400 (Eastern Daylight Time)","765345","Trustworthy,Untrustworthy","image-keyboard-response","116","187185","0.0-6.0-2.55","","","null","","trustrating_stim/white_mw099.bmp","null","","","","","","","","","","",""
"","","","rating","63dafeda84d9a5e684adb6be","bdp_trlrn","Tue Mar 14 2023 21:31:39 GMT-0400 (Eastern Daylight Time)","765345","Trustworthy,Untrustworthy","image-keyboard-response","117","188983","0.0-6.0-1.56","","","1693","","trustrating_stim/white_00577_940928_fa_edt.bmp","3","","","","","","","","","","",""
"","","","ratingFB","63dafeda84d9a5e684adb6be","bdp_trlrn","Tue Mar 14 2023 21:31:39 GMT-0400 (Eastern Daylight Time)","765345","Trustworthy,Untrustworthy","image-keyboard-response","118","189185","0.0-6.0-2.56","","","null","","trustrating_stim/white_00577_940928_fa_edt.bmp","null","","","","","","","","","","",""
"","","","rating","63dafeda84d9a5e684adb6be","bdp_trlrn","Tue Mar 14 2023 21:31:39 GMT-0400 (Eastern Daylight Time)","765345","Trustworthy,Untrustworthy","image-keyboard-response","119","190856","0.0-6.0-1.57","","","1567","","trustrating_stim/white_mw049.bmp","8","","","","","","","","","","",""
"","","","ratingFB","63dafeda84d9a5e684adb6be","bdp_trlrn","Tue Mar 14 2023 21:31:39 GMT-0400 (Eastern Daylight Time)","765345","Trustworthy,Untrustworthy","image-keyboard-response","120","191065","0.0-6.0-2.57","","","null","","trustrating_stim/white_mw049.bmp","null","","","","","","","","","","",""
"","","","rating","63dafeda84d9a5e684adb6be","bdp_trlrn","Tue Mar 14 2023 21:31:39 GMT-0400 (Eastern Daylight Time)","765345","Trustworthy,Untrustworthy","image-keyboard-response","121","193183","0.0-6.0-1.58","","","2013","","trustrating_stim/white_mw048.bmp","2","","","","","","","","","","",""
"","","","ratingFB","63dafeda84d9a5e684adb6be","bdp_trlrn","Tue Mar 14 2023 21:31:39 GMT-0400 (Eastern Daylight Time)","765345","Trustworthy,Untrustworthy","image-keyboard-response","122","193385","0.0-6.0-2.58","","","null","","trustrating_stim/white_mw048.bmp","null","","","","","","","","","","",""
"","","","rating","63dafeda84d9a5e684adb6be","bdp_trlrn","Tue Mar 14 2023 21:31:39 GMT-0400 (Eastern Daylight Time)","765345","Trustworthy,Untrustworthy","image-keyboard-response","123","195046","0.0-6.0-1.59","","","1556","","trustrating_stim/white_00602_940928_fb_edt.bmp","7","","","","","","","","","","",""
"","","","ratingFB","63dafeda84d9a5e684adb6be","bdp_trlrn","Tue Mar 14 2023 21:31:39 GMT-0400 (Eastern Daylight Time)","765345","Trustworthy,Untrustworthy","image-keyboard-response","124","195249","0.0-6.0-2.59","","","null","","trustrating_stim/white_00602_940928_fb_edt.bmp","null","","","","","","","","","","",""
"","","","","63dafeda84d9a5e684adb6be","bdp_trlrn","Tue Mar 14 2023 21:31:39 GMT-0400 (Eastern Daylight Time)","765345","Trustworthy,Untrustworthy","instructions","125","196953","0.0-7.0","","[{""page_index"":0,""viewing_time"":1600}]","1600","","","","","","","","","","","","","",""
"","","","","63dafeda84d9a5e684adb6be","bdp_trlrn","Tue Mar 14 2023 21:31:39 GMT-0400 (Eastern Daylight Time)","765345","Trustworthy,Untrustworthy","instructions","126","313515","0.0-8.0","","[{""page_index"":0,""viewing_time"":44800},{""page_index"":1,""viewing_time"":15016},{""page_index"":2,""viewing_time"":5270},{""page_index"":3,""viewing_time"":9999},{""page_index"":4,""viewing_time"":3946},{""page_index"":5,""viewing_time"":4026},{""page_index"":6,""viewing_time"":31231},{""page_index"":7,""viewing_time"":2168}]","116457","","","","","","","","","","","","","",""
"","","","","63dafeda84d9a5e684adb6be","bdp_trlrn","Tue Mar 14 2023 21:31:39 GMT-0400 (Eastern Daylight Time)","765345","Trustworthy,Untrustworthy","html-keyboard-response","127","327707","0.0-9.0","","","14191","","<div class='header' style='text-align:left; position: absolute; top: 5%; left: 5%;'><small>Task 2 of 5</small></div><div class='instruxDiv'><p><strong>1) What is the minimum number of points you can choose to send to your partner?</strong></p><p>a) 0</p><p>b) 1</p><p>c) 5</p>","B","","","","","","","","","","",""
"","","","","63dafeda84d9a5e684adb6be","bdp_trlrn","Tue Mar 14 2023 21:31:39 GMT-0400 (Eastern Daylight Time)","765345","Trustworthy,Untrustworthy","html-keyboard-response","128","330548","0.0-10.0","","","2737","","<div class='header' style='text-align:left; position: absolute; top: 5%; left: 5%;'><small>Task 2 of 5</small></div><div class='instruxDiv'><p><strong>1) What is the minimum number of points you can choose to send to your partner?</strong></p><p>a) 0</p><p style='color:#00FF00'>b) 1</p><p>c) 5</p><h3 style='color:#00FF00'>Correct!</h3><h3 class='center-content'>The correct response is b).</h3><h3 class='center-content'>The minimum number of points you can choose to send to your partner is 1 point.</h3><p><em>Press SPACEBAR to continue</em></p></div>"," ","","","","","","","","","","",""
"","","","","63dafeda84d9a5e684adb6be","bdp_trlrn","Tue Mar 14 2023 21:31:39 GMT-0400 (Eastern Daylight Time)","765345","Trustworthy,Untrustworthy","html-keyboard-response","129","333635","0.0-11.0","","","2984","","<div class='header' style='text-align:left; position: absolute; top: 5%; left: 5%;'><small>Task 2 of 5</small></div><div class='instruxDiv'><p><strong>2) What is the maximum number of points you can choose to send to your partner?</strong></p><p>a) 8</p><p>b) 5</p><p>c) 3</p>","B","","","","","","","","","","",""
"","","","","63dafeda84d9a5e684adb6be","bdp_trlrn","Tue Mar 14 2023 21:31:39 GMT-0400 (Eastern Daylight Time)","765345","Trustworthy,Untrustworthy","html-keyboard-response","130","334804","0.0-12.0","","","1066","","<div class='header' style='text-align:left; position: absolute; top: 5%; left: 5%;'><small>Task 2 of 5</small></div><div class='instruxDiv'><p><strong>2) What is the maximum number of points you can choose to send to your partner?</strong></p><p>a) 8</p><p style='color:#00FF00'>b) 5</p><p>c) 3</p><h3 style='color:#00FF00'>Correct!</h3><h3 class='center-content'>The correct response is b).</h3><h3 class='center-content'>The maximum number of points you can choose to send to your partner is 5 points.</h3><p><em>Press SPACEBAR to continue</em></p></div>"," ","","","","","","","","","","",""
"","","","","63dafeda84d9a5e684adb6be","bdp_trlrn","Tue Mar 14 2023 21:31:39 GMT-0400 (Eastern Daylight Time)","765345","Trustworthy,Untrustworthy","html-keyboard-response","131","342816","0.0-13.0","","","7910","","<div class='header' style='text-align:left; position: absolute; top: 5%; left: 5%;'><small>Task 2 of 5</small></div><div class='instruxDiv'><p><strong>3) What happens to the amount of points you send to your partner?</strong></p><p>a) Nothing</p><p>b) It doubles</p><p>c) It quadruples</p>","C","","","","","","","","","","",""
"","","","","63dafeda84d9a5e684adb6be","bdp_trlrn","Tue Mar 14 2023 21:31:39 GMT-0400 (Eastern Daylight Time)","765345","Trustworthy,Untrustworthy","html-keyboard-response","132","344288","0.0-14.0","","","1366","","<div class='header' style='text-align:left; position: absolute; top: 5%; left: 5%;'><small>Task 2 of 5</small></div><div class='instruxDiv'><p><strong>3) What happens to the amount of points you send to your partner?</strong></p><p>a) Nothing</p><p>b) It doubles</p><p style='color:#00FF00'>c) It quadruples</p><h3 style='color:#00FF00'>Correct!</h3><h3 class='center-content'>The correct response is c).</h3><h3 class='center-content'>The amount of points you send to your partner quadruples.</h3><p><em>Press SPACEBAR to continue</em></p></div>"," ","","","","","","","","","","",""
"","","","","63dafeda84d9a5e684adb6be","bdp_trlrn","Tue Mar 14 2023 21:31:39 GMT-0400 (Eastern Daylight Time)","765345","Trustworthy,Untrustworthy","html-keyboard-response","133","371005","0.0-15.0","","","26611","","<div class='header' style='text-align:left; position: absolute; top: 5%; left: 5%;'><small>Task 2 of 5</small></div><div class='instruxDiv'><p><strong>4) If you decided to share 4 out of 5 points with your partner, and they decided to share half of the amount they received with you, how many points would you receive back from them on this round?</strong></p><p>a) 16</p><p>b) 0</p><p>c) 8</p>","B","","","","","","","","","","",""
"","","","","63dafeda84d9a5e684adb6be","bdp_trlrn","Tue Mar 14 2023 21:31:39 GMT-0400 (Eastern Daylight Time)","765345","Trustworthy,Untrustworthy","html-keyboard-response","134","385600","0.0-16.0","","","14493","","<div class='header' style='text-align:left; position: absolute; top: 5%; left: 5%;'><small>Task 2 of 5</small></div><div class='instruxDiv'><p><strong>4) If you decided to share 4 out of 5 points with your partner, and they decided to share half of the amount they received with you, how many points would you receive back from them on this round?</strong></p><p>a) 16</p><p style='color:#FF0000'>b) 0</p><p>c) 8</p><h3 style='color:#FF0000'>Incorrect!</h3><h3 class='center-content'>The correct response is c).</h3><h3 class='center-content'>If you shared 4 out of 5 points with your partner and they decided to share half of the amount they received with you, you would receive 8 points back (i.e. (4 x 4)/2 = 8).</h3><p><em>Press SPACEBAR to continue</em></p></div>"," ","","","","","","","","","","",""
"","","","","63dafeda84d9a5e684adb6be","bdp_trlrn","Tue Mar 14 2023 21:31:39 GMT-0400 (Eastern Daylight Time)","765345","Trustworthy,Untrustworthy","html-keyboard-response","135","390714","0.0-17.0","","","null","","<div class='header' style='text-align:left; position: absolute; top: 5%; left: 5%;'><small>Task 2 of 5</small></div><div class='instruxDiv'><p>Thank you for completing the quiz<p>These are the actual partners you will be interacting with in the next block:<p><div class='tc' align='center'><img class='introPic' src='trustrating_stim/white_00659_941121_fa_edt.bmp'><br><strong>Jacob</strong></div><div class='bl' align='center'><img class='introPic' src='trustrating_stim/white_mw053.bmp'><br><strong>Chris</strong></div><div class='br' align='center'><img class='introPic' src='trustrating_stim/white_00109_931230_fa_edt.bmp'><br><strong>Lucas</strong></div></div><p>Across <strong>66 rounds</strong> you will interact with each partner <strong>22 times</strong> (in random order).<p style='align:center; color:white'><font <em>Press SPACEBAR to continue</em></p>","null","","","","","","","","","","",""
"","","","","63dafeda84d9a5e684adb6be","bdp_trlrn","Tue Mar 14 2023 21:31:39 GMT-0400 (Eastern Daylight Time)","765345","Trustworthy,Untrustworthy","instructions","136","394725","0.0-18.0","","[{""page_index"":0,""viewing_time"":1082},{""page_index"":1,""viewing_time"":2929}]","4011","","","","","","","","","","","","","",""
"","","","decision","63dafeda84d9a5e684adb6be","bdp_trlrn","Tue Mar 14 2023 21:31:39 GMT-0400 (Eastern Daylight Time)","765345","Trustworthy,Untrustworthy","html-keyboard-response","137","397643","0.0-19.0-1.0","","","2807","","<div class='trialDiv'><img src='trustrating_stim/white_00659_941121_fa_edt.bmp'><br><font class='baseline'><strong>Jacob</strong><p>Choose number of points to send.</font><div class='respPicDiv'><img src='img/responseButtonOffersNo0L.png' class='respPic'></div></div>","1","1","Jacob","0","Kept","0.2,0.65","13","0.2","trustrating_stim/white_00659_941121_fa_edt.bmp","1","5","1"
"","","","decisionFB","63dafeda84d9a5e684adb6be","bdp_trlrn","Tue Mar 14 2023 21:31:39 GMT-0400 (Eastern Daylight Time)","765345","Trustworthy,Untrustworthy","html-keyboard-response","138","397897","0.0-19.0-2.0","","","null","","<div class='trialDiv'><img src='trustrating_stim/white_00659_941121_fa_edt.bmp'><br><font class='baseline'><strong>Jacob</strong><p>Choose number of points to send.</font><div class='respPicDiv'><img src='img/responseButtonOffersNo0L1.png' class='respPic'></div></div>","null","1","Jacob","0","Kept","0.2,0.65","13","0.2","trustrating_stim/white_00659_941121_fa_edt.bmp","1","4","1"
"","","","feedback","63dafeda84d9a5e684adb6be","bdp_trlrn","Tue Mar 14 2023 21:31:39 GMT-0400 (Eastern Daylight Time)","765345","Trustworthy,Untrustworthy","html-keyboard-response","139","398905","0.0-19.0-3.0","","","null","","<div class='trialDiv'><img src='trustrating_stim/white_00659_941121_fa_edt.bmp'><br><font class='baseline'><strong>Jacob</strong><p>Received: <strong>4</strong></font> &nbsp; &nbsp; &nbsp; &nbsp; &nbsp; &nbsp;<font class='negOutcome'>Shared back: <strong>0</strong></font></font><div class='respPicDiv'><img src='img/responseButtonOffersNo0_wht.png' class='respPic'></div></div>","null","1","Jacob","0","Kept","0.2,0.65","13","0.2","trustrating_stim/white_00659_941121_fa_edt.bmp","1","4","1"
"","","","decision","63dafeda84d9a5e684adb6be","bdp_trlrn","Tue Mar 14 2023 21:31:39 GMT-0400 (Eastern Daylight Time)","765345","Trustworthy,Untrustworthy","html-keyboard-response","140","401103","0.0-19.0-1.1","","","2197","","<div class='trialDiv'><img src='trustrating_stim/white_00109_931230_fa_edt.bmp'><br><font class='baseline'><strong>Lucas</strong><p>Choose number of points to send.</font><div class='respPicDiv'><img src='img/responseButtonOffersNo0L.png' class='respPic'></div></div>","4","1","Lucas","8","Kept","0.35,0.65","13","0.35","trustrating_stim/white_00109_931230_fa_edt.bmp","7","9","2"
"","","","decisionFB","63dafeda84d9a5e684adb6be","bdp_trlrn","Tue Mar 14 2023 21:31:39 GMT-0400 (Eastern Daylight Time)","765345","Trustworthy,Untrustworthy","html-keyboard-response","141","401361","0.0-19.0-2.1","","","null","","<div class='trialDiv'><img src='trustrating_stim/white_00109_931230_fa_edt.bmp'><br><font class='baseline'><strong>Lucas</strong><p>Choose number of points to send.</font><div class='respPicDiv'><img src='img/responseButtonOffersNo0L4.png' class='respPic'></div></div>","null","1","Lucas","8","Kept","0.35,0.65","13","0.35","trustrating_stim/white_00109_931230_fa_edt.bmp","7","5","2"
"","","","feedback","63dafeda84d9a5e684adb6be","bdp_trlrn","Tue Mar 14 2023 21:31:39 GMT-0400 (Eastern Daylight Time)","765345","Trustworthy,Untrustworthy","html-keyboard-response","142","402369","0.0-19.0-3.1","","","null","","<div class='trialDiv'><img src='trustrating_stim/white_00109_931230_fa_edt.bmp'><br><font class='baseline'><strong>Lucas</strong><p>Received: <strong>16</strong></font> &nbsp; &nbsp; &nbsp; &nbsp; &nbsp; &nbsp;<font class='negOutcome'>Shared back: <strong>0</strong></font></font><div class='respPicDiv'><img src='img/responseButtonOffersNo0_wht.png' class='respPic'></div></div>","null","1","Lucas","8","Kept","0.35,0.65","13","0.35","trustrating_stim/white_00109_931230_fa_edt.bmp","7","5","2"
"","","","decision","63dafeda84d9a5e684adb6be","bdp_trlrn","Tue Mar 14 2023 21:31:39 GMT-0400 (Eastern Daylight Time)","765345","Trustworthy,Untrustworthy","html-keyboard-response","143","405242","0.0-19.0-1.2","","","2872","","<div class='trialDiv'><img src='trustrating_stim/white_mw053.bmp'><br><font class='baseline'><strong>Chris</strong><p>Choose number of points to send.</font><div class='respPicDiv'><img src='img/responseButtonOffersNo0L.png' class='respPic'></div></div>","3","1","Chris","6","Shared","0.65,0.2","12","0.65","trustrating_stim/white_mw053.bmp","4.5","10","3"
"","","","decisionFB","63dafeda84d9a5e684adb6be","bdp_trlrn","Tue Mar 14 2023 21:31:39 GMT-0400 (Eastern Daylight Time)","765345","Trustworthy,Untrustworthy","html-keyboard-response","144","405497","0.0-19.0-2.2","","","null","","<div class='trialDiv'><img src='trustrating_stim/white_mw053.bmp'><br><font class='baseline'><strong>Chris</strong><p>Choose number of points to send.</font><div class='respPicDiv'><img src='img/responseButtonOffersNo0L3.png' class='respPic'></div></div>","null","1","Chris","6","Shared","0.65,0.2","12","0.65","trustrating_stim/white_mw053.bmp","4.5","7","3"
"","","","feedback","63dafeda84d9a5e684adb6be","bdp_trlrn","Tue Mar 14 2023 21:31:39 GMT-0400 (Eastern Daylight Time)","765345","Trustworthy,Untrustworthy","html-keyboard-response","145","406505","0.0-19.0-3.2","","","null","","<div class='trialDiv'><img src='trustrating_stim/white_mw053.bmp'><br><font class='baseline'><strong>Chris</strong><p>Received: <strong>12</strong></font> &nbsp; &nbsp; &nbsp; &nbsp; &nbsp; &nbsp;<font class='posOutcome'>Shared back: <strong>6</strong></font></font><div class='respPicDiv'><img src='img/responseButtonOffersNo0_wht.png' class='respPic'></div></div>","null","1","Chris","6","Shared","0.65,0.2","12","0.65","trustrating_stim/white_mw053.bmp","4.5","13","3"
"","","","decision","63dafeda84d9a5e684adb6be","bdp_trlrn","Tue Mar 14 2023 21:31:39 GMT-0400 (Eastern Daylight Time)","765345","Trustworthy,Untrustworthy","html-keyboard-response","146","408668","0.0-19.0-1.3","","","2161","","<div class='trialDiv'><img src='trustrating_stim/white_00109_931230_fa_edt.bmp'><br><font class='baseline'><strong>Lucas</strong><p>Choose number of points to send.</font><div class='respPicDiv'><img src='img/responseButtonOffersNo0L.png' class='respPic'></div></div>","3","2","Lucas","8","Kept","0.35,0.65","13","0.35","trustrating_stim/white_00109_931230_fa_edt.bmp","7","18","4"
"","","","decisionFB","63dafeda84d9a5e684adb6be","bdp_trlrn","Tue Mar 14 2023 21:31:39 GMT-0400 (Eastern Daylight Time)","765345","Trustworthy,Untrustworthy","html-keyboard-response","147","408921","0.0-19.0-2.3","","","null","","<div class='trialDiv'><img src='trustrating_stim/white_00109_931230_fa_edt.bmp'><br><font class='baseline'><strong>Lucas</strong><p>Choose number of points to send.</font><div class='respPicDiv'><img src='img/responseButtonOffersNo0L3.png' class='respPic'></div></div>","null","2","Lucas","8","Kept","0.35,0.65","13","0.35","trustrating_stim/white_00109_931230_fa_edt.bmp","7","15","4"
"","","","feedback","63dafeda84d9a5e684adb6be","bdp_trlrn","Tue Mar 14 2023 21:31:39 GMT-0400 (Eastern Daylight Time)","765345","Trustworthy,Untrustworthy","html-keyboard-response","148","409929","0.0-19.0-3.3","","","null","","<div class='trialDiv'><img src='trustrating_stim/white_00109_931230_fa_edt.bmp'><br><font class='baseline'><strong>Lucas</strong><p>Received: <strong>12</strong></font> &nbsp; &nbsp; &nbsp; &nbsp; &nbsp; &nbsp;<font class='negOutcome'>Shared back: <strong>0</strong></font></font><div class='respPicDiv'><img src='img/responseButtonOffersNo0_wht.png' class='respPic'></div></div>","null","2","Lucas","8","Kept","0.35,0.65","13","0.35","trustrating_stim/white_00109_931230_fa_edt.bmp","7","15","4"
"","","","decision","63dafeda84d9a5e684adb6be","bdp_trlrn","Tue Mar 14 2023 21:31:39 GMT-0400 (Eastern Daylight Time)","765345","Trustworthy,Untrustworthy","html-keyboard-response","149","412216","0.0-19.0-1.4","","","2286","","<div class='trialDiv'><img src='trustrating_stim/white_00659_941121_fa_edt.bmp'><br><font class='baseline'><strong>Jacob</strong><p>Choose number of points to send.</font><div class='respPicDiv'><img src='img/responseButtonOffersNo0L.png' class='respPic'></div></div>","1","2","Jacob","0","Kept","0.2,0.65","13","0.2","trustrating_stim/white_00659_941121_fa_edt.bmp","1","20","5"
"","","","decisionFB","63dafeda84d9a5e684adb6be","bdp_trlrn","Tue Mar 14 2023 21:31:39 GMT-0400 (Eastern Daylight Time)","765345","Trustworthy,Untrustworthy","html-keyboard-response","150","412473","0.0-19.0-2.4","","","null","","<div class='trialDiv'><img src='trustrating_stim/white_00659_941121_fa_edt.bmp'><br><font class='baseline'><strong>Jacob</strong><p>Choose number of points to send.</font><div class='respPicDiv'><img src='img/responseButtonOffersNo0L1.png' class='respPic'></div></div>","null","2","Jacob","0","Kept","0.2,0.65","13","0.2","trustrating_stim/white_00659_941121_fa_edt.bmp","1","19","5"
"","","","feedback","63dafeda84d9a5e684adb6be","bdp_trlrn","Tue Mar 14 2023 21:31:39 GMT-0400 (Eastern Daylight Time)","765345","Trustworthy,Untrustworthy","html-keyboard-response","151","413481","0.0-19.0-3.4","","","null","","<div class='trialDiv'><img src='trustrating_stim/white_00659_941121_fa_edt.bmp'><br><font class='baseline'><strong>Jacob</strong><p>Received: <strong>4</strong></font> &nbsp; &nbsp; &nbsp; &nbsp; &nbsp; &nbsp;<font class='negOutcome'>Shared back: <strong>0</strong></font></font><div class='respPicDiv'><img src='img/responseButtonOffersNo0_wht.png' class='respPic'></div></div>","null","2","Jacob","0","Kept","0.2,0.65","13","0.2","trustrating_stim/white_00659_941121_fa_edt.bmp","1","19","5"
"","","","decision","63dafeda84d9a5e684adb6be","bdp_trlrn","Tue Mar 14 2023 21:31:39 GMT-0400 (Eastern Daylight Time)","765345","Trustworthy,Untrustworthy","html-keyboard-response","152","417152","0.0-19.0-1.5","","","3670","","<div class='trialDiv'><img src='trustrating_stim/white_mw053.bmp'><br><font class='baseline'><strong>Chris</strong><p>Choose number of points to send.</font><div class='respPicDiv'><img src='img/responseButtonOffersNo0L.png' class='respPic'></div></div>","5","2","Chris","6","Kept","0.65,0.2","12","0.65","trustrating_stim/white_mw053.bmp","4.5","24","6"
"","","","decisionFB","63dafeda84d9a5e684adb6be","bdp_trlrn","Tue Mar 14 2023 21:31:39 GMT-0400 (Eastern Daylight Time)","765345","Trustworthy,Untrustworthy","html-keyboard-response","153","417409","0.0-19.0-2.5","","","null","","<div class='trialDiv'><img src='trustrating_stim/white_mw053.bmp'><br><font class='baseline'><strong>Chris</strong><p>Choose number of points to send.</font><div class='respPicDiv'><img src='img/responseButtonOffersNo0L5.png' class='respPic'></div></div>","null","2","Chris","6","Kept","0.65,0.2","12","0.65","trustrating_stim/white_mw053.bmp","4.5","19","6"
"","","","feedback","63dafeda84d9a5e684adb6be","bdp_trlrn","Tue Mar 14 2023 21:31:39 GMT-0400 (Eastern Daylight Time)","765345","Trustworthy,Untrustworthy","html-keyboard-response","154","418417","0.0-19.0-3.5","","","null","","<div class='trialDiv'><img src='trustrating_stim/white_mw053.bmp'><br><font class='baseline'><strong>Chris</strong><p>Received: <strong>20</strong></font> &nbsp; &nbsp; &nbsp; &nbsp; &nbsp; &nbsp;<font class='negOutcome'>Shared back: <strong>0</strong></font></font><div class='respPicDiv'><img src='img/responseButtonOffersNo0_wht.png' class='respPic'></div></div>","null","2","Chris","6","Kept","0.65,0.2","12","0.65","trustrating_stim/white_mw053.bmp","4.5","19","6"
"","","","decision","63dafeda84d9a5e684adb6be","bdp_trlrn","Tue Mar 14 2023 21:31:39 GMT-0400 (Eastern Daylight Time)","765345","Trustworthy,Untrustworthy","html-keyboard-response","155","419627","0.0-19.0-1.6","","","1209","","<div class='trialDiv'><img src='trustrating_stim/white_00659_941121_fa_edt.bmp'><br><font class='baseline'><strong>Jacob</strong><p>Choose number of points to send.</font><div class='respPicDiv'><img src='img/responseButtonOffersNo0L.png' class='respPic'></div></div>","3","3","Jacob","0","Shared","0.2,0.65","13","0.2","trustrating_stim/white_00659_941121_fa_edt.bmp","1","24","7"
"","","","decisionFB","63dafeda84d9a5e684adb6be","bdp_trlrn","Tue Mar 14 2023 21:31:39 GMT-0400 (Eastern Daylight Time)","765345","Trustworthy,Untrustworthy","html-keyboard-response","156","419881","0.0-19.0-2.6","","","null","","<div class='trialDiv'><img src='trustrating_stim/white_00659_941121_fa_edt.bmp'><br><font class='baseline'><strong>Jacob</strong><p>Choose number of points to send.</font><div class='respPicDiv'><img src='img/responseButtonOffersNo0L3.png' class='respPic'></div></div>","null","3","Jacob","0","Shared","0.2,0.65","13","0.2","trustrating_stim/white_00659_941121_fa_edt.bmp","1","21","7"
"","","","feedback","63dafeda84d9a5e684adb6be","bdp_trlrn","Tue Mar 14 2023 21:31:39 GMT-0400 (Eastern Daylight Time)","765345","Trustworthy,Untrustworthy","html-keyboard-response","157","420889","0.0-19.0-3.6","","","null","","<div class='trialDiv'><img src='trustrating_stim/white_00659_941121_fa_edt.bmp'><br><font class='baseline'><strong>Jacob</strong><p>Received: <strong>12</strong></font> &nbsp; &nbsp; &nbsp; &nbsp; &nbsp; &nbsp;<font class='posOutcome'>Shared back: <strong>6</strong></font></font><div class='respPicDiv'><img src='img/responseButtonOffersNo0_wht.png' class='respPic'></div></div>","null","3","Jacob","0","Shared","0.2,0.65","13","0.2","trustrating_stim/white_00659_941121_fa_edt.bmp","1","27","7"
"","","","decision","63dafeda84d9a5e684adb6be","bdp_trlrn","Tue Mar 14 2023 21:31:39 GMT-0400 (Eastern Daylight Time)","765345","Trustworthy,Untrustworthy","html-keyboard-response","158","422689","0.0-19.0-1.7","","","1799","","<div class='trialDiv'><img src='trustrating_stim/white_mw053.bmp'><br><font class='baseline'><strong>Chris</strong><p>Choose number of points to send.</font><div class='respPicDiv'><img src='img/responseButtonOffersNo0L.png' class='respPic'></div></div>","2","3","Chris","6","Shared","0.65,0.2","12","0.65","trustrating_stim/white_mw053.bmp","4.5","32","8"
"","","","decisionFB","63dafeda84d9a5e684adb6be","bdp_trlrn","Tue Mar 14 2023 21:31:39 GMT-0400 (Eastern Daylight Time)","765345","Trustworthy,Untrustworthy","html-keyboard-response","159","422945","0.0-19.0-2.7","","","null","","<div class='trialDiv'><img src='trustrating_stim/white_mw053.bmp'><br><font class='baseline'><strong>Chris</strong><p>Choose number of points to send.</font><div class='respPicDiv'><img src='img/responseButtonOffersNo0L2.png' class='respPic'></div></div>","null","3","Chris","6","Shared","0.65,0.2","12","0.65","trustrating_stim/white_mw053.bmp","4.5","30","8"
"","","","feedback","63dafeda84d9a5e684adb6be","bdp_trlrn","Tue Mar 14 2023 21:31:39 GMT-0400 (Eastern Daylight Time)","765345","Trustworthy,Untrustworthy","html-keyboard-response","160","423953","0.0-19.0-3.7","","","null","","<div class='trialDiv'><img src='trustrating_stim/white_mw053.bmp'><br><font class='baseline'><strong>Chris</strong><p>Received: <strong>8</strong></font> &nbsp; &nbsp; &nbsp; &nbsp; &nbsp; &nbsp;<font class='posOutcome'>Shared back: <strong>4</strong></font></font><div class='respPicDiv'><img src='img/responseButtonOffersNo0_wht.png' class='respPic'></div></div>","null","3","Chris","6","Shared","0.65,0.2","12","0.65","trustrating_stim/white_mw053.bmp","4.5","34","8"
"","","","decision","63dafeda84d9a5e684adb6be","bdp_trlrn","Tue Mar 14 2023 21:31:39 GMT-0400 (Eastern Daylight Time)","765345","Trustworthy,Untrustworthy","html-keyboard-response","161","425975","0.0-19.0-1.8","","","2020","","<div class='trialDiv'><img src='trustrating_stim/white_00109_931230_fa_edt.bmp'><br><font class='baseline'><strong>Lucas</strong><p>Choose number of points to send.</font><div class='respPicDiv'><img src='img/responseButtonOffersNo0L.png' class='respPic'></div></div>","1","3","Lucas","8","Kept","0.35,0.65","13","0.35","trustrating_stim/white_00109_931230_fa_edt.bmp","7","39","9"
"","","","decisionFB","63dafeda84d9a5e684adb6be","bdp_trlrn","Tue Mar 14 2023 21:31:39 GMT-0400 (Eastern Daylight Time)","765345","Trustworthy,Untrustworthy","html-keyboard-response","162","426233","0.0-19.0-2.8","","","null","","<div class='trialDiv'><img src='trustrating_stim/white_00109_931230_fa_edt.bmp'><br><font class='baseline'><strong>Lucas</strong><p>Choose number of points to send.</font><div class='respPicDiv'><img src='img/responseButtonOffersNo0L1.png' class='respPic'></div></div>","null","3","Lucas","8","Kept","0.35,0.65","13","0.35","trustrating_stim/white_00109_931230_fa_edt.bmp","7","38","9"
"","","","feedback","63dafeda84d9a5e684adb6be","bdp_trlrn","Tue Mar 14 2023 21:31:39 GMT-0400 (Eastern Daylight Time)","765345","Trustworthy,Untrustworthy","html-keyboard-response","163","427241","0.0-19.0-3.8","","","null","","<div class='trialDiv'><img src='trustrating_stim/white_00109_931230_fa_edt.bmp'><br><font class='baseline'><strong>Lucas</strong><p>Received: <strong>4</strong></font> &nbsp; &nbsp; &nbsp; &nbsp; &nbsp; &nbsp;<font class='negOutcome'>Shared back: <strong>0</strong></font></font><div class='respPicDiv'><img src='img/responseButtonOffersNo0_wht.png' class='respPic'></div></div>","null","3","Lucas","8","Kept","0.35,0.65","13","0.35","trustrating_stim/white_00109_931230_fa_edt.bmp","7","38","9"
"","","","decision","63dafeda84d9a5e684adb6be","bdp_trlrn","Tue Mar 14 2023 21:31:39 GMT-0400 (Eastern Daylight Time)","765345","Trustworthy,Untrustworthy","html-keyboard-response","164","428944","0.0-19.0-1.9","","","1701","","<div class='trialDiv'><img src='trustrating_stim/white_00659_941121_fa_edt.bmp'><br><font class='baseline'><strong>Jacob</strong><p>Choose number of points to send.</font><div class='respPicDiv'><img src='img/responseButtonOffersNo0L.png' class='respPic'></div></div>","2","4","Jacob","0","Shared","0.2,0.65","13","0.2","trustrating_stim/white_00659_941121_fa_edt.bmp","1","43","10"
"","","","decisionFB","63dafeda84d9a5e684adb6be","bdp_trlrn","Tue Mar 14 2023 21:31:39 GMT-0400 (Eastern Daylight Time)","765345","Trustworthy,Untrustworthy","html-keyboard-response","165","429201","0.0-19.0-2.9","","","null","","<div class='trialDiv'><img src='trustrating_stim/white_00659_941121_fa_edt.bmp'><br><font class='baseline'><strong>Jacob</strong><p>Choose number of points to send.</font><div class='respPicDiv'><img src='img/responseButtonOffersNo0L2.png' class='respPic'></div></div>","null","4","Jacob","0","Shared","0.2,0.65","13","0.2","trustrating_stim/white_00659_941121_fa_edt.bmp","1","41","10"
"","","","feedback","63dafeda84d9a5e684adb6be","bdp_trlrn","Tue Mar 14 2023 21:31:39 GMT-0400 (Eastern Daylight Time)","765345","Trustworthy,Untrustworthy","html-keyboard-response","166","430210","0.0-19.0-3.9","","","null","","<div class='trialDiv'><img src='trustrating_stim/white_00659_941121_fa_edt.bmp'><br><font class='baseline'><strong>Jacob</strong><p>Received: <strong>8</strong></font> &nbsp; &nbsp; &nbsp; &nbsp; &nbsp; &nbsp;<font class='posOutcome'>Shared back: <strong>4</strong></font></font><div class='respPicDiv'><img src='img/responseButtonOffersNo0_wht.png' class='respPic'></div></div>","null","4","Jacob","0","Shared","0.2,0.65","13","0.2","trustrating_stim/white_00659_941121_fa_edt.bmp","1","45","10"
"","","","decision","63dafeda84d9a5e684adb6be","bdp_trlrn","Tue Mar 14 2023 21:31:39 GMT-0400 (Eastern Daylight Time)","765345","Trustworthy,Untrustworthy","html-keyboard-response","167","431466","0.0-19.0-1.10","","","1255","","<div class='trialDiv'><img src='trustrating_stim/white_mw053.bmp'><br><font class='baseline'><strong>Chris</strong><p>Choose number of points to send.</font><div class='respPicDiv'><img src='img/responseButtonOffersNo0L.png' class='respPic'></div></div>","3","4","Chris","6","Kept","0.65,0.2","12","0.65","trustrating_stim/white_mw053.bmp","4.5","50","11"
"","","","decisionFB","63dafeda84d9a5e684adb6be","bdp_trlrn","Tue Mar 14 2023 21:31:39 GMT-0400 (Eastern Daylight Time)","765345","Trustworthy,Untrustworthy","html-keyboard-response","168","431721","0.0-19.0-2.10","","","null","","<div class='trialDiv'><img src='trustrating_stim/white_mw053.bmp'><br><font class='baseline'><strong>Chris</strong><p>Choose number of points to send.</font><div class='respPicDiv'><img src='img/responseButtonOffersNo0L3.png' class='respPic'></div></div>","null","4","Chris","6","Kept","0.65,0.2","12","0.65","trustrating_stim/white_mw053.bmp","4.5","47","11"
"","","","feedback","63dafeda84d9a5e684adb6be","bdp_trlrn","Tue Mar 14 2023 21:31:39 GMT-0400 (Eastern Daylight Time)","765345","Trustworthy,Untrustworthy","html-keyboard-response","169","432729","0.0-19.0-3.10","","","null","","<div class='trialDiv'><img src='trustrating_stim/white_mw053.bmp'><br><font class='baseline'><strong>Chris</strong><p>Received: <strong>12</strong></font> &nbsp; &nbsp; &nbsp; &nbsp; &nbsp; &nbsp;<font class='negOutcome'>Shared back: <strong>0</strong></font></font><div class='respPicDiv'><img src='img/responseButtonOffersNo0_wht.png' class='respPic'></div></div>","null","4","Chris","6","Kept","0.65,0.2","12","0.65","trustrating_stim/white_mw053.bmp","4.5","47","11"
"","","","decision","63dafeda84d9a5e684adb6be","bdp_trlrn","Tue Mar 14 2023 21:31:39 GMT-0400 (Eastern Daylight Time)","765345","Trustworthy,Untrustworthy","html-keyboard-response","170","433568","0.0-19.0-1.11","","","838","","<div class='trialDiv'><img src='trustrating_stim/white_00109_931230_fa_edt.bmp'><br><font class='baseline'><strong>Lucas</strong><p>Choose number of points to send.</font><div class='respPicDiv'><img src='img/responseButtonOffersNo0L.png' class='respPic'></div></div>","2","4","Lucas","8","Kept","0.35,0.65","13","0.35","trustrating_stim/white_00109_931230_fa_edt.bmp","7","52","12"
"","","","decisionFB","63dafeda84d9a5e684adb6be","bdp_trlrn","Tue Mar 14 2023 21:31:39 GMT-0400 (Eastern Daylight Time)","765345","Trustworthy,Untrustworthy","html-keyboard-response","171","433826","0.0-19.0-2.11","","","null","","<div class='trialDiv'><img src='trustrating_stim/white_00109_931230_fa_edt.bmp'><br><font class='baseline'><strong>Lucas</strong><p>Choose number of points to send.</font><div class='respPicDiv'><img src='img/responseButtonOffersNo0L2.png' class='respPic'></div></div>","null","4","Lucas","8","Kept","0.35,0.65","13","0.35","trustrating_stim/white_00109_931230_fa_edt.bmp","7","50","12"
"","","","feedback","63dafeda84d9a5e684adb6be","bdp_trlrn","Tue Mar 14 2023 21:31:39 GMT-0400 (Eastern Daylight Time)","765345","Trustworthy,Untrustworthy","html-keyboard-response","172","434833","0.0-19.0-3.11","","","null","","<div class='trialDiv'><img src='trustrating_stim/white_00109_931230_fa_edt.bmp'><br><font class='baseline'><strong>Lucas</strong><p>Received: <strong>8</strong></font> &nbsp; &nbsp; &nbsp; &nbsp; &nbsp; &nbsp;<font class='negOutcome'>Shared back: <strong>0</strong></font></font><div class='respPicDiv'><img src='img/responseButtonOffersNo0_wht.png' class='respPic'></div></div>","null","4","Lucas","8","Kept","0.35,0.65","13","0.35","trustrating_stim/white_00109_931230_fa_edt.bmp","7","50","12"
"","","","decision","63dafeda84d9a5e684adb6be","bdp_trlrn","Tue Mar 14 2023 21:31:39 GMT-0400 (Eastern Daylight Time)","765345","Trustworthy,Untrustworthy","html-keyboard-response","173","437056","0.0-19.0-1.12","","","2222","","<div class='trialDiv'><img src='trustrating_stim/white_mw053.bmp'><br><font class='baseline'><strong>Chris</strong><p>Choose number of points to send.</font><div class='respPicDiv'><img src='img/responseButtonOffersNo0L.png' class='respPic'></div></div>","5","5","Chris","6","Shared","0.65,0.2","12","0.65","trustrating_stim/white_mw053.bmp","4.5","55","13"
"","","","decisionFB","63dafeda84d9a5e684adb6be","bdp_trlrn","Tue Mar 14 2023 21:31:39 GMT-0400 (Eastern Daylight Time)","765345","Trustworthy,Untrustworthy","html-keyboard-response","174","437313","0.0-19.0-2.12","","","null","","<div class='trialDiv'><img src='trustrating_stim/white_mw053.bmp'><br><font class='baseline'><strong>Chris</strong><p>Choose number of points to send.</font><div class='respPicDiv'><img src='img/responseButtonOffersNo0L5.png' class='respPic'></div></div>","null","5","Chris","6","Shared","0.65,0.2","12","0.65","trustrating_stim/white_mw053.bmp","4.5","50","13"
"","","","feedback","63dafeda84d9a5e684adb6be","bdp_trlrn","Tue Mar 14 2023 21:31:39 GMT-0400 (Eastern Daylight Time)","765345","Trustworthy,Untrustworthy","html-keyboard-response","175","438321","0.0-19.0-3.12","","","null","","<div class='trialDiv'><img src='trustrating_stim/white_mw053.bmp'><br><font class='baseline'><strong>Chris</strong><p>Received: <strong>20</strong></font> &nbsp; &nbsp; &nbsp; &nbsp; &nbsp; &nbsp;<font class='posOutcome'>Shared back: <strong>10</strong></font></font><div class='respPicDiv'><img src='img/responseButtonOffersNo0_wht.png' class='respPic'></div></div>","null","5","Chris","6","Shared","0.65,0.2","12","0.65","trustrating_stim/white_mw053.bmp","4.5","60","13"
"","","","decision","63dafeda84d9a5e684adb6be","bdp_trlrn","Tue Mar 14 2023 21:31:39 GMT-0400 (Eastern Daylight Time)","765345","Trustworthy,Untrustworthy","html-keyboard-response","176","439803","0.0-19.0-1.13","","","1481","","<div class='trialDiv'><img src='trustrating_stim/white_00109_931230_fa_edt.bmp'><br><font class='baseline'><strong>Lucas</strong><p>Choose number of points to send.</font><div class='respPicDiv'><img src='img/responseButtonOffersNo0L.png' class='respPic'></div></div>","3","5","Lucas","8","Kept","0.35,0.65","13","0.35","trustrating_stim/white_00109_931230_fa_edt.bmp","7","65","14"
"","","","decisionFB","63dafeda84d9a5e684adb6be","bdp_trlrn","Tue Mar 14 2023 21:31:39 GMT-0400 (Eastern Daylight Time)","765345","Trustworthy,Untrustworthy","html-keyboard-response","177","440057","0.0-19.0-2.13","","","null","","<div class='trialDiv'><img src='trustrating_stim/white_00109_931230_fa_edt.bmp'><br><font class='baseline'><strong>Lucas</strong><p>Choose number of points to send.</font><div class='respPicDiv'><img src='img/responseButtonOffersNo0L3.png' class='respPic'></div></div>","null","5","Lucas","8","Kept","0.35,0.65","13","0.35","trustrating_stim/white_00109_931230_fa_edt.bmp","7","62","14"
"","","","feedback","63dafeda84d9a5e684adb6be","bdp_trlrn","Tue Mar 14 2023 21:31:39 GMT-0400 (Eastern Daylight Time)","765345","Trustworthy,Untrustworthy","html-keyboard-response","178","441065","0.0-19.0-3.13","","","null","","<div class='trialDiv'><img src='trustrating_stim/white_00109_931230_fa_edt.bmp'><br><font class='baseline'><strong>Lucas</strong><p>Received: <strong>12</strong></font> &nbsp; &nbsp; &nbsp; &nbsp; &nbsp; &nbsp;<font class='negOutcome'>Shared back: <strong>0</strong></font></font><div class='respPicDiv'><img src='img/responseButtonOffersNo0_wht.png' class='respPic'></div></div>","null","5","Lucas","8","Kept","0.35,0.65","13","0.35","trustrating_stim/white_00109_931230_fa_edt.bmp","7","62","14"
"","","","decision","63dafeda84d9a5e684adb6be","bdp_trlrn","Tue Mar 14 2023 21:31:39 GMT-0400 (Eastern Daylight Time)","765345","Trustworthy,Untrustworthy","html-keyboard-response","179","441869","0.0-19.0-1.14","","","802","","<div class='trialDiv'><img src='trustrating_stim/white_00659_941121_fa_edt.bmp'><br><font class='baseline'><strong>Jacob</strong><p>Choose number of points to send.</font><div class='respPicDiv'><img src='img/responseButtonOffersNo0L.png' class='respPic'></div></div>","4","5","Jacob","0","Kept","0.2,0.65","13","0.2","trustrating_stim/white_00659_941121_fa_edt.bmp","1","67","15"
"","","","decisionFB","63dafeda84d9a5e684adb6be","bdp_trlrn","Tue Mar 14 2023 21:31:39 GMT-0400 (Eastern Daylight Time)","765345","Trustworthy,Untrustworthy","html-keyboard-response","180","442122","0.0-19.0-2.14","","","null","","<div class='trialDiv'><img src='trustrating_stim/white_00659_941121_fa_edt.bmp'><br><font class='baseline'><strong>Jacob</strong><p>Choose number of points to send.</font><div class='respPicDiv'><img src='img/responseButtonOffersNo0L4.png' class='respPic'></div></div>","null","5","Jacob","0","Kept","0.2,0.65","13","0.2","trustrating_stim/white_00659_941121_fa_edt.bmp","1","63","15"
"","","","feedback","63dafeda84d9a5e684adb6be","bdp_trlrn","Tue Mar 14 2023 21:31:39 GMT-0400 (Eastern Daylight Time)","765345","Trustworthy,Untrustworthy","html-keyboard-response","181","443130","0.0-19.0-3.14","","","null","","<div class='trialDiv'><img src='trustrating_stim/white_00659_941121_fa_edt.bmp'><br><font class='baseline'><strong>Jacob</strong><p>Received: <strong>16</strong></font> &nbsp; &nbsp; &nbsp; &nbsp; &nbsp; &nbsp;<font class='negOutcome'>Shared back: <strong>0</strong></font></font><div class='respPicDiv'><img src='img/responseButtonOffersNo0_wht.png' class='respPic'></div></div>","null","5","Jacob","0","Kept","0.2,0.65","13","0.2","trustrating_stim/white_00659_941121_fa_edt.bmp","1","63","15"
"","","","decision","63dafeda84d9a5e684adb6be","bdp_trlrn","Tue Mar 14 2023 21:31:39 GMT-0400 (Eastern Daylight Time)","765345","Trustworthy,Untrustworthy","html-keyboard-response","182","444107","0.0-19.0-1.15","","","975","","<div class='trialDiv'><img src='trustrating_stim/white_mw053.bmp'><br><font class='baseline'><strong>Chris</strong><p>Choose number of points to send.</font><div class='respPicDiv'><img src='img/responseButtonOffersNo0L.png' class='respPic'></div></div>","2","6","Chris","6","Shared","0.65,0.2","12","0.65","trustrating_stim/white_mw053.bmp","4.5","68","16"
"","","","decisionFB","63dafeda84d9a5e684adb6be","bdp_trlrn","Tue Mar 14 2023 21:31:39 GMT-0400 (Eastern Daylight Time)","765345","Trustworthy,Untrustworthy","html-keyboard-response","183","444361","0.0-19.0-2.15","","","null","","<div class='trialDiv'><img src='trustrating_stim/white_mw053.bmp'><br><font class='baseline'><strong>Chris</strong><p>Choose number of points to send.</font><div class='respPicDiv'><img src='img/responseButtonOffersNo0L2.png' class='respPic'></div></div>","null","6","Chris","6","Shared","0.65,0.2","12","0.65","trustrating_stim/white_mw053.bmp","4.5","66","16"
"","","","feedback","63dafeda84d9a5e684adb6be","bdp_trlrn","Tue Mar 14 2023 21:31:39 GMT-0400 (Eastern Daylight Time)","765345","Trustworthy,Untrustworthy","html-keyboard-response","184","445369","0.0-19.0-3.15","","","null","","<div class='trialDiv'><img src='trustrating_stim/white_mw053.bmp'><br><font class='baseline'><strong>Chris</strong><p>Received: <strong>8</strong></font> &nbsp; &nbsp; &nbsp; &nbsp; &nbsp; &nbsp;<font class='posOutcome'>Shared back: <strong>4</strong></font></font><div class='respPicDiv'><img src='img/responseButtonOffersNo0_wht.png' class='respPic'></div></div>","null","6","Chris","6","Shared","0.65,0.2","12","0.65","trustrating_stim/white_mw053.bmp","4.5","70","16"
"","","","decision","63dafeda84d9a5e684adb6be","bdp_trlrn","Tue Mar 14 2023 21:31:39 GMT-0400 (Eastern Daylight Time)","765345","Trustworthy,Untrustworthy","html-keyboard-response","185","446361","0.0-19.0-1.16","","","990","","<div class='trialDiv'><img src='trustrating_stim/white_00109_931230_fa_edt.bmp'><br><font class='baseline'><strong>Lucas</strong><p>Choose number of points to send.</font><div class='respPicDiv'><img src='img/responseButtonOffersNo0L.png' class='respPic'></div></div>","5","6","Lucas","8","Shared","0.35,0.65","13","0.35","trustrating_stim/white_00109_931230_fa_edt.bmp","7","75","17"
"","","","decisionFB","63dafeda84d9a5e684adb6be","bdp_trlrn","Tue Mar 14 2023 21:31:39 GMT-0400 (Eastern Daylight Time)","765345","Trustworthy,Untrustworthy","html-keyboard-response","186","446617","0.0-19.0-2.16","","","null","","<div class='trialDiv'><img src='trustrating_stim/white_00109_931230_fa_edt.bmp'><br><font class='baseline'><strong>Lucas</strong><p>Choose number of points to send.</font><div class='respPicDiv'><img src='img/responseButtonOffersNo0L5.png' class='respPic'></div></div>","null","6","Lucas","8","Shared","0.35,0.65","13","0.35","trustrating_stim/white_00109_931230_fa_edt.bmp","7","70","17"
"","","","feedback","63dafeda84d9a5e684adb6be","bdp_trlrn","Tue Mar 14 2023 21:31:39 GMT-0400 (Eastern Daylight Time)","765345","Trustworthy,Untrustworthy","html-keyboard-response","187","447625","0.0-19.0-3.16","","","null","","<div class='trialDiv'><img src='trustrating_stim/white_00109_931230_fa_edt.bmp'><br><font class='baseline'><strong>Lucas</strong><p>Received: <strong>20</strong></font> &nbsp; &nbsp; &nbsp; &nbsp; &nbsp; &nbsp;<font class='posOutcome'>Shared back: <strong>10</strong></font></font><div class='respPicDiv'><img src='img/responseButtonOffersNo0_wht.png' class='respPic'></div></div>","null","6","Lucas","8","Shared","0.35,0.65","13","0.35","trustrating_stim/white_00109_931230_fa_edt.bmp","7","80","17"
"","","","decision","63dafeda84d9a5e684adb6be","bdp_trlrn","Tue Mar 14 2023 21:31:39 GMT-0400 (Eastern Daylight Time)","765345","Trustworthy,Untrustworthy","html-keyboard-response","188","448546","0.0-19.0-1.17","","","920","","<div class='trialDiv'><img src='trustrating_stim/white_00659_941121_fa_edt.bmp'><br><font class='baseline'><strong>Jacob</strong><p>Choose number of points to send.</font><div class='respPicDiv'><img src='img/responseButtonOffersNo0L.png' class='respPic'></div></div>","5","6","Jacob","0","Shared","0.2,0.65","13","0.2","trustrating_stim/white_00659_941121_fa_edt.bmp","1","85","18"
"","","","decisionFB","63dafeda84d9a5e684adb6be","bdp_trlrn","Tue Mar 14 2023 21:31:39 GMT-0400 (Eastern Daylight Time)","765345","Trustworthy,Untrustworthy","html-keyboard-response","189","448801","0.0-19.0-2.17","","","null","","<div class='trialDiv'><img src='trustrating_stim/white_00659_941121_fa_edt.bmp'><br><font class='baseline'><strong>Jacob</strong><p>Choose number of points to send.</font><div class='respPicDiv'><img src='img/responseButtonOffersNo0L5.png' class='respPic'></div></div>","null","6","Jacob","0","Shared","0.2,0.65","13","0.2","trustrating_stim/white_00659_941121_fa_edt.bmp","1","80","18"
"","","","feedback","63dafeda84d9a5e684adb6be","bdp_trlrn","Tue Mar 14 2023 21:31:39 GMT-0400 (Eastern Daylight Time)","765345","Trustworthy,Untrustworthy","html-keyboard-response","190","449809","0.0-19.0-3.17","","","null","","<div class='trialDiv'><img src='trustrating_stim/white_00659_941121_fa_edt.bmp'><br><font class='baseline'><strong>Jacob</strong><p>Received: <strong>20</strong></font> &nbsp; &nbsp; &nbsp; &nbsp; &nbsp; &nbsp;<font class='posOutcome'>Shared back: <strong>10</strong></font></font><div class='respPicDiv'><img src='img/responseButtonOffersNo0_wht.png' class='respPic'></div></div>","null","6","Jacob","0","Shared","0.2,0.65","13","0.2","trustrating_stim/white_00659_941121_fa_edt.bmp","1","90","18"
"","","","decision","63dafeda84d9a5e684adb6be","bdp_trlrn","Tue Mar 14 2023 21:31:39 GMT-0400 (Eastern Daylight Time)","765345","Trustworthy,Untrustworthy","html-keyboard-response","191","450963","0.0-19.0-1.18","","","1152","","<div class='trialDiv'><img src='trustrating_stim/white_mw053.bmp'><br><font class='baseline'><strong>Chris</strong><p>Choose number of points to send.</font><div class='respPicDiv'><img src='img/responseButtonOffersNo0L.png' class='respPic'></div></div>","5","7","Chris","6","Shared","0.65,0.2","12","0.65","trustrating_stim/white_mw053.bmp","4.5","95","19"
"","","","decisionFB","63dafeda84d9a5e684adb6be","bdp_trlrn","Tue Mar 14 2023 21:31:39 GMT-0400 (Eastern Daylight Time)","765345","Trustworthy,Untrustworthy","html-keyboard-response","192","451217","0.0-19.0-2.18","","","null","","<div class='trialDiv'><img src='trustrating_stim/white_mw053.bmp'><br><font class='baseline'><strong>Chris</strong><p>Choose number of points to send.</font><div class='respPicDiv'><img src='img/responseButtonOffersNo0L5.png' class='respPic'></div></div>","null","7","Chris","6","Shared","0.65,0.2","12","0.65","trustrating_stim/white_mw053.bmp","4.5","90","19"
"","","","feedback","63dafeda84d9a5e684adb6be","bdp_trlrn","Tue Mar 14 2023 21:31:39 GMT-0400 (Eastern Daylight Time)","765345","Trustworthy,Untrustworthy","html-keyboard-response","193","452225","0.0-19.0-3.18","","","null","","<div class='trialDiv'><img src='trustrating_stim/white_mw053.bmp'><br><font class='baseline'><strong>Chris</strong><p>Received: <strong>20</strong></font> &nbsp; &nbsp; &nbsp; &nbsp; &nbsp; &nbsp;<font class='posOutcome'>Shared back: <strong>10</strong></font></font><div class='respPicDiv'><img src='img/responseButtonOffersNo0_wht.png' class='respPic'></div></div>","null","7","Chris","6","Shared","0.65,0.2","12","0.65","trustrating_stim/white_mw053.bmp","4.5","100","19"
"","","","decision","63dafeda84d9a5e684adb6be","bdp_trlrn","Tue Mar 14 2023 21:31:39 GMT-0400 (Eastern Daylight Time)","765345","Trustworthy,Untrustworthy","html-keyboard-response","194","453161","0.0-19.0-1.19","","","934","","<div class='trialDiv'><img src='trustrating_stim/white_00109_931230_fa_edt.bmp'><br><font class='baseline'><strong>Lucas</strong><p>Choose number of points to send.</font><div class='respPicDiv'><img src='img/responseButtonOffersNo0L.png' class='respPic'></div></div>","5","7","Lucas","8","Shared","0.35,0.65","13","0.35","trustrating_stim/white_00109_931230_fa_edt.bmp","7","105","20"
"","","","decisionFB","63dafeda84d9a5e684adb6be","bdp_trlrn","Tue Mar 14 2023 21:31:39 GMT-0400 (Eastern Daylight Time)","765345","Trustworthy,Untrustworthy","html-keyboard-response","195","453417","0.0-19.0-2.19","","","null","","<div class='trialDiv'><img src='trustrating_stim/white_00109_931230_fa_edt.bmp'><br><font class='baseline'><strong>Lucas</strong><p>Choose number of points to send.</font><div class='respPicDiv'><img src='img/responseButtonOffersNo0L5.png' class='respPic'></div></div>","null","7","Lucas","8","Shared","0.35,0.65","13","0.35","trustrating_stim/white_00109_931230_fa_edt.bmp","7","100","20"
"","","","feedback","63dafeda84d9a5e684adb6be","bdp_trlrn","Tue Mar 14 2023 21:31:39 GMT-0400 (Eastern Daylight Time)","765345","Trustworthy,Untrustworthy","html-keyboard-response","196","454425","0.0-19.0-3.19","","","null","","<div class='trialDiv'><img src='trustrating_stim/white_00109_931230_fa_edt.bmp'><br><font class='baseline'><strong>Lucas</strong><p>Received: <strong>20</strong></font> &nbsp; &nbsp; &nbsp; &nbsp; &nbsp; &nbsp;<font class='posOutcome'>Shared back: <strong>10</strong></font></font><div class='respPicDiv'><img src='img/responseButtonOffersNo0_wht.png' class='respPic'></div></div>","null","7","Lucas","8","Shared","0.35,0.65","13","0.35","trustrating_stim/white_00109_931230_fa_edt.bmp","7","110","20"
"","","","decision","63dafeda84d9a5e684adb6be","bdp_trlrn","Tue Mar 14 2023 21:31:39 GMT-0400 (Eastern Daylight Time)","765345","Trustworthy,Untrustworthy","html-keyboard-response","197","455457","0.0-19.0-1.20","","","1031","","<div class='trialDiv'><img src='trustrating_stim/white_00659_941121_fa_edt.bmp'><br><font class='baseline'><strong>Jacob</strong><p>Choose number of points to send.</font><div class='respPicDiv'><img src='img/responseButtonOffersNo0L.png' class='respPic'></div></div>","5","7","Jacob","0","Kept","0.2,0.65","13","0.2","trustrating_stim/white_00659_941121_fa_edt.bmp","1","115","21"
"","","","decisionFB","63dafeda84d9a5e684adb6be","bdp_trlrn","Tue Mar 14 2023 21:31:39 GMT-0400 (Eastern Daylight Time)","765345","Trustworthy,Untrustworthy","html-keyboard-response","198","455713","0.0-19.0-2.20","","","null","","<div class='trialDiv'><img src='trustrating_stim/white_00659_941121_fa_edt.bmp'><br><font class='baseline'><strong>Jacob</strong><p>Choose number of points to send.</font><div class='respPicDiv'><img src='img/responseButtonOffersNo0L5.png' class='respPic'></div></div>","null","7","Jacob","0","Kept","0.2,0.65","13","0.2","trustrating_stim/white_00659_941121_fa_edt.bmp","1","110","21"
"","","","feedback","63dafeda84d9a5e684adb6be","bdp_trlrn","Tue Mar 14 2023 21:31:39 GMT-0400 (Eastern Daylight Time)","765345","Trustworthy,Untrustworthy","html-keyboard-response","199","456721","0.0-19.0-3.20","","","null","","<div class='trialDiv'><img src='trustrating_stim/white_00659_941121_fa_edt.bmp'><br><font class='baseline'><strong>Jacob</strong><p>Received: <strong>20</strong></font> &nbsp; &nbsp; &nbsp; &nbsp; &nbsp; &nbsp;<font class='negOutcome'>Shared back: <strong>0</strong></font></font><div class='respPicDiv'><img src='img/responseButtonOffersNo0_wht.png' class='respPic'></div></div>","null","7","Jacob","0","Kept","0.2,0.65","13","0.2","trustrating_stim/white_00659_941121_fa_edt.bmp","1","110","21"
"","","","decision","63dafeda84d9a5e684adb6be","bdp_trlrn","Tue Mar 14 2023 21:31:39 GMT-0400 (Eastern Daylight Time)","765345","Trustworthy,Untrustworthy","html-keyboard-response","200","457600","0.0-19.0-1.21","","","878","","<div class='trialDiv'><img src='trustrating_stim/white_mw053.bmp'><br><font class='baseline'><strong>Chris</strong><p>Choose number of points to send.</font><div class='respPicDiv'><img src='img/responseButtonOffersNo0L.png' class='respPic'></div></div>","5","8","Chris","6","Shared","0.65,0.2","12","0.65","trustrating_stim/white_mw053.bmp","4.5","115","22"
"","","","decisionFB","63dafeda84d9a5e684adb6be","bdp_trlrn","Tue Mar 14 2023 21:31:39 GMT-0400 (Eastern Daylight Time)","765345","Trustworthy,Untrustworthy","html-keyboard-response","201","457857","0.0-19.0-2.21","","","null","","<div class='trialDiv'><img src='trustrating_stim/white_mw053.bmp'><br><font class='baseline'><strong>Chris</strong><p>Choose number of points to send.</font><div class='respPicDiv'><img src='img/responseButtonOffersNo0L5.png' class='respPic'></div></div>","null","8","Chris","6","Shared","0.65,0.2","12","0.65","trustrating_stim/white_mw053.bmp","4.5","110","22"
"","","","feedback","63dafeda84d9a5e684adb6be","bdp_trlrn","Tue Mar 14 2023 21:31:39 GMT-0400 (Eastern Daylight Time)","765345","Trustworthy,Untrustworthy","html-keyboard-response","202","458865","0.0-19.0-3.21","","","null","","<div class='trialDiv'><img src='trustrating_stim/white_mw053.bmp'><br><font class='baseline'><strong>Chris</strong><p>Received: <strong>20</strong></font> &nbsp; &nbsp; &nbsp; &nbsp; &nbsp; &nbsp;<font class='posOutcome'>Shared back: <strong>10</strong></font></font><div class='respPicDiv'><img src='img/responseButtonOffersNo0_wht.png' class='respPic'></div></div>","null","8","Chris","6","Shared","0.65,0.2","12","0.65","trustrating_stim/white_mw053.bmp","4.5","120","22"
"","","","decision","63dafeda84d9a5e684adb6be","bdp_trlrn","Tue Mar 14 2023 21:31:39 GMT-0400 (Eastern Daylight Time)","765345","Trustworthy,Untrustworthy","html-keyboard-response","203","459872","0.0-19.0-1.22","","","1005","","<div class='trialDiv'><img src='trustrating_stim/white_00659_941121_fa_edt.bmp'><br><font class='baseline'><strong>Jacob</strong><p>Choose number of points to send.</font><div class='respPicDiv'><img src='img/responseButtonOffersNo0L.png' class='respPic'></div></div>","5","8","Jacob","0","Kept","0.2,0.65","13","0.2","trustrating_stim/white_00659_941121_fa_edt.bmp","1","125","23"
"","","","decisionFB","63dafeda84d9a5e684adb6be","bdp_trlrn","Tue Mar 14 2023 21:31:39 GMT-0400 (Eastern Daylight Time)","765345","Trustworthy,Untrustworthy","html-keyboard-response","204","460129","0.0-19.0-2.22","","","null","","<div class='trialDiv'><img src='trustrating_stim/white_00659_941121_fa_edt.bmp'><br><font class='baseline'><strong>Jacob</strong><p>Choose number of points to send.</font><div class='respPicDiv'><img src='img/responseButtonOffersNo0L5.png' class='respPic'></div></div>","null","8","Jacob","0","Kept","0.2,0.65","13","0.2","trustrating_stim/white_00659_941121_fa_edt.bmp","1","120","23"
"","","","feedback","63dafeda84d9a5e684adb6be","bdp_trlrn","Tue Mar 14 2023 21:31:39 GMT-0400 (Eastern Daylight Time)","765345","Trustworthy,Untrustworthy","html-keyboard-response","205","461137","0.0-19.0-3.22","","","null","","<div class='trialDiv'><img src='trustrating_stim/white_00659_941121_fa_edt.bmp'><br><font class='baseline'><strong>Jacob</strong><p>Received: <strong>20</strong></font> &nbsp; &nbsp; &nbsp; &nbsp; &nbsp; &nbsp;<font class='negOutcome'>Shared back: <strong>0</strong></font></font><div class='respPicDiv'><img src='img/responseButtonOffersNo0_wht.png' class='respPic'></div></div>","null","8","Jacob","0","Kept","0.2,0.65","13","0.2","trustrating_stim/white_00659_941121_fa_edt.bmp","1","120","23"
"","","","decision","63dafeda84d9a5e684adb6be","bdp_trlrn","Tue Mar 14 2023 21:31:39 GMT-0400 (Eastern Daylight Time)","765345","Trustworthy,Untrustworthy","html-keyboard-response","206","461953","0.0-19.0-1.23","","","813","","<div class='trialDiv'><img src='trustrating_stim/white_00109_931230_fa_edt.bmp'><br><font class='baseline'><strong>Lucas</strong><p>Choose number of points to send.</font><div class='respPicDiv'><img src='img/responseButtonOffersNo0L.png' class='respPic'></div></div>","5","8","Lucas","8","Kept","0.35,0.65","13","0.35","trustrating_stim/white_00109_931230_fa_edt.bmp","7","125","24"
"","","","decisionFB","63dafeda84d9a5e684adb6be","bdp_trlrn","Tue Mar 14 2023 21:31:39 GMT-0400 (Eastern Daylight Time)","765345","Trustworthy,Untrustworthy","html-keyboard-response","207","462209","0.0-19.0-2.23","","","null","","<div class='trialDiv'><img src='trustrating_stim/white_00109_931230_fa_edt.bmp'><br><font class='baseline'><strong>Lucas</strong><p>Choose number of points to send.</font><div class='respPicDiv'><img src='img/responseButtonOffersNo0L5.png' class='respPic'></div></div>","null","8","Lucas","8","Kept","0.35,0.65","13","0.35","trustrating_stim/white_00109_931230_fa_edt.bmp","7","120","24"
"","","","feedback","63dafeda84d9a5e684adb6be","bdp_trlrn","Tue Mar 14 2023 21:31:39 GMT-0400 (Eastern Daylight Time)","765345","Trustworthy,Untrustworthy","html-keyboard-response","208","463217","0.0-19.0-3.23","","","null","","<div class='trialDiv'><img src='trustrating_stim/white_00109_931230_fa_edt.bmp'><br><font class='baseline'><strong>Lucas</strong><p>Received: <strong>20</strong></font> &nbsp; &nbsp; &nbsp; &nbsp; &nbsp; &nbsp;<font class='negOutcome'>Shared back: <strong>0</strong></font></font><div class='respPicDiv'><img src='img/responseButtonOffersNo0_wht.png' class='respPic'></div></div>","null","8","Lucas","8","Kept","0.35,0.65","13","0.35","trustrating_stim/white_00109_931230_fa_edt.bmp","7","120","24"
"","","","decision","63dafeda84d9a5e684adb6be","bdp_trlrn","Tue Mar 14 2023 21:31:39 GMT-0400 (Eastern Daylight Time)","765345","Trustworthy,Untrustworthy","html-keyboard-response","209","464045","0.0-19.0-1.24","","","827","","<div class='trialDiv'><img src='trustrating_stim/white_00659_941121_fa_edt.bmp'><br><font class='baseline'><strong>Jacob</strong><p>Choose number of points to send.</font><div class='respPicDiv'><img src='img/responseButtonOffersNo0L.png' class='respPic'></div></div>","3","9","Jacob","0","Kept","0.2,0.65","13","0.2","trustrating_stim/white_00659_941121_fa_edt.bmp","1","125","25"
"","","","decisionFB","63dafeda84d9a5e684adb6be","bdp_trlrn","Tue Mar 14 2023 21:31:39 GMT-0400 (Eastern Daylight Time)","765345","Trustworthy,Untrustworthy","html-keyboard-response","210","464305","0.0-19.0-2.24","","","null","","<div class='trialDiv'><img src='trustrating_stim/white_00659_941121_fa_edt.bmp'><br><font class='baseline'><strong>Jacob</strong><p>Choose number of points to send.</font><div class='respPicDiv'><img src='img/responseButtonOffersNo0L3.png' class='respPic'></div></div>","null","9","Jacob","0","Kept","0.2,0.65","13","0.2","trustrating_stim/white_00659_941121_fa_edt.bmp","1","122","25"
"","","","feedback","63dafeda84d9a5e684adb6be","bdp_trlrn","Tue Mar 14 2023 21:31:39 GMT-0400 (Eastern Daylight Time)","765345","Trustworthy,Untrustworthy","html-keyboard-response","211","465313","0.0-19.0-3.24","","","null","","<div class='trialDiv'><img src='trustrating_stim/white_00659_941121_fa_edt.bmp'><br><font class='baseline'><strong>Jacob</strong><p>Received: <strong>12</strong></font> &nbsp; &nbsp; &nbsp; &nbsp; &nbsp; &nbsp;<font class='negOutcome'>Shared back: <strong>0</strong></font></font><div class='respPicDiv'><img src='img/responseButtonOffersNo0_wht.png' class='respPic'></div></div>","null","9","Jacob","0","Kept","0.2,0.65","13","0.2","trustrating_stim/white_00659_941121_fa_edt.bmp","1","122","25"
"","","","decision","63dafeda84d9a5e684adb6be","bdp_trlrn","Tue Mar 14 2023 21:31:39 GMT-0400 (Eastern Daylight Time)","765345","Trustworthy,Untrustworthy","html-keyboard-response","212","465950","0.0-19.0-1.25","","","636","","<div class='trialDiv'><img src='trustrating_stim/white_00109_931230_fa_edt.bmp'><br><font class='baseline'><strong>Lucas</strong><p>Choose number of points to send.</font><div class='respPicDiv'><img src='img/responseButtonOffersNo0L.png' class='respPic'></div></div>","4","9","Lucas","8","Shared","0.35,0.65","13","0.35","trustrating_stim/white_00109_931230_fa_edt.bmp","7","127","26"
"","","","decisionFB","63dafeda84d9a5e684adb6be","bdp_trlrn","Tue Mar 14 2023 21:31:39 GMT-0400 (Eastern Daylight Time)","765345","Trustworthy,Untrustworthy","html-keyboard-response","213","466209","0.0-19.0-2.25","","","null","","<div class='trialDiv'><img src='trustrating_stim/white_00109_931230_fa_edt.bmp'><br><font class='baseline'><strong>Lucas</strong><p>Choose number of points to send.</font><div class='respPicDiv'><img src='img/responseButtonOffersNo0L4.png' class='respPic'></div></div>","null","9","Lucas","8","Shared","0.35,0.65","13","0.35","trustrating_stim/white_00109_931230_fa_edt.bmp","7","123","26"
"","","","feedback","63dafeda84d9a5e684adb6be","bdp_trlrn","Tue Mar 14 2023 21:31:39 GMT-0400 (Eastern Daylight Time)","765345","Trustworthy,Untrustworthy","html-keyboard-response","214","467217","0.0-19.0-3.25","","","null","","<div class='trialDiv'><img src='trustrating_stim/white_00109_931230_fa_edt.bmp'><br><font class='baseline'><strong>Lucas</strong><p>Received: <strong>16</strong></font> &nbsp; &nbsp; &nbsp; &nbsp; &nbsp; &nbsp;<font class='posOutcome'>Shared back: <strong>8</strong></font></font><div class='respPicDiv'><img src='img/responseButtonOffersNo0_wht.png' class='respPic'></div></div>","null","9","Lucas","8","Shared","0.35,0.65","13","0.35","trustrating_stim/white_00109_931230_fa_edt.bmp","7","131","26"
"","","","decision","63dafeda84d9a5e684adb6be","bdp_trlrn","Tue Mar 14 2023 21:31:39 GMT-0400 (Eastern Daylight Time)","765345","Trustworthy,Untrustworthy","html-keyboard-response","215","467774","0.0-19.0-1.26","","","556","","<div class='trialDiv'><img src='trustrating_stim/white_mw053.bmp'><br><font class='baseline'><strong>Chris</strong><p>Choose number of points to send.</font><div class='respPicDiv'><img src='img/responseButtonOffersNo0L.png' class='respPic'></div></div>","5","9","Chris","6","Kept","0.65,0.2","12","0.65","trustrating_stim/white_mw053.bmp","4.5","136","27"
"","","","decisionFB","63dafeda84d9a5e684adb6be","bdp_trlrn","Tue Mar 14 2023 21:31:39 GMT-0400 (Eastern Daylight Time)","765345","Trustworthy,Untrustworthy","html-keyboard-response","216","468033","0.0-19.0-2.26","","","null","","<div class='trialDiv'><img src='trustrating_stim/white_mw053.bmp'><br><font class='baseline'><strong>Chris</strong><p>Choose number of points to send.</font><div class='respPicDiv'><img src='img/responseButtonOffersNo0L5.png' class='respPic'></div></div>","null","9","Chris","6","Kept","0.65,0.2","12","0.65","trustrating_stim/white_mw053.bmp","4.5","131","27"
"","","","feedback","63dafeda84d9a5e684adb6be","bdp_trlrn","Tue Mar 14 2023 21:31:39 GMT-0400 (Eastern Daylight Time)","765345","Trustworthy,Untrustworthy","html-keyboard-response","217","469041","0.0-19.0-3.26","","","null","","<div class='trialDiv'><img src='trustrating_stim/white_mw053.bmp'><br><font class='baseline'><strong>Chris</strong><p>Received: <strong>20</strong></font> &nbsp; &nbsp; &nbsp; &nbsp; &nbsp; &nbsp;<font class='negOutcome'>Shared back: <strong>0</strong></font></font><div class='respPicDiv'><img src='img/responseButtonOffersNo0_wht.png' class='respPic'></div></div>","null","9","Chris","6","Kept","0.65,0.2","12","0.65","trustrating_stim/white_mw053.bmp","4.5","131","27"
