"trial_type","trial_index","time_elapsed","internal_node_id","subject_id","task","startTime","totalTime","labels","view_history","rt","event","trial","time","trialtype","success","stimulus","key_press","aground","name","faceID","outcome","agenttype","agentswpt","agentcurrpshare","face","avgRating","point_total","round"
"pavlovia","0","3","0.0-0.0","63d53c6bc368b9fa8d33f4cf","bdp_trlrn","Tue Mar 14 2023 21:07:49 GMT-0400 (Eastern Daylight Time)","395794","Untrustworthy,Trustworthy","","","","","","","","","","","","","","","","","","","",""
"instructions","1","1810","0.0-1.0","63d53c6bc368b9fa8d33f4cf","bdp_trlrn","Tue Mar 14 2023 21:07:49 GMT-0400 (Eastern Daylight Time)","395794","Untrustworthy,Trustworthy","[{""page_index"":0,""viewing_time"":1807}]","1807","","","","","","","","","","","","","","","","","",""
"","","","","63d53c6bc368b9fa8d33f4cf","bdp_trlrn","Tue Mar 14 2023 21:07:49 GMT-0400 (Eastern Daylight Time)","395794","Untrustworthy,Trustworthy","","","fullscreenenter","2","4322","fullscreenenter","","","","","","","","","","","","","",""
"fullscreen","2","5320","0.0-2.0","63d53c6bc368b9fa8d33f4cf","bdp_trlrn","Tue Mar 14 2023 21:07:49 GMT-0400 (Eastern Daylight Time)","395794","Untrustworthy,Trustworthy","","","","","","","true","","","","","","","","","","","","",""
"instructions","3","14161","0.0-4.0","63d53c6bc368b9fa8d33f4cf","bdp_trlrn","Tue Mar 14 2023 21:07:49 GMT-0400 (Eastern Daylight Time)","395794","Untrustworthy,Trustworthy","[{""page_index"":0,""viewing_time"":6320},{""page_index"":1,""viewing_time"":2520}]","8840","","","","","","","","","","","","","","","","","",""
"instructions","4","14997","0.0-5.0","63d53c6bc368b9fa8d33f4cf","bdp_trlrn","Tue Mar 14 2023 21:07:49 GMT-0400 (Eastern Daylight Time)","395794","Untrustworthy,Trustworthy","[{""page_index"":0,""viewing_time"":836}]","836","","","","","","","","","","","","","","","","","",""
"image-keyboard-response","5","19225","0.0-6.0-1.0","63d53c6bc368b9fa8d33f4cf","bdp_trlrn","Tue Mar 14 2023 21:07:49 GMT-0400 (Eastern Daylight Time)","395794","Untrustworthy,Trustworthy","","4121","","","","rating","","trustrating_stim/white_mw097.bmp","2","","","","","","","","","","",""
"image-keyboard-response","6","19428","0.0-6.0-2.0","63d53c6bc368b9fa8d33f4cf","bdp_trlrn","Tue Mar 14 2023 21:07:49 GMT-0400 (Eastern Daylight Time)","395794","Untrustworthy,Trustworthy","","null","","","","ratingFB","","trustrating_stim/white_mw097.bmp","null","","","","","","","","","","",""
"image-keyboard-response","7","20775","0.0-6.0-1.1","63d53c6bc368b9fa8d33f4cf","bdp_trlrn","Tue Mar 14 2023 21:07:49 GMT-0400 (Eastern Daylight Time)","395794","Untrustworthy,Trustworthy","","1245","","","","rating","","trustrating_stim/white_mw033.bmp","1","","","","","","","","","","",""
"image-keyboard-response","8","20985","0.0-6.0-2.1","63d53c6bc368b9fa8d33f4cf","bdp_trlrn","Tue Mar 14 2023 21:07:49 GMT-0400 (Eastern Daylight Time)","395794","Untrustworthy,Trustworthy","","null","","","","ratingFB","","trustrating_stim/white_mw033.bmp","null","","","","","","","","","","",""
"image-keyboard-response","9","23341","0.0-6.0-1.2","63d53c6bc368b9fa8d33f4cf","bdp_trlrn","Tue Mar 14 2023 21:07:49 GMT-0400 (Eastern Daylight Time)","395794","Untrustworthy,Trustworthy","","2253","","","","rating","","trustrating_stim/white_mw053.bmp","2","","","","","","","","","","",""
"image-keyboard-response","10","23545","0.0-6.0-2.2","63d53c6bc368b9fa8d33f4cf","bdp_trlrn","Tue Mar 14 2023 21:07:49 GMT-0400 (Eastern Daylight Time)","395794","Untrustworthy,Trustworthy","","null","","","","ratingFB","","trustrating_stim/white_mw053.bmp","null","","","","","","","","","","",""
"image-keyboard-response","11","26674","0.0-6.0-1.3","63d53c6bc368b9fa8d33f4cf","bdp_trlrn","Tue Mar 14 2023 21:07:49 GMT-0400 (Eastern Daylight Time)","395794","Untrustworthy,Trustworthy","","3019","","","","rating","","trustrating_stim/white_mw066.bmp","3","","","","","","","","","","",""
"image-keyboard-response","12","26875","0.0-6.0-2.3","63d53c6bc368b9fa8d33f4cf","bdp_trlrn","Tue Mar 14 2023 21:07:49 GMT-0400 (Eastern Daylight Time)","395794","Untrustworthy,Trustworthy","","null","","","","ratingFB","","trustrating_stim/white_mw066.bmp","null","","","","","","","","","","",""
"image-keyboard-response","13","27875","0.0-6.0-1.4","63d53c6bc368b9fa8d33f4cf","bdp_trlrn","Tue Mar 14 2023 21:07:49 GMT-0400 (Eastern Daylight Time)","395794","Untrustworthy,Trustworthy","","889","","","","rating","","trustrating_stim/white_mw046.bmp","2","","","","","","","","","","",""
"image-keyboard-response","14","28091","0.0-6.0-2.4","63d53c6bc368b9fa8d33f4cf","bdp_trlrn","Tue Mar 14 2023 21:07:49 GMT-0400 (Eastern Daylight Time)","395794","Untrustworthy,Trustworthy","","null","","","","ratingFB","","trustrating_stim/white_mw046.bmp","null","","","","","","","","","","",""
"image-keyboard-response","15","30653","0.0-6.0-1.5","63d53c6bc368b9fa8d33f4cf","bdp_trlrn","Tue Mar 14 2023 21:07:49 GMT-0400 (Eastern Daylight Time)","395794","Untrustworthy,Trustworthy","","2453","","","","rating","","trustrating_stim/white_00120_931230_fa_edt.bmp","4","","","","","","","","","","",""
"image-keyboard-response","16","30854","0.0-6.0-2.5","63d53c6bc368b9fa8d33f4cf","bdp_trlrn","Tue Mar 14 2023 21:07:49 GMT-0400 (Eastern Daylight Time)","395794","Untrustworthy,Trustworthy","","null","","","","ratingFB","","trustrating_stim/white_00120_931230_fa_edt.bmp","null","","","","","","","","","","",""
"image-keyboard-response","17","32068","0.0-6.0-1.6","63d53c6bc368b9fa8d33f4cf","bdp_trlrn","Tue Mar 14 2023 21:07:49 GMT-0400 (Eastern Daylight Time)","395794","Untrustworthy,Trustworthy","","1113","","","","rating","","trustrating_stim/white_mw035.bmp","1","","","","","","","","","","",""
"image-keyboard-response","18","32269","0.0-6.0-2.6","63d53c6bc368b9fa8d33f4cf","bdp_trlrn","Tue Mar 14 2023 21:07:49 GMT-0400 (Eastern Daylight Time)","395794","Untrustworthy,Trustworthy","","null","","","","ratingFB","","trustrating_stim/white_mw035.bmp","null","","","","","","","","","","",""
"image-keyboard-response","19","33398","0.0-6.0-1.7","63d53c6bc368b9fa8d33f4cf","bdp_trlrn","Tue Mar 14 2023 21:07:49 GMT-0400 (Eastern Daylight Time)","395794","Untrustworthy,Trustworthy","","1027","","","","rating","","trustrating_stim/white_00602_940928_fb_edt.bmp","6","","","","","","","","","","",""
"image-keyboard-response","20","33599","0.0-6.0-2.7","63d53c6bc368b9fa8d33f4cf","bdp_trlrn","Tue Mar 14 2023 21:07:49 GMT-0400 (Eastern Daylight Time)","395794","Untrustworthy,Trustworthy","","null","","","","ratingFB","","trustrating_stim/white_00602_940928_fb_edt.bmp","null","","","","","","","","","","",""
"image-keyboard-response","21","34441","0.0-6.0-1.8","63d53c6bc368b9fa8d33f4cf","bdp_trlrn","Tue Mar 14 2023 21:07:49 GMT-0400 (Eastern Daylight Time)","395794","Untrustworthy,Trustworthy","","741","","","","rating","","trustrating_stim/white_00223_940128_fb_edt.bmp","1","","","","","","","","","","",""
"image-keyboard-response","22","34643","0.0-6.0-2.8","63d53c6bc368b9fa8d33f4cf","bdp_trlrn","Tue Mar 14 2023 21:07:49 GMT-0400 (Eastern Daylight Time)","395794","Untrustworthy,Trustworthy","","null","","","","ratingFB","","trustrating_stim/white_00223_940128_fb_edt.bmp","null","","","","","","","","","","",""
"image-keyboard-response","23","35834","0.0-6.0-1.9","63d53c6bc368b9fa8d33f4cf","bdp_trlrn","Tue Mar 14 2023 21:07:49 GMT-0400 (Eastern Daylight Time)","395794","Untrustworthy,Trustworthy","","1089","","","","rating","","trustrating_stim/white_00340_940422_fa_edt.bmp","2","","","","","","","","","","",""
"image-keyboard-response","24","36036","0.0-6.0-2.9","63d53c6bc368b9fa8d33f4cf","bdp_trlrn","Tue Mar 14 2023 21:07:49 GMT-0400 (Eastern Daylight Time)","395794","Untrustworthy,Trustworthy","","null","","","","ratingFB","","trustrating_stim/white_00340_940422_fa_edt.bmp","null","","","","","","","","","","",""
"image-keyboard-response","25","37216","0.0-6.0-1.10","63d53c6bc368b9fa8d33f4cf","bdp_trlrn","Tue Mar 14 2023 21:07:49 GMT-0400 (Eastern Daylight Time)","395794","Untrustworthy,Trustworthy","","1078","","","","rating","","trustrating_stim/white_00129_931230_fb_edt.bmp","6","","","","","","","","","","",""
"image-keyboard-response","26","37417","0.0-6.0-2.10","63d53c6bc368b9fa8d33f4cf","bdp_trlrn","Tue Mar 14 2023 21:07:49 GMT-0400 (Eastern Daylight Time)","395794","Untrustworthy,Trustworthy","","null","","","","ratingFB","","trustrating_stim/white_00129_931230_fb_edt.bmp","null","","","","","","","","","","",""
"image-keyboard-response","27","38551","0.0-6.0-1.11","63d53c6bc368b9fa8d33f4cf","bdp_trlrn","Tue Mar 14 2023 21:07:49 GMT-0400 (Eastern Daylight Time)","395794","Untrustworthy,Trustworthy","","1033","","","","rating","","trustrating_stim/white_00659_941121_fa_edt.bmp","1","","","","","","","","","","",""
"image-keyboard-response","28","38752","0.0-6.0-2.11","63d53c6bc368b9fa8d33f4cf","bdp_trlrn","Tue Mar 14 2023 21:07:49 GMT-0400 (Eastern Daylight Time)","395794","Untrustworthy,Trustworthy","","null","","","","ratingFB","","trustrating_stim/white_00659_941121_fa_edt.bmp","null","","","","","","","","","","",""
"image-keyboard-response","29","39861","0.0-6.0-1.12","63d53c6bc368b9fa8d33f4cf","bdp_trlrn","Tue Mar 14 2023 21:07:49 GMT-0400 (Eastern Daylight Time)","395794","Untrustworthy,Trustworthy","","1008","","","","rating","","trustrating_stim/white_00109_931230_fa_edt.bmp","7","","","","","","","","","","",""
"image-keyboard-response","30","40062","0.0-6.0-2.12","63d53c6bc368b9fa8d33f4cf","bdp_trlrn","Tue Mar 14 2023 21:07:49 GMT-0400 (Eastern Daylight Time)","395794","Untrustworthy,Trustworthy","","null","","","","ratingFB","","trustrating_stim/white_00109_931230_fa_edt.bmp","null","","","","","","","","","","",""
"image-keyboard-response","31","43794","0.0-6.0-1.13","63d53c6bc368b9fa8d33f4cf","bdp_trlrn","Tue Mar 14 2023 21:07:49 GMT-0400 (Eastern Daylight Time)","395794","Untrustworthy,Trustworthy","","3632","","","","rating","","trustrating_stim/white_00577_940928_fa_edt.bmp","3","","","","","","","","","","",""
"image-keyboard-response","32","43996","0.0-6.0-2.13","63d53c6bc368b9fa8d33f4cf","bdp_trlrn","Tue Mar 14 2023 21:07:49 GMT-0400 (Eastern Daylight Time)","395794","Untrustworthy,Trustworthy","","null","","","","ratingFB","","trustrating_stim/white_00577_940928_fa_edt.bmp","null","","","","","","","","","","",""
"image-keyboard-response","33","45326","0.0-6.0-1.14","63d53c6bc368b9fa8d33f4cf","bdp_trlrn","Tue Mar 14 2023 21:07:49 GMT-0400 (Eastern Daylight Time)","395794","Untrustworthy,Trustworthy","","1229","","","","rating","","trustrating_stim/white_00898_960530_fa_edt.bmp","8","","","","","","","","","","",""
"image-keyboard-response","34","45527","0.0-6.0-2.14","63d53c6bc368b9fa8d33f4cf","bdp_trlrn","Tue Mar 14 2023 21:07:49 GMT-0400 (Eastern Daylight Time)","395794","Untrustworthy,Trustworthy","","null","","","","ratingFB","","trustrating_stim/white_00898_960530_fa_edt.bmp","null","","","","","","","","","","",""
"image-keyboard-response","35","46802","0.0-6.0-1.15","63d53c6bc368b9fa8d33f4cf","bdp_trlrn","Tue Mar 14 2023 21:07:49 GMT-0400 (Eastern Daylight Time)","395794","Untrustworthy,Trustworthy","","1172","","","","rating","","trustrating_stim/white_mw048.bmp","1","","","","","","","","","","",""
"image-keyboard-response","36","47003","0.0-6.0-2.15","63d53c6bc368b9fa8d33f4cf","bdp_trlrn","Tue Mar 14 2023 21:07:49 GMT-0400 (Eastern Daylight Time)","395794","Untrustworthy,Trustworthy","","null","","","","ratingFB","","trustrating_stim/white_mw048.bmp","null","","","","","","","","","","",""
"image-keyboard-response","37","47812","0.0-6.0-1.16","63d53c6bc368b9fa8d33f4cf","bdp_trlrn","Tue Mar 14 2023 21:07:49 GMT-0400 (Eastern Daylight Time)","395794","Untrustworthy,Trustworthy","","707","","","","rating","","trustrating_stim/white_mw099.bmp","1","","","","","","","","","","",""
"image-keyboard-response","38","48014","0.0-6.0-2.16","63d53c6bc368b9fa8d33f4cf","bdp_trlrn","Tue Mar 14 2023 21:07:49 GMT-0400 (Eastern Daylight Time)","395794","Untrustworthy,Trustworthy","","null","","","","ratingFB","","trustrating_stim/white_mw099.bmp","null","","","","","","","","","","",""
"image-keyboard-response","39","48804","0.0-6.0-1.17","63d53c6bc368b9fa8d33f4cf","bdp_trlrn","Tue Mar 14 2023 21:07:49 GMT-0400 (Eastern Daylight Time)","395794","Untrustworthy,Trustworthy","","688","","","","rating","","trustrating_stim/white_00761_941201_fb_edt.bmp","1","","","","","","","","","","",""
"image-keyboard-response","40","49010","0.0-6.0-2.17","63d53c6bc368b9fa8d33f4cf","bdp_trlrn","Tue Mar 14 2023 21:07:49 GMT-0400 (Eastern Daylight Time)","395794","Untrustworthy,Trustworthy","","null","","","","ratingFB","","trustrating_stim/white_00761_941201_fb_edt.bmp","null","","","","","","","","","","",""
"image-keyboard-response","41","49828","0.0-6.0-1.18","63d53c6bc368b9fa8d33f4cf","bdp_trlrn","Tue Mar 14 2023 21:07:49 GMT-0400 (Eastern Daylight Time)","395794","Untrustworthy,Trustworthy","","717","","","","rating","","trustrating_stim/white_mw071.bmp","1","","","","","","","","","","",""
"image-keyboard-response","42","50029","0.0-6.0-2.18","63d53c6bc368b9fa8d33f4cf","bdp_trlrn","Tue Mar 14 2023 21:07:49 GMT-0400 (Eastern Daylight Time)","395794","Untrustworthy,Trustworthy","","null","","","","ratingFB","","trustrating_stim/white_mw071.bmp","null","","","","","","","","","","",""
"image-keyboard-response","43","50748","0.0-6.0-1.19","63d53c6bc368b9fa8d33f4cf","bdp_trlrn","Tue Mar 14 2023 21:07:49 GMT-0400 (Eastern Daylight Time)","395794","Untrustworthy,Trustworthy","","618","","","","rating","","trustrating_stim/white_mw060.bmp","1","","","","","","","","","","",""
"image-keyboard-response","44","50950","0.0-6.0-2.19","63d53c6bc368b9fa8d33f4cf","bdp_trlrn","Tue Mar 14 2023 21:07:49 GMT-0400 (Eastern Daylight Time)","395794","Untrustworthy,Trustworthy","","null","","","","ratingFB","","trustrating_stim/white_mw060.bmp","null","","","","","","","","","","",""
"image-keyboard-response","45","52627","0.0-6.0-1.20","63d53c6bc368b9fa8d33f4cf","bdp_trlrn","Tue Mar 14 2023 21:07:49 GMT-0400 (Eastern Daylight Time)","395794","Untrustworthy,Trustworthy","","1574","","","","rating","","trustrating_stim/white_mw084.bmp","8","","","","","","","","","","",""
"image-keyboard-response","46","52828","0.0-6.0-2.20","63d53c6bc368b9fa8d33f4cf","bdp_trlrn","Tue Mar 14 2023 21:07:49 GMT-0400 (Eastern Daylight Time)","395794","Untrustworthy,Trustworthy","","null","","","","ratingFB","","trustrating_stim/white_mw084.bmp","null","","","","","","","","","","",""
"image-keyboard-response","47","54564","0.0-6.0-1.21","63d53c6bc368b9fa8d33f4cf","bdp_trlrn","Tue Mar 14 2023 21:07:49 GMT-0400 (Eastern Daylight Time)","395794","Untrustworthy,Trustworthy","","1635","","","","rating","","trustrating_stim/white_mw089.bmp","1","","","","","","","","","","",""
"image-keyboard-response","48","54766","0.0-6.0-2.21","63d53c6bc368b9fa8d33f4cf","bdp_trlrn","Tue Mar 14 2023 21:07:49 GMT-0400 (Eastern Daylight Time)","395794","Untrustworthy,Trustworthy","","null","","","","ratingFB","","trustrating_stim/white_mw089.bmp","null","","","","","","","","","","",""
"image-keyboard-response","49","55800","0.0-6.0-1.22","63d53c6bc368b9fa8d33f4cf","bdp_trlrn","Tue Mar 14 2023 21:07:49 GMT-0400 (Eastern Daylight Time)","395794","Untrustworthy,Trustworthy","","932","","","","rating","","trustrating_stim/white_00807_941205_fb_edt.bmp","1","","","","","","","","","","",""
"image-keyboard-response","50","56001","0.0-6.0-2.22","63d53c6bc368b9fa8d33f4cf","bdp_trlrn","Tue Mar 14 2023 21:07:49 GMT-0400 (Eastern Daylight Time)","395794","Untrustworthy,Trustworthy","","null","","","","ratingFB","","trustrating_stim/white_00807_941205_fb_edt.bmp","null","","","","","","","","","","",""
"image-keyboard-response","51","56767","0.0-6.0-1.23","63d53c6bc368b9fa8d33f4cf","bdp_trlrn","Tue Mar 14 2023 21:07:49 GMT-0400 (Eastern Daylight Time)","395794","Untrustworthy,Trustworthy","","663","","","","rating","","trustrating_stim/white_00785_941205_fb_edt.bmp","1","","","","","","","","","","",""
"image-keyboard-response","52","56968","0.0-6.0-2.23","63d53c6bc368b9fa8d33f4cf","bdp_trlrn","Tue Mar 14 2023 21:07:49 GMT-0400 (Eastern Daylight Time)","395794","Untrustworthy,Trustworthy","","null","","","","ratingFB","","trustrating_stim/white_00785_941205_fb_edt.bmp","null","","","","","","","","","","",""
"image-keyboard-response","53","57652","0.0-6.0-1.24","63d53c6bc368b9fa8d33f4cf","bdp_trlrn","Tue Mar 14 2023 21:07:49 GMT-0400 (Eastern Daylight Time)","395794","Untrustworthy,Trustworthy","","581","","","","rating","","trustrating_stim/white_00757_941201_fa_edt.bmp","1","","","","","","","","","","",""
"image-keyboard-response","54","57858","0.0-6.0-2.24","63d53c6bc368b9fa8d33f4cf","bdp_trlrn","Tue Mar 14 2023 21:07:49 GMT-0400 (Eastern Daylight Time)","395794","Untrustworthy,Trustworthy","","null","","","","ratingFB","","trustrating_stim/white_00757_941201_fa_edt.bmp","null","","","","","","","","","","",""
"image-keyboard-response","55","58543","0.0-6.0-1.25","63d53c6bc368b9fa8d33f4cf","bdp_trlrn","Tue Mar 14 2023 21:07:49 GMT-0400 (Eastern Daylight Time)","395794","Untrustworthy,Trustworthy","","583","","","","rating","","trustrating_stim/white_mw056.bmp","1","","","","","","","","","","",""
"image-keyboard-response","56","58744","0.0-6.0-2.25","63d53c6bc368b9fa8d33f4cf","bdp_trlrn","Tue Mar 14 2023 21:07:49 GMT-0400 (Eastern Daylight Time)","395794","Untrustworthy,Trustworthy","","null","","","","ratingFB","","trustrating_stim/white_mw056.bmp","null","","","","","","","","","","",""
"image-keyboard-response","57","60579","0.0-6.0-1.26","63d53c6bc368b9fa8d33f4cf","bdp_trlrn","Tue Mar 14 2023 21:07:49 GMT-0400 (Eastern Daylight Time)","395794","Untrustworthy,Trustworthy","","1732","","","","rating","","trustrating_stim/white_mw049.bmp","1","","","","","","","","","","",""
"image-keyboard-response","58","60780","0.0-6.0-2.26","63d53c6bc368b9fa8d33f4cf","bdp_trlrn","Tue Mar 14 2023 21:07:49 GMT-0400 (Eastern Daylight Time)","395794","Untrustworthy,Trustworthy","","null","","","","ratingFB","","trustrating_stim/white_mw049.bmp","null","","","","","","","","","","",""
"image-keyboard-response","59","61620","0.0-6.0-1.27","63d53c6bc368b9fa8d33f4cf","bdp_trlrn","Tue Mar 14 2023 21:07:49 GMT-0400 (Eastern Daylight Time)","395794","Untrustworthy,Trustworthy","","724","","","","rating","","trustrating_stim/white_mw063.bmp","1","","","","","","","","","","",""
"image-keyboard-response","60","61822","0.0-6.0-2.27","63d53c6bc368b9fa8d33f4cf","bdp_trlrn","Tue Mar 14 2023 21:07:49 GMT-0400 (Eastern Daylight Time)","395794","Untrustworthy,Trustworthy","","null","","","","ratingFB","","trustrating_stim/white_mw063.bmp","null","","","","","","","","","","",""
"image-keyboard-response","61","63155","0.0-6.0-1.28","63d53c6bc368b9fa8d33f4cf","bdp_trlrn","Tue Mar 14 2023 21:07:49 GMT-0400 (Eastern Daylight Time)","395794","Untrustworthy,Trustworthy","","1230","","","","rating","","trustrating_stim/white_00299_940422_fa_edt.bmp","7","","","","","","","","","","",""
"image-keyboard-response","62","63357","0.0-6.0-2.28","63d53c6bc368b9fa8d33f4cf","bdp_trlrn","Tue Mar 14 2023 21:07:49 GMT-0400 (Eastern Daylight Time)","395794","Untrustworthy,Trustworthy","","null","","","","ratingFB","","trustrating_stim/white_00299_940422_fa_edt.bmp","null","","","","","","","","","","",""
"image-keyboard-response","63","64530","0.0-6.0-1.29","63d53c6bc368b9fa8d33f4cf","bdp_trlrn","Tue Mar 14 2023 21:07:49 GMT-0400 (Eastern Daylight Time)","395794","Untrustworthy,Trustworthy","","1070","","","","rating","","trustrating_stim/white_00519_940519_fb_edt.bmp","1","","","","","","","","","","",""
"image-keyboard-response","64","64732","0.0-6.0-2.29","63d53c6bc368b9fa8d33f4cf","bdp_trlrn","Tue Mar 14 2023 21:07:49 GMT-0400 (Eastern Daylight Time)","395794","Untrustworthy,Trustworthy","","null","","","","ratingFB","","trustrating_stim/white_00519_940519_fb_edt.bmp","null","","","","","","","","","","",""
"image-keyboard-response","65","65880","0.0-6.0-1.30","63d53c6bc368b9fa8d33f4cf","bdp_trlrn","Tue Mar 14 2023 21:07:49 GMT-0400 (Eastern Daylight Time)","395794","Untrustworthy,Trustworthy","","1046","","","","rating","","trustrating_stim/white_00129_931230_fb_edt.bmp","6","","","","","","","","","","",""
"image-keyboard-response","66","66082","0.0-6.0-2.30","63d53c6bc368b9fa8d33f4cf","bdp_trlrn","Tue Mar 14 2023 21:07:49 GMT-0400 (Eastern Daylight Time)","395794","Untrustworthy,Trustworthy","","null","","","","ratingFB","","trustrating_stim/white_00129_931230_fb_edt.bmp","null","","","","","","","","","","",""
"image-keyboard-response","67","67577","0.0-6.0-1.31","63d53c6bc368b9fa8d33f4cf","bdp_trlrn","Tue Mar 14 2023 21:07:49 GMT-0400 (Eastern Daylight Time)","395794","Untrustworthy,Trustworthy","","1393","","","","rating","","trustrating_stim/white_mw066.bmp","3","","","","","","","","","","",""
"image-keyboard-response","68","67778","0.0-6.0-2.31","63d53c6bc368b9fa8d33f4cf","bdp_trlrn","Tue Mar 14 2023 21:07:49 GMT-0400 (Eastern Daylight Time)","395794","Untrustworthy,Trustworthy","","null","","","","ratingFB","","trustrating_stim/white_mw066.bmp","null","","","","","","","","","","",""
"image-keyboard-response","69","68630","0.0-6.0-1.32","63d53c6bc368b9fa8d33f4cf","bdp_trlrn","Tue Mar 14 2023 21:07:49 GMT-0400 (Eastern Daylight Time)","395794","Untrustworthy,Trustworthy","","750","","","","rating","","trustrating_stim/white_00785_941205_fb_edt.bmp","1","","","","","","","","","","",""
"image-keyboard-response","70","68832","0.0-6.0-2.32","63d53c6bc368b9fa8d33f4cf","bdp_trlrn","Tue Mar 14 2023 21:07:49 GMT-0400 (Eastern Daylight Time)","395794","Untrustworthy,Trustworthy","","null","","","","ratingFB","","trustrating_stim/white_00785_941205_fb_edt.bmp","null","","","","","","","","","","",""
"image-keyboard-response","71","69579","0.0-6.0-1.33","63d53c6bc368b9fa8d33f4cf","bdp_trlrn","Tue Mar 14 2023 21:07:49 GMT-0400 (Eastern Daylight Time)","395794","Untrustworthy,Trustworthy","","644","","","","rating","","trustrating_stim/white_mw089.bmp","1","","","","","","","","","","",""
"image-keyboard-response","72","69782","0.0-6.0-2.33","63d53c6bc368b9fa8d33f4cf","bdp_trlrn","Tue Mar 14 2023 21:07:49 GMT-0400 (Eastern Daylight Time)","395794","Untrustworthy,Trustworthy","","null","","","","ratingFB","","trustrating_stim/white_mw089.bmp","null","","","","","","","","","","",""
"image-keyboard-response","73","70648","0.0-6.0-1.34","63d53c6bc368b9fa8d33f4cf","bdp_trlrn","Tue Mar 14 2023 21:07:49 GMT-0400 (Eastern Daylight Time)","395794","Untrustworthy,Trustworthy","","765","","","","rating","","trustrating_stim/white_00519_940519_fb_edt.bmp","1","","","","","","","","","","",""
"image-keyboard-response","74","70850","0.0-6.0-2.34","63d53c6bc368b9fa8d33f4cf","bdp_trlrn","Tue Mar 14 2023 21:07:49 GMT-0400 (Eastern Daylight Time)","395794","Untrustworthy,Trustworthy","","null","","","","ratingFB","","trustrating_stim/white_00519_940519_fb_edt.bmp","null","","","","","","","","","","",""
"image-keyboard-response","75","71466","0.0-6.0-1.35","63d53c6bc368b9fa8d33f4cf","bdp_trlrn","Tue Mar 14 2023 21:07:49 GMT-0400 (Eastern Daylight Time)","395794","Untrustworthy,Trustworthy","","514","","","","rating","","trustrating_stim/white_mw060.bmp","1","","","","","","","","","","",""
"image-keyboard-response","76","71667","0.0-6.0-2.35","63d53c6bc368b9fa8d33f4cf","bdp_trlrn","Tue Mar 14 2023 21:07:49 GMT-0400 (Eastern Daylight Time)","395794","Untrustworthy,Trustworthy","","null","","","","ratingFB","","trustrating_stim/white_mw060.bmp","null","","","","","","","","","","",""
"image-keyboard-response","77","72527","0.0-6.0-1.36","63d53c6bc368b9fa8d33f4cf","bdp_trlrn","Tue Mar 14 2023 21:07:49 GMT-0400 (Eastern Daylight Time)","395794","Untrustworthy,Trustworthy","","757","","","","rating","","trustrating_stim/white_mw063.bmp","1","","","","","","","","","","",""
"image-keyboard-response","78","72729","0.0-6.0-2.36","63d53c6bc368b9fa8d33f4cf","bdp_trlrn","Tue Mar 14 2023 21:07:49 GMT-0400 (Eastern Daylight Time)","395794","Untrustworthy,Trustworthy","","null","","","","ratingFB","","trustrating_stim/white_mw063.bmp","null","","","","","","","","","","",""
"image-keyboard-response","79","73482","0.0-6.0-1.37","63d53c6bc368b9fa8d33f4cf","bdp_trlrn","Tue Mar 14 2023 21:07:49 GMT-0400 (Eastern Daylight Time)","395794","Untrustworthy,Trustworthy","","651","","","","rating","","trustrating_stim/white_mw048.bmp","1","","","","","","","","","","",""
"image-keyboard-response","80","73684","0.0-6.0-2.37","63d53c6bc368b9fa8d33f4cf","bdp_trlrn","Tue Mar 14 2023 21:07:49 GMT-0400 (Eastern Daylight Time)","395794","Untrustworthy,Trustworthy","","null","","","","ratingFB","","trustrating_stim/white_mw048.bmp","null","","","","","","","","","","",""
"image-keyboard-response","81","74502","0.0-6.0-1.38","63d53c6bc368b9fa8d33f4cf","bdp_trlrn","Tue Mar 14 2023 21:07:49 GMT-0400 (Eastern Daylight Time)","395794","Untrustworthy,Trustworthy","","715","","","","rating","","trustrating_stim/white_00577_940928_fa_edt.bmp","1","","","","","","","","","","",""
"image-keyboard-response","82","74703","0.0-6.0-2.38","63d53c6bc368b9fa8d33f4cf","bdp_trlrn","Tue Mar 14 2023 21:07:49 GMT-0400 (Eastern Daylight Time)","395794","Untrustworthy,Trustworthy","","null","","","","ratingFB","","trustrating_stim/white_00577_940928_fa_edt.bmp","null","","","","","","","","","","",""
"image-keyboard-response","83","75372","0.0-6.0-1.39","63d53c6bc368b9fa8d33f4cf","bdp_trlrn","Tue Mar 14 2023 21:07:49 GMT-0400 (Eastern Daylight Time)","395794","Untrustworthy,Trustworthy","","556","","","","rating","","trustrating_stim/white_mw056.bmp","1","","","","","","","","","","",""
"image-keyboard-response","84","75573","0.0-6.0-2.39","63d53c6bc368b9fa8d33f4cf","bdp_trlrn","Tue Mar 14 2023 21:07:49 GMT-0400 (Eastern Daylight Time)","395794","Untrustworthy,Trustworthy","","null","","","","ratingFB","","trustrating_stim/white_mw056.bmp","null","","","","","","","","","","",""
"image-keyboard-response","85","76212","0.0-6.0-1.40","63d53c6bc368b9fa8d33f4cf","bdp_trlrn","Tue Mar 14 2023 21:07:49 GMT-0400 (Eastern Daylight Time)","395794","Untrustworthy,Trustworthy","","537","","","","rating","","trustrating_stim/white_mw033.bmp","1","","","","","","","","","","",""
"image-keyboard-response","86","76413","0.0-6.0-2.40","63d53c6bc368b9fa8d33f4cf","bdp_trlrn","Tue Mar 14 2023 21:07:49 GMT-0400 (Eastern Daylight Time)","395794","Untrustworthy,Trustworthy","","null","","","","ratingFB","","trustrating_stim/white_mw033.bmp","null","","","","","","","","","","",""
"image-keyboard-response","87","77039","0.0-6.0-1.41","63d53c6bc368b9fa8d33f4cf","bdp_trlrn","Tue Mar 14 2023 21:07:49 GMT-0400 (Eastern Daylight Time)","395794","Untrustworthy,Trustworthy","","524","","","","rating","","trustrating_stim/white_mw053.bmp","1","","","","","","","","","","",""
"image-keyboard-response","88","77242","0.0-6.0-2.41","63d53c6bc368b9fa8d33f4cf","bdp_trlrn","Tue Mar 14 2023 21:07:49 GMT-0400 (Eastern Daylight Time)","395794","Untrustworthy,Trustworthy","","null","","","","ratingFB","","trustrating_stim/white_mw053.bmp","null","","","","","","","","","","",""
"image-keyboard-response","89","77984","0.0-6.0-1.42","63d53c6bc368b9fa8d33f4cf","bdp_trlrn","Tue Mar 14 2023 21:07:49 GMT-0400 (Eastern Daylight Time)","395794","Untrustworthy,Trustworthy","","639","","","","rating","","trustrating_stim/white_mw071.bmp","1","","","","","","","","","","",""
"image-keyboard-response","90","78186","0.0-6.0-2.42","63d53c6bc368b9fa8d33f4cf","bdp_trlrn","Tue Mar 14 2023 21:07:49 GMT-0400 (Eastern Daylight Time)","395794","Untrustworthy,Trustworthy","","null","","","","ratingFB","","trustrating_stim/white_mw071.bmp","null","","","","","","","","","","",""
"image-keyboard-response","91","78937","0.0-6.0-1.43","63d53c6bc368b9fa8d33f4cf","bdp_trlrn","Tue Mar 14 2023 21:07:49 GMT-0400 (Eastern Daylight Time)","395794","Untrustworthy,Trustworthy","","649","","","","rating","","trustrating_stim/white_mw046.bmp","1","","","","","","","","","","",""
"image-keyboard-response","92","79139","0.0-6.0-2.43","63d53c6bc368b9fa8d33f4cf","bdp_trlrn","Tue Mar 14 2023 21:07:49 GMT-0400 (Eastern Daylight Time)","395794","Untrustworthy,Trustworthy","","null","","","","ratingFB","","trustrating_stim/white_mw046.bmp","null","","","","","","","","","","",""
"image-keyboard-response","93","79888","0.0-6.0-1.44","63d53c6bc368b9fa8d33f4cf","bdp_trlrn","Tue Mar 14 2023 21:07:49 GMT-0400 (Eastern Daylight Time)","395794","Untrustworthy,Trustworthy","","648","","","","rating","","trustrating_stim/white_00340_940422_fa_edt.bmp","1","","","","","","","","","","",""
"image-keyboard-response","94","80090","0.0-6.0-2.44","63d53c6bc368b9fa8d33f4cf","bdp_trlrn","Tue Mar 14 2023 21:07:49 GMT-0400 (Eastern Daylight Time)","395794","Untrustworthy,Trustworthy","","null","","","","ratingFB","","trustrating_stim/white_00340_940422_fa_edt.bmp","null","","","","","","","","","","",""
"image-keyboard-response","95","80846","0.0-6.0-1.45","63d53c6bc368b9fa8d33f4cf","bdp_trlrn","Tue Mar 14 2023 21:07:49 GMT-0400 (Eastern Daylight Time)","395794","Untrustworthy,Trustworthy","","653","","","","rating","","trustrating_stim/white_mw097.bmp","1","","","","","","","","","","",""
"image-keyboard-response","96","81049","0.0-6.0-2.45","63d53c6bc368b9fa8d33f4cf","bdp_trlrn","Tue Mar 14 2023 21:07:49 GMT-0400 (Eastern Daylight Time)","395794","Untrustworthy,Trustworthy","","null","","","","ratingFB","","trustrating_stim/white_mw097.bmp","null","","","","","","","","","","",""
"image-keyboard-response","97","81781","0.0-6.0-1.46","63d53c6bc368b9fa8d33f4cf","bdp_trlrn","Tue Mar 14 2023 21:07:49 GMT-0400 (Eastern Daylight Time)","395794","Untrustworthy,Trustworthy","","631","","","","rating","","trustrating_stim/white_00757_941201_fa_edt.bmp","1","","","","","","","","","","",""
"image-keyboard-response","98","81982","0.0-6.0-2.46","63d53c6bc368b9fa8d33f4cf","bdp_trlrn","Tue Mar 14 2023 21:07:49 GMT-0400 (Eastern Daylight Time)","395794","Untrustworthy,Trustworthy","","null","","","","ratingFB","","trustrating_stim/white_00757_941201_fa_edt.bmp","null","","","","","","","","","","",""
"image-keyboard-response","99","82608","0.0-6.0-1.47","63d53c6bc368b9fa8d33f4cf","bdp_trlrn","Tue Mar 14 2023 21:07:49 GMT-0400 (Eastern Daylight Time)","395794","Untrustworthy,Trustworthy","","523","","","","rating","","trustrating_stim/white_00761_941201_fb_edt.bmp","1","","","","","","","","","","",""
"image-keyboard-response","100","82810","0.0-6.0-2.47","63d53c6bc368b9fa8d33f4cf","bdp_trlrn","Tue Mar 14 2023 21:07:49 GMT-0400 (Eastern Daylight Time)","395794","Untrustworthy,Trustworthy","","null","","","","ratingFB","","trustrating_stim/white_00761_941201_fb_edt.bmp","null","","","","","","","","","","",""
"image-keyboard-response","101","83528","0.0-6.0-1.48","63d53c6bc368b9fa8d33f4cf","bdp_trlrn","Tue Mar 14 2023 21:07:49 GMT-0400 (Eastern Daylight Time)","395794","Untrustworthy,Trustworthy","","616","","","","rating","","trustrating_stim/white_mw099.bmp","1","","","","","","","","","","",""
"image-keyboard-response","102","83729","0.0-6.0-2.48","63d53c6bc368b9fa8d33f4cf","bdp_trlrn","Tue Mar 14 2023 21:07:49 GMT-0400 (Eastern Daylight Time)","395794","Untrustworthy,Trustworthy","","null","","","","ratingFB","","trustrating_stim/white_mw099.bmp","null","","","","","","","","","","",""
"image-keyboard-response","103","85796","0.0-6.0-1.49","63d53c6bc368b9fa8d33f4cf","bdp_trlrn","Tue Mar 14 2023 21:07:49 GMT-0400 (Eastern Daylight Time)","395794","Untrustworthy,Trustworthy","","1965","","","","rating","","trustrating_stim/white_00299_940422_fa_edt.bmp","7","","","","","","","","","","",""
"image-keyboard-response","104","85999","0.0-6.0-2.49","63d53c6bc368b9fa8d33f4cf","bdp_trlrn","Tue Mar 14 2023 21:07:49 GMT-0400 (Eastern Daylight Time)","395794","Untrustworthy,Trustworthy","","null","","","","ratingFB","","trustrating_stim/white_00299_940422_fa_edt.bmp","null","","","","","","","","","","",""
"image-keyboard-response","105","87002","0.0-6.0-1.50","63d53c6bc368b9fa8d33f4cf","bdp_trlrn","Tue Mar 14 2023 21:07:49 GMT-0400 (Eastern Daylight Time)","395794","Untrustworthy,Trustworthy","","901","","","","rating","","trustrating_stim/white_mw035.bmp","1","","","","","","","","","","",""
"image-keyboard-response","106","87203","0.0-6.0-2.50","63d53c6bc368b9fa8d33f4cf","bdp_trlrn","Tue Mar 14 2023 21:07:49 GMT-0400 (Eastern Daylight Time)","395794","Untrustworthy,Trustworthy","","null","","","","ratingFB","","trustrating_stim/white_mw035.bmp","null","","","","","","","","","","",""
"image-keyboard-response","107","88156","0.0-6.0-1.51","63d53c6bc368b9fa8d33f4cf","bdp_trlrn","Tue Mar 14 2023 21:07:49 GMT-0400 (Eastern Daylight Time)","395794","Untrustworthy,Trustworthy","","850","","","","rating","","trustrating_stim/white_00109_931230_fa_edt.bmp","7","","","","","","","","","","",""
"image-keyboard-response","108","88357","0.0-6.0-2.51","63d53c6bc368b9fa8d33f4cf","bdp_trlrn","Tue Mar 14 2023 21:07:49 GMT-0400 (Eastern Daylight Time)","395794","Untrustworthy,Trustworthy","","null","","","","ratingFB","","trustrating_stim/white_00109_931230_fa_edt.bmp","null","","","","","","","","","","",""
"image-keyboard-response","109","89399","0.0-6.0-1.52","63d53c6bc368b9fa8d33f4cf","bdp_trlrn","Tue Mar 14 2023 21:07:49 GMT-0400 (Eastern Daylight Time)","395794","Untrustworthy,Trustworthy","","940","","","","rating","","trustrating_stim/white_00898_960530_fa_edt.bmp","8","","","","","","","","","","",""
"image-keyboard-response","110","89600","0.0-6.0-2.52","63d53c6bc368b9fa8d33f4cf","bdp_trlrn","Tue Mar 14 2023 21:07:49 GMT-0400 (Eastern Daylight Time)","395794","Untrustworthy,Trustworthy","","null","","","","ratingFB","","trustrating_stim/white_00898_960530_fa_edt.bmp","null","","","","","","","","","","",""
"image-keyboard-response","111","90274","0.0-6.0-1.53","63d53c6bc368b9fa8d33f4cf","bdp_trlrn","Tue Mar 14 2023 21:07:49 GMT-0400 (Eastern Daylight Time)","395794","Untrustworthy,Trustworthy","","572","","","","rating","","trustrating_stim/white_00659_941121_fa_edt.bmp","1","","","","","","","","","","",""
"image-keyboard-response","112","90476","0.0-6.0-2.53","63d53c6bc368b9fa8d33f4cf","bdp_trlrn","Tue Mar 14 2023 21:07:49 GMT-0400 (Eastern Daylight Time)","395794","Untrustworthy,Trustworthy","","null","","","","ratingFB","","trustrating_stim/white_00659_941121_fa_edt.bmp","null","","","","","","","","","","",""
"image-keyboard-response","113","91796","0.0-6.0-1.54","63d53c6bc368b9fa8d33f4cf","bdp_trlrn","Tue Mar 14 2023 21:07:49 GMT-0400 (Eastern Daylight Time)","395794","Untrustworthy,Trustworthy","","1218","","","","rating","","trustrating_stim/white_00602_940928_fb_edt.bmp","7","","","","","","","","","","",""
"image-keyboard-response","114","91997","0.0-6.0-2.54","63d53c6bc368b9fa8d33f4cf","bdp_trlrn","Tue Mar 14 2023 21:07:49 GMT-0400 (Eastern Daylight Time)","395794","Untrustworthy,Trustworthy","","null","","","","ratingFB","","trustrating_stim/white_00602_940928_fb_edt.bmp","null","","","","","","","","","","",""
"image-keyboard-response","115","92729","0.0-6.0-1.55","63d53c6bc368b9fa8d33f4cf","bdp_trlrn","Tue Mar 14 2023 21:07:49 GMT-0400 (Eastern Daylight Time)","395794","Untrustworthy,Trustworthy","","629","","","","rating","","trustrating_stim/white_00120_931230_fa_edt.bmp","1","","","","","","","","","","",""
"image-keyboard-response","116","92932","0.0-6.0-2.55","63d53c6bc368b9fa8d33f4cf","bdp_trlrn","Tue Mar 14 2023 21:07:49 GMT-0400 (Eastern Daylight Time)","395794","Untrustworthy,Trustworthy","","null","","","","ratingFB","","trustrating_stim/white_00120_931230_fa_edt.bmp","null","","","","","","","","","","",""
"image-keyboard-response","117","93507","0.0-6.0-1.56","63d53c6bc368b9fa8d33f4cf","bdp_trlrn","Tue Mar 14 2023 21:07:49 GMT-0400 (Eastern Daylight Time)","395794","Untrustworthy,Trustworthy","","473","","","","rating","","trustrating_stim/white_mw049.bmp","1","","","","","","","","","","",""
"image-keyboard-response","118","93709","0.0-6.0-2.56","63d53c6bc368b9fa8d33f4cf","bdp_trlrn","Tue Mar 14 2023 21:07:49 GMT-0400 (Eastern Daylight Time)","395794","Untrustworthy,Trustworthy","","null","","","","ratingFB","","trustrating_stim/white_mw049.bmp","null","","","","","","","","","","",""
"image-keyboard-response","119","94340","0.0-6.0-1.57","63d53c6bc368b9fa8d33f4cf","bdp_trlrn","Tue Mar 14 2023 21:07:49 GMT-0400 (Eastern Daylight Time)","395794","Untrustworthy,Trustworthy","","528","","","","rating","","trustrating_stim/white_00223_940128_fb_edt.bmp","1","","","","","","","","","","",""
"image-keyboard-response","120","94543","0.0-6.0-2.57","63d53c6bc368b9fa8d33f4cf","bdp_trlrn","Tue Mar 14 2023 21:07:49 GMT-0400 (Eastern Daylight Time)","395794","Untrustworthy,Trustworthy","","null","","","","ratingFB","","trustrating_stim/white_00223_940128_fb_edt.bmp","null","","","","","","","","","","",""
"image-keyboard-response","121","95153","0.0-6.0-1.58","63d53c6bc368b9fa8d33f4cf","bdp_trlrn","Tue Mar 14 2023 21:07:49 GMT-0400 (Eastern Daylight Time)","395794","Untrustworthy,Trustworthy","","508","","","","rating","","trustrating_stim/white_mw084.bmp","1","","","","","","","","","","",""
"image-keyboard-response","122","95354","0.0-6.0-2.58","63d53c6bc368b9fa8d33f4cf","bdp_trlrn","Tue Mar 14 2023 21:07:49 GMT-0400 (Eastern Daylight Time)","395794","Untrustworthy,Trustworthy","","null","","","","ratingFB","","trustrating_stim/white_mw084.bmp","null","","","","","","","","","","",""
"image-keyboard-response","123","96177","0.0-6.0-1.59","63d53c6bc368b9fa8d33f4cf","bdp_trlrn","Tue Mar 14 2023 21:07:49 GMT-0400 (Eastern Daylight Time)","395794","Untrustworthy,Trustworthy","","719","","","","rating","","trustrating_stim/white_00807_941205_fb_edt.bmp","1","","","","","","","","","","",""
"image-keyboard-response","124","96378","0.0-6.0-2.59","63d53c6bc368b9fa8d33f4cf","bdp_trlrn","Tue Mar 14 2023 21:07:49 GMT-0400 (Eastern Daylight Time)","395794","Untrustworthy,Trustworthy","","null","","","","ratingFB","","trustrating_stim/white_00807_941205_fb_edt.bmp","null","","","","","","","","","","",""
"instructions","125","97673","0.0-7.0","63d53c6bc368b9fa8d33f4cf","bdp_trlrn","Tue Mar 14 2023 21:07:49 GMT-0400 (Eastern Daylight Time)","395794","Untrustworthy,Trustworthy","[{""page_index"":0,""viewing_time"":1194}]","1194","","","","","","","","","","","","","","","","","",""
"instructions","126","117165","0.0-8.0","63d53c6bc368b9fa8d33f4cf","bdp_trlrn","Tue Mar 14 2023 21:07:49 GMT-0400 (Eastern Daylight Time)","395794","Untrustworthy,Trustworthy","[{""page_index"":0,""viewing_time"":7220},{""page_index"":1,""viewing_time"":1311},{""page_index"":2,""viewing_time"":3065},{""page_index"":3,""viewing_time"":4278},{""page_index"":4,""viewing_time"":1395},{""page_index"":5,""viewing_time"":904},{""page_index"":6,""viewing_time"":669},{""page_index"":7,""viewing_time"":547}]","19389","","","","","","","","","","","","","","","","","",""
"html-keyboard-response","127","119954","0.0-9.0","63d53c6bc368b9fa8d33f4cf","bdp_trlrn","Tue Mar 14 2023 21:07:49 GMT-0400 (Eastern Daylight Time)","395794","Untrustworthy,Trustworthy","","2788","","","","","","<div class='header' style='text-align:left; position: absolute; top: 5%; left: 5%;'><small>Task 3 of 5</small></div><div class='instruxDiv'><p><strong>1) What is the minimum number of points you can choose to send to your partner?</strong></p><p>a) 0</p><p>b) 1</p><p>c) 5</p>","C","","","","","","","","","","",""
"html-keyboard-response","128","121467","0.0-10.0","63d53c6bc368b9fa8d33f4cf","bdp_trlrn","Tue Mar 14 2023 21:07:49 GMT-0400 (Eastern Daylight Time)","395794","Untrustworthy,Trustworthy","","1411","","","","","","<div class='header' style='text-align:left; position: absolute; top: 5%; left: 5%;'><small>Task 3 of 5</small></div><div class='instruxDiv'><p><strong>1) What is the minimum number of points you can choose to send to your partner?</strong></p><p>a) 1</p><p>b) 1</p><p style='color:#FF0000'>c) 5</p><h3 style='color:#FF0000'>Incorrect!</h3><h3 class='center-content'>The correct response is b).</h3><h3 class='center-content'>The minimum number of points you can choose to send to your partner is 1 point.</h3><p><em>Press SPACEBAR to continue</em></p></div>"," ","","","","","","","","","","",""
"html-keyboard-response","129","124147","0.0-11.0","63d53c6bc368b9fa8d33f4cf","bdp_trlrn","Tue Mar 14 2023 21:07:49 GMT-0400 (Eastern Daylight Time)","395794","Untrustworthy,Trustworthy","","2579","","","","","","<div class='header' style='text-align:left; position: absolute; top: 5%; left: 5%;'><small>Task 3 of 5</small></div><div class='instruxDiv'><p><strong>2) What is the maximum number of points you can choose to send to your partner?</strong></p><p>a) 8</p><p>b) 5</p><p>c) 3</p>","B","","","","","","","","","","",""
"html-keyboard-response","130","124756","0.0-12.0","63d53c6bc368b9fa8d33f4cf","bdp_trlrn","Tue Mar 14 2023 21:07:49 GMT-0400 (Eastern Daylight Time)","395794","Untrustworthy,Trustworthy","","506","","","","","","<div class='header' style='text-align:left; position: absolute; top: 5%; left: 5%;'><small>Task 3 of 5</small></div><div class='instruxDiv'><p><strong>2) What is the maximum number of points you can choose to send to your partner?</strong></p><p>a) 8</p><p style='color:#00FF00'>b) 5</p><p>c) 3</p><h3 style='color:#00FF00'>Correct!</h3><h3 class='center-content'>The correct response is b).</h3><h3 class='center-content'>The maximum number of points you can choose to send to your partner is 5 points.</h3><p><em>Press SPACEBAR to continue</em></p></div>"," ","","","","","","","","","","",""
"html-keyboard-response","131","130734","0.0-13.0","63d53c6bc368b9fa8d33f4cf","bdp_trlrn","Tue Mar 14 2023 21:07:49 GMT-0400 (Eastern Daylight Time)","395794","Untrustworthy,Trustworthy","","5877","","","","","","<div class='header' style='text-align:left; position: absolute; top: 5%; left: 5%;'><small>Task 3 of 5</small></div><div class='instruxDiv'><p><strong>3) What happens to the amount of points you send to your partner?</strong></p><p>a) Nothing</p><p>b) It doubles</p><p>c) It quadruples</p>","A","","","","","","","","","","",""
"html-keyboard-response","132","131830","0.0-14.0","63d53c6bc368b9fa8d33f4cf","bdp_trlrn","Tue Mar 14 2023 21:07:49 GMT-0400 (Eastern Daylight Time)","395794","Untrustworthy,Trustworthy","","994","","","","","","<div class='header' style='text-align:left; position: absolute; top: 5%; left: 5%;'><small>Task 3 of 5</small></div><div class='instruxDiv'><p><strong>3) What happens to the amount of points you send to your partner?</strong></p><p style='color:#FF0000'>a) Nothing</p><p>b) It doubles</p><p>c) It quadruples</p><h3 style='color:#FF0000'>Incorrect!</h3><h3 class='center-content'>The correct response is c).</h3><h3 class='center-content'>The amount of points you send to your partner quadruples.</h3><p><em>Press SPACEBAR to continue</em></p></div>"," ","","","","","","","","","","",""
"html-keyboard-response","133","135900","0.0-15.0","63d53c6bc368b9fa8d33f4cf","bdp_trlrn","Tue Mar 14 2023 21:07:49 GMT-0400 (Eastern Daylight Time)","395794","Untrustworthy,Trustworthy","","3967","","","","","","<div class='header' style='text-align:left; position: absolute; top: 5%; left: 5%;'><small>Task 3 of 5</small></div><div class='instruxDiv'><p><strong>4) If you decided to share 4 out of 5 points with your partner, and they decided to share half of the amount they received with you, how many points would you receive back from them on this round?</strong></p><p>a) 16</p><p>b) 0</p><p>c) 8</p>","A","","","","","","","","","","",""
"html-keyboard-response","134","136746","0.0-16.0","63d53c6bc368b9fa8d33f4cf","bdp_trlrn","Tue Mar 14 2023 21:07:49 GMT-0400 (Eastern Daylight Time)","395794","Untrustworthy,Trustworthy","","744","","","","","","<div class='header' style='text-align:left; position: absolute; top: 5%; left: 5%;'><small>Task 3 of 5</small></div><div class='instruxDiv'><p><strong>4) If you decided to share 4 out of 5 points with your partner, and they decided to share half of the amount they received with you, how many points would you receive back from them on this round?</strong></p><p style='color:#FF0000'>a) 16</p><p>b) 0</p><p>c) 8</p><h3 style='color:#FF0000'>Incorrect!</h3><h3 class='center-content'>The correct response is c).</h3><h3 class='center-content'>If you shared 4 out of 5 points with your partner and they decided to share half of the amount they received with you, you would receive 8 points back (i.e. (4 x 4)/2 = 8).</h3><p><em>Press SPACEBAR to continue</em></p></div>"," ","","","","","","","","","","",""
"html-keyboard-response","135","141848","0.0-17.0","63d53c6bc368b9fa8d33f4cf","bdp_trlrn","Tue Mar 14 2023 21:07:49 GMT-0400 (Eastern Daylight Time)","395794","Untrustworthy,Trustworthy","","null","","","","","","<div class='header' style='text-align:left; position: absolute; top: 5%; left: 5%;'><small>Task 3 of 5</small></div><div class='instruxDiv'><p>Thank you for completing the quiz<p>These are the actual partners you will be interacting with in the next block:<p><div class='tc' align='center'><img class='introPic' src='trustrating_stim/white_mw099.bmp'><br><strong>Jordan</strong></div><div class='bl' align='center'><img class='introPic' src='trustrating_stim/white_00757_941201_fa_edt.bmp'><br><strong>Tyler</strong></div><div class='br' align='center'><img class='introPic' src='trustrating_stim/white_00109_931230_fa_edt.bmp'><br><strong>Nathan</strong></div></div><p>Across <strong>66 rounds</strong> you will interact with each partner <strong>22 times</strong> (in random order).<p style='align:center; color:white'><font <em>Press SPACEBAR to continue</em></p>","null","","","","","","","","","","",""
"instructions","136","151876","0.0-18.0","63d53c6bc368b9fa8d33f4cf","bdp_trlrn","Tue Mar 14 2023 21:07:49 GMT-0400 (Eastern Daylight Time)","395794","Untrustworthy,Trustworthy","[{""page_index"":0,""viewing_time"":9216},{""page_index"":1,""viewing_time"":812}]","10028","","","","","","","","","","","","","","","","","",""
"html-keyboard-response","137","153292","0.0-19.0-1.0","63d53c6bc368b9fa8d33f4cf","bdp_trlrn","Tue Mar 14 2023 21:07:49 GMT-0400 (Eastern Daylight Time)","395794","Untrustworthy,Trustworthy","","1313","","","","decision","","<div class='trialDiv'><img src='trustrating_stim/white_mw099.bmp'><br><font class='baseline'><strong>Jordan</strong><p>Choose number of points to send.</font><div class='respPicDiv'><img src='img/responseButtonOffersNo0L.png' class='respPic'></div></div>","1","1","Jordan","0","Shared","0.65,0.2","10","0.65","trustrating_stim/white_mw099.bmp","1","5","1"
"html-keyboard-response","138","153544","0.0-19.0-2.0","63d53c6bc368b9fa8d33f4cf","bdp_trlrn","Tue Mar 14 2023 21:07:49 GMT-0400 (Eastern Daylight Time)","395794","Untrustworthy,Trustworthy","","null","","","","decisionFB","","<div class='trialDiv'><img src='trustrating_stim/white_mw099.bmp'><br><font class='baseline'><strong>Jordan</strong><p>Choose number of points to send.</font><div class='respPicDiv'><img src='img/responseButtonOffersNo0L1.png' class='respPic'></div></div>","null","1","Jordan","0","Shared","0.65,0.2","10","0.65","trustrating_stim/white_mw099.bmp","1","4","1"
"html-keyboard-response","139","154546","0.0-19.0-3.0","63d53c6bc368b9fa8d33f4cf","bdp_trlrn","Tue Mar 14 2023 21:07:49 GMT-0400 (Eastern Daylight Time)","395794","Untrustworthy,Trustworthy","","null","","","","feedback","","<div class='trialDiv'><img src='trustrating_stim/white_mw099.bmp'><br><font class='baseline'><strong>Jordan</strong><p>Received: <strong>4</strong></font> &nbsp; &nbsp; &nbsp; &nbsp; &nbsp; &nbsp;<font class='posOutcome'>Shared back: <strong>2</strong></font></font><div class='respPicDiv'><img src='img/responseButtonOffersNo0_wht.png' class='respPic'></div></div>","null","1","Jordan","0","Shared","0.65,0.2","10","0.65","trustrating_stim/white_mw099.bmp","1","6","1"
"html-keyboard-response","140","157419","0.0-19.0-1.1","63d53c6bc368b9fa8d33f4cf","bdp_trlrn","Tue Mar 14 2023 21:07:49 GMT-0400 (Eastern Daylight Time)","395794","Untrustworthy,Trustworthy","","2872","","","","decision","","<div class='trialDiv'><img src='trustrating_stim/white_00757_941201_fa_edt.bmp'><br><font class='baseline'><strong>Tyler</strong><p>Choose number of points to send.</font><div class='respPicDiv'><img src='img/responseButtonOffersNo0L.png' class='respPic'></div></div>","2","1","Tyler","4","Kept","0.2,0.8","9","0.2","trustrating_stim/white_00757_941201_fa_edt.bmp","1","11","2"
"html-keyboard-response","141","157670","0.0-19.0-2.1","63d53c6bc368b9fa8d33f4cf","bdp_trlrn","Tue Mar 14 2023 21:07:49 GMT-0400 (Eastern Daylight Time)","395794","Untrustworthy,Trustworthy","","null","","","","decisionFB","","<div class='trialDiv'><img src='trustrating_stim/white_00757_941201_fa_edt.bmp'><br><font class='baseline'><strong>Tyler</strong><p>Choose number of points to send.</font><div class='respPicDiv'><img src='img/responseButtonOffersNo0L2.png' class='respPic'></div></div>","null","1","Tyler","4","Kept","0.2,0.8","9","0.2","trustrating_stim/white_00757_941201_fa_edt.bmp","1","9","2"
"html-keyboard-response","142","158672","0.0-19.0-3.1","63d53c6bc368b9fa8d33f4cf","bdp_trlrn","Tue Mar 14 2023 21:07:49 GMT-0400 (Eastern Daylight Time)","395794","Untrustworthy,Trustworthy","","null","","","","feedback","","<div class='trialDiv'><img src='trustrating_stim/white_00757_941201_fa_edt.bmp'><br><font class='baseline'><strong>Tyler</strong><p>Received: <strong>8</strong></font> &nbsp; &nbsp; &nbsp; &nbsp; &nbsp; &nbsp;<font class='negOutcome'>Shared back: <strong>0</strong></font></font><div class='respPicDiv'><img src='img/responseButtonOffersNo0_wht.png' class='respPic'></div></div>","null","1","Tyler","4","Kept","0.2,0.8","9","0.2","trustrating_stim/white_00757_941201_fa_edt.bmp","1","9","2"
"html-keyboard-response","143","160936","0.0-19.0-1.2","63d53c6bc368b9fa8d33f4cf","bdp_trlrn","Tue Mar 14 2023 21:07:49 GMT-0400 (Eastern Daylight Time)","395794","Untrustworthy,Trustworthy","","2263","","","","decision","","<div class='trialDiv'><img src='trustrating_stim/white_00109_931230_fa_edt.bmp'><br><font class='baseline'><strong>Nathan</strong><p>Choose number of points to send.</font><div class='respPicDiv'><img src='img/responseButtonOffersNo0L.png' class='respPic'></div></div>","5","1","Nathan","9","Shared","0.35,0.8","12","0.35","trustrating_stim/white_00109_931230_fa_edt.bmp","7","14","3"
"html-keyboard-response","144","161187","0.0-19.0-2.2","63d53c6bc368b9fa8d33f4cf","bdp_trlrn","Tue Mar 14 2023 21:07:49 GMT-0400 (Eastern Daylight Time)","395794","Untrustworthy,Trustworthy","","null","","","","decisionFB","","<div class='trialDiv'><img src='trustrating_stim/white_00109_931230_fa_edt.bmp'><br><font class='baseline'><strong>Nathan</strong><p>Choose number of points to send.</font><div class='respPicDiv'><img src='img/responseButtonOffersNo0L5.png' class='respPic'></div></div>","null","1","Nathan","9","Shared","0.35,0.8","12","0.35","trustrating_stim/white_00109_931230_fa_edt.bmp","7","9","3"
"html-keyboard-response","145","162189","0.0-19.0-3.2","63d53c6bc368b9fa8d33f4cf","bdp_trlrn","Tue Mar 14 2023 21:07:49 GMT-0400 (Eastern Daylight Time)","395794","Untrustworthy,Trustworthy","","null","","","","feedback","","<div class='trialDiv'><img src='trustrating_stim/white_00109_931230_fa_edt.bmp'><br><font class='baseline'><strong>Nathan</strong><p>Received: <strong>20</strong></font> &nbsp; &nbsp; &nbsp; &nbsp; &nbsp; &nbsp;<font class='posOutcome'>Shared back: <strong>10</strong></font></font><div class='respPicDiv'><img src='img/responseButtonOffersNo0_wht.png' class='respPic'></div></div>","null","1","Nathan","9","Shared","0.35,0.8","12","0.35","trustrating_stim/white_00109_931230_fa_edt.bmp","7","19","3"
"html-keyboard-response","146","166747","0.0-19.0-1.3","63d53c6bc368b9fa8d33f4cf","bdp_trlrn","Tue Mar 14 2023 21:07:49 GMT-0400 (Eastern Daylight Time)","395794","Untrustworthy,Trustworthy","","4557","","","","decision","","<div class='trialDiv'><img src='trustrating_stim/white_mw099.bmp'><br><font class='baseline'><strong>Jordan</strong><p>Choose number of points to send.</font><div class='respPicDiv'><img src='img/responseButtonOffersNo0L.png' class='respPic'></div></div>","2","2","Jordan","0","Shared","0.65,0.2","10","0.65","trustrating_stim/white_mw099.bmp","1","24","4"
"html-keyboard-response","147","167001","0.0-19.0-2.3","63d53c6bc368b9fa8d33f4cf","bdp_trlrn","Tue Mar 14 2023 21:07:49 GMT-0400 (Eastern Daylight Time)","395794","Untrustworthy,Trustworthy","","null","","","","decisionFB","","<div class='trialDiv'><img src='trustrating_stim/white_mw099.bmp'><br><font class='baseline'><strong>Jordan</strong><p>Choose number of points to send.</font><div class='respPicDiv'><img src='img/responseButtonOffersNo0L2.png' class='respPic'></div></div>","null","2","Jordan","0","Shared","0.65,0.2","10","0.65","trustrating_stim/white_mw099.bmp","1","22","4"
"html-keyboard-response","148","168003","0.0-19.0-3.3","63d53c6bc368b9fa8d33f4cf","bdp_trlrn","Tue Mar 14 2023 21:07:49 GMT-0400 (Eastern Daylight Time)","395794","Untrustworthy,Trustworthy","","null","","","","feedback","","<div class='trialDiv'><img src='trustrating_stim/white_mw099.bmp'><br><font class='baseline'><strong>Jordan</strong><p>Received: <strong>8</strong></font> &nbsp; &nbsp; &nbsp; &nbsp; &nbsp; &nbsp;<font class='posOutcome'>Shared back: <strong>4</strong></font></font><div class='respPicDiv'><img src='img/responseButtonOffersNo0_wht.png' class='respPic'></div></div>","null","2","Jordan","0","Shared","0.65,0.2","10","0.65","trustrating_stim/white_mw099.bmp","1","26","4"
"html-keyboard-response","149","169080","0.0-19.0-1.4","63d53c6bc368b9fa8d33f4cf","bdp_trlrn","Tue Mar 14 2023 21:07:49 GMT-0400 (Eastern Daylight Time)","395794","Untrustworthy,Trustworthy","","1076","","","","decision","","<div class='trialDiv'><img src='trustrating_stim/white_00109_931230_fa_edt.bmp'><br><font class='baseline'><strong>Nathan</strong><p>Choose number of points to send.</font><div class='respPicDiv'><img src='img/responseButtonOffersNo0L.png' class='respPic'></div></div>","4","2","Nathan","9","Kept","0.35,0.8","12","0.35","trustrating_stim/white_00109_931230_fa_edt.bmp","7","31","5"
"html-keyboard-response","150","169331","0.0-19.0-2.4","63d53c6bc368b9fa8d33f4cf","bdp_trlrn","Tue Mar 14 2023 21:07:49 GMT-0400 (Eastern Daylight Time)","395794","Untrustworthy,Trustworthy","","null","","","","decisionFB","","<div class='trialDiv'><img src='trustrating_stim/white_00109_931230_fa_edt.bmp'><br><font class='baseline'><strong>Nathan</strong><p>Choose number of points to send.</font><div class='respPicDiv'><img src='img/responseButtonOffersNo0L4.png' class='respPic'></div></div>","null","2","Nathan","9","Kept","0.35,0.8","12","0.35","trustrating_stim/white_00109_931230_fa_edt.bmp","7","27","5"
"html-keyboard-response","151","170333","0.0-19.0-3.4","63d53c6bc368b9fa8d33f4cf","bdp_trlrn","Tue Mar 14 2023 21:07:49 GMT-0400 (Eastern Daylight Time)","395794","Untrustworthy,Trustworthy","","null","","","","feedback","","<div class='trialDiv'><img src='trustrating_stim/white_00109_931230_fa_edt.bmp'><br><font class='baseline'><strong>Nathan</strong><p>Received: <strong>16</strong></font> &nbsp; &nbsp; &nbsp; &nbsp; &nbsp; &nbsp;<font class='negOutcome'>Shared back: <strong>0</strong></font></font><div class='respPicDiv'><img src='img/responseButtonOffersNo0_wht.png' class='respPic'></div></div>","null","2","Nathan","9","Kept","0.35,0.8","12","0.35","trustrating_stim/white_00109_931230_fa_edt.bmp","7","27","5"
"html-keyboard-response","152","170966","0.0-19.0-1.5","63d53c6bc368b9fa8d33f4cf","bdp_trlrn","Tue Mar 14 2023 21:07:49 GMT-0400 (Eastern Daylight Time)","395794","Untrustworthy,Trustworthy","","633","","","","decision","","<div class='trialDiv'><img src='trustrating_stim/white_00757_941201_fa_edt.bmp'><br><font class='baseline'><strong>Tyler</strong><p>Choose number of points to send.</font><div class='respPicDiv'><img src='img/responseButtonOffersNo0L.png' class='respPic'></div></div>","1","2","Tyler","4","Kept","0.2,0.8","9","0.2","trustrating_stim/white_00757_941201_fa_edt.bmp","1","32","6"
"html-keyboard-response","153","171217","0.0-19.0-2.5","63d53c6bc368b9fa8d33f4cf","bdp_trlrn","Tue Mar 14 2023 21:07:49 GMT-0400 (Eastern Daylight Time)","395794","Untrustworthy,Trustworthy","","null","","","","decisionFB","","<div class='trialDiv'><img src='trustrating_stim/white_00757_941201_fa_edt.bmp'><br><font class='baseline'><strong>Tyler</strong><p>Choose number of points to send.</font><div class='respPicDiv'><img src='img/responseButtonOffersNo0L1.png' class='respPic'></div></div>","null","2","Tyler","4","Kept","0.2,0.8","9","0.2","trustrating_stim/white_00757_941201_fa_edt.bmp","1","31","6"
"html-keyboard-response","154","172219","0.0-19.0-3.5","63d53c6bc368b9fa8d33f4cf","bdp_trlrn","Tue Mar 14 2023 21:07:49 GMT-0400 (Eastern Daylight Time)","395794","Untrustworthy,Trustworthy","","null","","","","feedback","","<div class='trialDiv'><img src='trustrating_stim/white_00757_941201_fa_edt.bmp'><br><font class='baseline'><strong>Tyler</strong><p>Received: <strong>4</strong></font> &nbsp; &nbsp; &nbsp; &nbsp; &nbsp; &nbsp;<font class='negOutcome'>Shared back: <strong>0</strong></font></font><div class='respPicDiv'><img src='img/responseButtonOffersNo0_wht.png' class='respPic'></div></div>","null","2","Tyler","4","Kept","0.2,0.8","9","0.2","trustrating_stim/white_00757_941201_fa_edt.bmp","1","31","6"
"html-keyboard-response","155","173059","0.0-19.0-1.6","63d53c6bc368b9fa8d33f4cf","bdp_trlrn","Tue Mar 14 2023 21:07:49 GMT-0400 (Eastern Daylight Time)","395794","Untrustworthy,Trustworthy","","839","","","","decision","","<div class='trialDiv'><img src='trustrating_stim/white_00109_931230_fa_edt.bmp'><br><font class='baseline'><strong>Nathan</strong><p>Choose number of points to send.</font><div class='respPicDiv'><img src='img/responseButtonOffersNo0L.png' class='respPic'></div></div>","4","3","Nathan","9","Shared","0.35,0.8","12","0.35","trustrating_stim/white_00109_931230_fa_edt.bmp","7","36","7"
"html-keyboard-response","156","173311","0.0-19.0-2.6","63d53c6bc368b9fa8d33f4cf","bdp_trlrn","Tue Mar 14 2023 21:07:49 GMT-0400 (Eastern Daylight Time)","395794","Untrustworthy,Trustworthy","","null","","","","decisionFB","","<div class='trialDiv'><img src='trustrating_stim/white_00109_931230_fa_edt.bmp'><br><font class='baseline'><strong>Nathan</strong><p>Choose number of points to send.</font><div class='respPicDiv'><img src='img/responseButtonOffersNo0L4.png' class='respPic'></div></div>","null","3","Nathan","9","Shared","0.35,0.8","12","0.35","trustrating_stim/white_00109_931230_fa_edt.bmp","7","32","7"
"html-keyboard-response","157","174313","0.0-19.0-3.6","63d53c6bc368b9fa8d33f4cf","bdp_trlrn","Tue Mar 14 2023 21:07:49 GMT-0400 (Eastern Daylight Time)","395794","Untrustworthy,Trustworthy","","null","","","","feedback","","<div class='trialDiv'><img src='trustrating_stim/white_00109_931230_fa_edt.bmp'><br><font class='baseline'><strong>Nathan</strong><p>Received: <strong>16</strong></font> &nbsp; &nbsp; &nbsp; &nbsp; &nbsp; &nbsp;<font class='posOutcome'>Shared back: <strong>8</strong></font></font><div class='respPicDiv'><img src='img/responseButtonOffersNo0_wht.png' class='respPic'></div></div>","null","3","Nathan","9","Shared","0.35,0.8","12","0.35","trustrating_stim/white_00109_931230_fa_edt.bmp","7","40","7"
"html-keyboard-response","158","174881","0.0-19.0-1.7","63d53c6bc368b9fa8d33f4cf","bdp_trlrn","Tue Mar 14 2023 21:07:49 GMT-0400 (Eastern Daylight Time)","395794","Untrustworthy,Trustworthy","","567","","","","decision","","<div class='trialDiv'><img src='trustrating_stim/white_mw099.bmp'><br><font class='baseline'><strong>Jordan</strong><p>Choose number of points to send.</font><div class='respPicDiv'><img src='img/responseButtonOffersNo0L.png' class='respPic'></div></div>","2","3","Jordan","0","Shared","0.65,0.2","10","0.65","trustrating_stim/white_mw099.bmp","1","45","8"
"html-keyboard-response","159","175132","0.0-19.0-2.7","63d53c6bc368b9fa8d33f4cf","bdp_trlrn","Tue Mar 14 2023 21:07:49 GMT-0400 (Eastern Daylight Time)","395794","Untrustworthy,Trustworthy","","null","","","","decisionFB","","<div class='trialDiv'><img src='trustrating_stim/white_mw099.bmp'><br><font class='baseline'><strong>Jordan</strong><p>Choose number of points to send.</font><div class='respPicDiv'><img src='img/responseButtonOffersNo0L2.png' class='respPic'></div></div>","null","3","Jordan","0","Shared","0.65,0.2","10","0.65","trustrating_stim/white_mw099.bmp","1","43","8"
"html-keyboard-response","160","176135","0.0-19.0-3.7","63d53c6bc368b9fa8d33f4cf","bdp_trlrn","Tue Mar 14 2023 21:07:49 GMT-0400 (Eastern Daylight Time)","395794","Untrustworthy,Trustworthy","","null","","","","feedback","","<div class='trialDiv'><img src='trustrating_stim/white_mw099.bmp'><br><font class='baseline'><strong>Jordan</strong><p>Received: <strong>8</strong></font> &nbsp; &nbsp; &nbsp; &nbsp; &nbsp; &nbsp;<font class='posOutcome'>Shared back: <strong>4</strong></font></font><div class='respPicDiv'><img src='img/responseButtonOffersNo0_wht.png' class='respPic'></div></div>","null","3","Jordan","0","Shared","0.65,0.2","10","0.65","trustrating_stim/white_mw099.bmp","1","47","8"
"html-keyboard-response","161","176571","0.0-19.0-1.8","63d53c6bc368b9fa8d33f4cf","bdp_trlrn","Tue Mar 14 2023 21:07:49 GMT-0400 (Eastern Daylight Time)","395794","Untrustworthy,Trustworthy","","435","","","","decision","","<div class='trialDiv'><img src='trustrating_stim/white_00757_941201_fa_edt.bmp'><br><font class='baseline'><strong>Tyler</strong><p>Choose number of points to send.</font><div class='respPicDiv'><img src='img/responseButtonOffersNo0L.png' class='respPic'></div></div>","1","3","Tyler","4","Kept","0.2,0.8","9","0.2","trustrating_stim/white_00757_941201_fa_edt.bmp","1","52","9"
"html-keyboard-response","162","176824","0.0-19.0-2.8","63d53c6bc368b9fa8d33f4cf","bdp_trlrn","Tue Mar 14 2023 21:07:49 GMT-0400 (Eastern Daylight Time)","395794","Untrustworthy,Trustworthy","","null","","","","decisionFB","","<div class='trialDiv'><img src='trustrating_stim/white_00757_941201_fa_edt.bmp'><br><font class='baseline'><strong>Tyler</strong><p>Choose number of points to send.</font><div class='respPicDiv'><img src='img/responseButtonOffersNo0L1.png' class='respPic'></div></div>","null","3","Tyler","4","Kept","0.2,0.8","9","0.2","trustrating_stim/white_00757_941201_fa_edt.bmp","1","51","9"
"html-keyboard-response","163","177826","0.0-19.0-3.8","63d53c6bc368b9fa8d33f4cf","bdp_trlrn","Tue Mar 14 2023 21:07:49 GMT-0400 (Eastern Daylight Time)","395794","Untrustworthy,Trustworthy","","null","","","","feedback","","<div class='trialDiv'><img src='trustrating_stim/white_00757_941201_fa_edt.bmp'><br><font class='baseline'><strong>Tyler</strong><p>Received: <strong>4</strong></font> &nbsp; &nbsp; &nbsp; &nbsp; &nbsp; &nbsp;<font class='negOutcome'>Shared back: <strong>0</strong></font></font><div class='respPicDiv'><img src='img/responseButtonOffersNo0_wht.png' class='respPic'></div></div>","null","3","Tyler","4","Kept","0.2,0.8","9","0.2","trustrating_stim/white_00757_941201_fa_edt.bmp","1","51","9"
"html-keyboard-response","164","178816","0.0-19.0-1.9","63d53c6bc368b9fa8d33f4cf","bdp_trlrn","Tue Mar 14 2023 21:07:49 GMT-0400 (Eastern Daylight Time)","395794","Untrustworthy,Trustworthy","","988","","","","decision","","<div class='trialDiv'><img src='trustrating_stim/white_00109_931230_fa_edt.bmp'><br><font class='baseline'><strong>Nathan</strong><p>Choose number of points to send.</font><div class='respPicDiv'><img src='img/responseButtonOffersNo0L.png' class='respPic'></div></div>","3","4","Nathan","9","Kept","0.35,0.8","12","0.35","trustrating_stim/white_00109_931230_fa_edt.bmp","7","56","10"
"html-keyboard-response","165","179068","0.0-19.0-2.9","63d53c6bc368b9fa8d33f4cf","bdp_trlrn","Tue Mar 14 2023 21:07:49 GMT-0400 (Eastern Daylight Time)","395794","Untrustworthy,Trustworthy","","null","","","","decisionFB","","<div class='trialDiv'><img src='trustrating_stim/white_00109_931230_fa_edt.bmp'><br><font class='baseline'><strong>Nathan</strong><p>Choose number of points to send.</font><div class='respPicDiv'><img src='img/responseButtonOffersNo0L3.png' class='respPic'></div></div>","null","4","Nathan","9","Kept","0.35,0.8","12","0.35","trustrating_stim/white_00109_931230_fa_edt.bmp","7","53","10"
"html-keyboard-response","166","180071","0.0-19.0-3.9","63d53c6bc368b9fa8d33f4cf","bdp_trlrn","Tue Mar 14 2023 21:07:49 GMT-0400 (Eastern Daylight Time)","395794","Untrustworthy,Trustworthy","","null","","","","feedback","","<div class='trialDiv'><img src='trustrating_stim/white_00109_931230_fa_edt.bmp'><br><font class='baseline'><strong>Nathan</strong><p>Received: <strong>12</strong></font> &nbsp; &nbsp; &nbsp; &nbsp; &nbsp; &nbsp;<font class='negOutcome'>Shared back: <strong>0</strong></font></font><div class='respPicDiv'><img src='img/responseButtonOffersNo0_wht.png' class='respPic'></div></div>","null","4","Nathan","9","Kept","0.35,0.8","12","0.35","trustrating_stim/white_00109_931230_fa_edt.bmp","7","53","10"
"html-keyboard-response","167","180288","0.0-19.0-1.10","63d53c6bc368b9fa8d33f4cf","bdp_trlrn","Tue Mar 14 2023 21:07:49 GMT-0400 (Eastern Daylight Time)","395794","Untrustworthy,Trustworthy","","217","","","","decision","","<div class='trialDiv'><img src='trustrating_stim/white_00757_941201_fa_edt.bmp'><br><font class='baseline'><strong>Tyler</strong><p>Choose number of points to send.</font><div class='respPicDiv'><img src='img/responseButtonOffersNo0L.png' class='respPic'></div></div>","3","4","Tyler","4","Kept","0.2,0.8","9","0.2","trustrating_stim/white_00757_941201_fa_edt.bmp","1","58","11"
"html-keyboard-response","168","180539","0.0-19.0-2.10","63d53c6bc368b9fa8d33f4cf","bdp_trlrn","Tue Mar 14 2023 21:07:49 GMT-0400 (Eastern Daylight Time)","395794","Untrustworthy,Trustworthy","","null","","","","decisionFB","","<div class='trialDiv'><img src='trustrating_stim/white_00757_941201_fa_edt.bmp'><br><font class='baseline'><strong>Tyler</strong><p>Choose number of points to send.</font><div class='respPicDiv'><img src='img/responseButtonOffersNo0L3.png' class='respPic'></div></div>","null","4","Tyler","4","Kept","0.2,0.8","9","0.2","trustrating_stim/white_00757_941201_fa_edt.bmp","1","55","11"
"html-keyboard-response","169","181541","0.0-19.0-3.10","63d53c6bc368b9fa8d33f4cf","bdp_trlrn","Tue Mar 14 2023 21:07:49 GMT-0400 (Eastern Daylight Time)","395794","Untrustworthy,Trustworthy","","null","","","","feedback","","<div class='trialDiv'><img src='trustrating_stim/white_00757_941201_fa_edt.bmp'><br><font class='baseline'><strong>Tyler</strong><p>Received: <strong>12</strong></font> &nbsp; &nbsp; &nbsp; &nbsp; &nbsp; &nbsp;<font class='negOutcome'>Shared back: <strong>0</strong></font></font><div class='respPicDiv'><img src='img/responseButtonOffersNo0_wht.png' class='respPic'></div></div>","null","4","Tyler","4","Kept","0.2,0.8","9","0.2","trustrating_stim/white_00757_941201_fa_edt.bmp","1","55","11"
"html-keyboard-response","170","182216","0.0-19.0-1.11","63d53c6bc368b9fa8d33f4cf","bdp_trlrn","Tue Mar 14 2023 21:07:49 GMT-0400 (Eastern Daylight Time)","395794","Untrustworthy,Trustworthy","","675","","","","decision","","<div class='trialDiv'><img src='trustrating_stim/white_mw099.bmp'><br><font class='baseline'><strong>Jordan</strong><p>Choose number of points to send.</font><div class='respPicDiv'><img src='img/responseButtonOffersNo0L.png' class='respPic'></div></div>","2","4","Jordan","0","Kept","0.65,0.2","10","0.65","trustrating_stim/white_mw099.bmp","1","60","12"
"html-keyboard-response","171","182468","0.0-19.0-2.11","63d53c6bc368b9fa8d33f4cf","bdp_trlrn","Tue Mar 14 2023 21:07:49 GMT-0400 (Eastern Daylight Time)","395794","Untrustworthy,Trustworthy","","null","","","","decisionFB","","<div class='trialDiv'><img src='trustrating_stim/white_mw099.bmp'><br><font class='baseline'><strong>Jordan</strong><p>Choose number of points to send.</font><div class='respPicDiv'><img src='img/responseButtonOffersNo0L2.png' class='respPic'></div></div>","null","4","Jordan","0","Kept","0.65,0.2","10","0.65","trustrating_stim/white_mw099.bmp","1","58","12"
"html-keyboard-response","172","183469","0.0-19.0-3.11","63d53c6bc368b9fa8d33f4cf","bdp_trlrn","Tue Mar 14 2023 21:07:49 GMT-0400 (Eastern Daylight Time)","395794","Untrustworthy,Trustworthy","","null","","","","feedback","","<div class='trialDiv'><img src='trustrating_stim/white_mw099.bmp'><br><font class='baseline'><strong>Jordan</strong><p>Received: <strong>8</strong></font> &nbsp; &nbsp; &nbsp; &nbsp; &nbsp; &nbsp;<font class='negOutcome'>Shared back: <strong>0</strong></font></font><div class='respPicDiv'><img src='img/responseButtonOffersNo0_wht.png' class='respPic'></div></div>","null","4","Jordan","0","Kept","0.65,0.2","10","0.65","trustrating_stim/white_mw099.bmp","1","58","12"
"html-keyboard-response","173","185083","0.0-19.0-1.12","63d53c6bc368b9fa8d33f4cf","bdp_trlrn","Tue Mar 14 2023 21:07:49 GMT-0400 (Eastern Daylight Time)","395794","Untrustworthy,Trustworthy","","1613","","","","decision","","<div class='trialDiv'><img src='trustrating_stim/white_00109_931230_fa_edt.bmp'><br><font class='baseline'><strong>Nathan</strong><p>Choose number of points to send.</font><div class='respPicDiv'><img src='img/responseButtonOffersNo0L.png' class='respPic'></div></div>","5","5","Nathan","9","Shared","0.35,0.8","12","0.35","trustrating_stim/white_00109_931230_fa_edt.bmp","7","63","13"
"html-keyboard-response","174","185343","0.0-19.0-2.12","63d53c6bc368b9fa8d33f4cf","bdp_trlrn","Tue Mar 14 2023 21:07:49 GMT-0400 (Eastern Daylight Time)","395794","Untrustworthy,Trustworthy","","null","","","","decisionFB","","<div class='trialDiv'><img src='trustrating_stim/white_00109_931230_fa_edt.bmp'><br><font class='baseline'><strong>Nathan</strong><p>Choose number of points to send.</font><div class='respPicDiv'><img src='img/responseButtonOffersNo0L5.png' class='respPic'></div></div>","null","5","Nathan","9","Shared","0.35,0.8","12","0.35","trustrating_stim/white_00109_931230_fa_edt.bmp","7","58","13"
"html-keyboard-response","175","186345","0.0-19.0-3.12","63d53c6bc368b9fa8d33f4cf","bdp_trlrn","Tue Mar 14 2023 21:07:49 GMT-0400 (Eastern Daylight Time)","395794","Untrustworthy,Trustworthy","","null","","","","feedback","","<div class='trialDiv'><img src='trustrating_stim/white_00109_931230_fa_edt.bmp'><br><font class='baseline'><strong>Nathan</strong><p>Received: <strong>20</strong></font> &nbsp; &nbsp; &nbsp; &nbsp; &nbsp; &nbsp;<font class='posOutcome'>Shared back: <strong>10</strong></font></font><div class='respPicDiv'><img src='img/responseButtonOffersNo0_wht.png' class='respPic'></div></div>","null","5","Nathan","9","Shared","0.35,0.8","12","0.35","trustrating_stim/white_00109_931230_fa_edt.bmp","7","68","13"
"html-keyboard-response","176","186906","0.0-19.0-1.13","63d53c6bc368b9fa8d33f4cf","bdp_trlrn","Tue Mar 14 2023 21:07:49 GMT-0400 (Eastern Daylight Time)","395794","Untrustworthy,Trustworthy","","560","","","","decision","","<div class='trialDiv'><img src='trustrating_stim/white_00757_941201_fa_edt.bmp'><br><font class='baseline'><strong>Tyler</strong><p>Choose number of points to send.</font><div class='respPicDiv'><img src='img/responseButtonOffersNo0L.png' class='respPic'></div></div>","1","5","Tyler","4","Shared","0.2,0.8","9","0.2","trustrating_stim/white_00757_941201_fa_edt.bmp","1","73","14"
"html-keyboard-response","177","187158","0.0-19.0-2.13","63d53c6bc368b9fa8d33f4cf","bdp_trlrn","Tue Mar 14 2023 21:07:49 GMT-0400 (Eastern Daylight Time)","395794","Untrustworthy,Trustworthy","","null","","","","decisionFB","","<div class='trialDiv'><img src='trustrating_stim/white_00757_941201_fa_edt.bmp'><br><font class='baseline'><strong>Tyler</strong><p>Choose number of points to send.</font><div class='respPicDiv'><img src='img/responseButtonOffersNo0L1.png' class='respPic'></div></div>","null","5","Tyler","4","Shared","0.2,0.8","9","0.2","trustrating_stim/white_00757_941201_fa_edt.bmp","1","72","14"
"html-keyboard-response","178","188160","0.0-19.0-3.13","63d53c6bc368b9fa8d33f4cf","bdp_trlrn","Tue Mar 14 2023 21:07:49 GMT-0400 (Eastern Daylight Time)","395794","Untrustworthy,Trustworthy","","null","","","","feedback","","<div class='trialDiv'><img src='trustrating_stim/white_00757_941201_fa_edt.bmp'><br><font class='baseline'><strong>Tyler</strong><p>Received: <strong>4</strong></font> &nbsp; &nbsp; &nbsp; &nbsp; &nbsp; &nbsp;<font class='posOutcome'>Shared back: <strong>2</strong></font></font><div class='respPicDiv'><img src='img/responseButtonOffersNo0_wht.png' class='respPic'></div></div>","null","5","Tyler","4","Shared","0.2,0.8","9","0.2","trustrating_stim/white_00757_941201_fa_edt.bmp","1","74","14"
"html-keyboard-response","179","189203","0.0-19.0-1.14","63d53c6bc368b9fa8d33f4cf","bdp_trlrn","Tue Mar 14 2023 21:07:49 GMT-0400 (Eastern Daylight Time)","395794","Untrustworthy,Trustworthy","","1042","","","","decision","","<div class='trialDiv'><img src='trustrating_stim/white_mw099.bmp'><br><font class='baseline'><strong>Jordan</strong><p>Choose number of points to send.</font><div class='respPicDiv'><img src='img/responseButtonOffersNo0L.png' class='respPic'></div></div>","2","5","Jordan","0","Shared","0.65,0.2","10","0.65","trustrating_stim/white_mw099.bmp","1","79","15"
"html-keyboard-response","180","189454","0.0-19.0-2.14","63d53c6bc368b9fa8d33f4cf","bdp_trlrn","Tue Mar 14 2023 21:07:49 GMT-0400 (Eastern Daylight Time)","395794","Untrustworthy,Trustworthy","","null","","","","decisionFB","","<div class='trialDiv'><img src='trustrating_stim/white_mw099.bmp'><br><font class='baseline'><strong>Jordan</strong><p>Choose number of points to send.</font><div class='respPicDiv'><img src='img/responseButtonOffersNo0L2.png' class='respPic'></div></div>","null","5","Jordan","0","Shared","0.65,0.2","10","0.65","trustrating_stim/white_mw099.bmp","1","77","15"
"html-keyboard-response","181","190456","0.0-19.0-3.14","63d53c6bc368b9fa8d33f4cf","bdp_trlrn","Tue Mar 14 2023 21:07:49 GMT-0400 (Eastern Daylight Time)","395794","Untrustworthy,Trustworthy","","null","","","","feedback","","<div class='trialDiv'><img src='trustrating_stim/white_mw099.bmp'><br><font class='baseline'><strong>Jordan</strong><p>Received: <strong>8</strong></font> &nbsp; &nbsp; &nbsp; &nbsp; &nbsp; &nbsp;<font class='posOutcome'>Shared back: <strong>4</strong></font></font><div class='respPicDiv'><img src='img/responseButtonOffersNo0_wht.png' class='respPic'></div></div>","null","5","Jordan","0","Shared","0.65,0.2","10","0.65","trustrating_stim/white_mw099.bmp","1","81","15"
"html-keyboard-response","182","190966","0.0-19.0-1.15","63d53c6bc368b9fa8d33f4cf","bdp_trlrn","Tue Mar 14 2023 21:07:49 GMT-0400 (Eastern Daylight Time)","395794","Untrustworthy,Trustworthy","","510","","","","decision","","<div class='trialDiv'><img src='trustrating_stim/white_00109_931230_fa_edt.bmp'><br><font class='baseline'><strong>Nathan</strong><p>Choose number of points to send.</font><div class='respPicDiv'><img src='img/responseButtonOffersNo0L.png' class='respPic'></div></div>","3","6","Nathan","9","Kept","0.35,0.8","12","0.35","trustrating_stim/white_00109_931230_fa_edt.bmp","7","86","16"
"html-keyboard-response","183","191217","0.0-19.0-2.15","63d53c6bc368b9fa8d33f4cf","bdp_trlrn","Tue Mar 14 2023 21:07:49 GMT-0400 (Eastern Daylight Time)","395794","Untrustworthy,Trustworthy","","null","","","","decisionFB","","<div class='trialDiv'><img src='trustrating_stim/white_00109_931230_fa_edt.bmp'><br><font class='baseline'><strong>Nathan</strong><p>Choose number of points to send.</font><div class='respPicDiv'><img src='img/responseButtonOffersNo0L3.png' class='respPic'></div></div>","null","6","Nathan","9","Kept","0.35,0.8","12","0.35","trustrating_stim/white_00109_931230_fa_edt.bmp","7","83","16"
"html-keyboard-response","184","192219","0.0-19.0-3.15","63d53c6bc368b9fa8d33f4cf","bdp_trlrn","Tue Mar 14 2023 21:07:49 GMT-0400 (Eastern Daylight Time)","395794","Untrustworthy,Trustworthy","","null","","","","feedback","","<div class='trialDiv'><img src='trustrating_stim/white_00109_931230_fa_edt.bmp'><br><font class='baseline'><strong>Nathan</strong><p>Received: <strong>12</strong></font> &nbsp; &nbsp; &nbsp; &nbsp; &nbsp; &nbsp;<font class='negOutcome'>Shared back: <strong>0</strong></font></font><div class='respPicDiv'><img src='img/responseButtonOffersNo0_wht.png' class='respPic'></div></div>","null","6","Nathan","9","Kept","0.35,0.8","12","0.35","trustrating_stim/white_00109_931230_fa_edt.bmp","7","83","16"
"html-keyboard-response","185","192922","0.0-19.0-1.16","63d53c6bc368b9fa8d33f4cf","bdp_trlrn","Tue Mar 14 2023 21:07:49 GMT-0400 (Eastern Daylight Time)","395794","Untrustworthy,Trustworthy","","702","","","","decision","","<div class='trialDiv'><img src='trustrating_stim/white_00757_941201_fa_edt.bmp'><br><font class='baseline'><strong>Tyler</strong><p>Choose number of points to send.</font><div class='respPicDiv'><img src='img/responseButtonOffersNo0L.png' class='respPic'></div></div>","1","6","Tyler","4","Kept","0.2,0.8","9","0.2","trustrating_stim/white_00757_941201_fa_edt.bmp","1","88","17"
"html-keyboard-response","186","193174","0.0-19.0-2.16","63d53c6bc368b9fa8d33f4cf","bdp_trlrn","Tue Mar 14 2023 21:07:49 GMT-0400 (Eastern Daylight Time)","395794","Untrustworthy,Trustworthy","","null","","","","decisionFB","","<div class='trialDiv'><img src='trustrating_stim/white_00757_941201_fa_edt.bmp'><br><font class='baseline'><strong>Tyler</strong><p>Choose number of points to send.</font><div class='respPicDiv'><img src='img/responseButtonOffersNo0L1.png' class='respPic'></div></div>","null","6","Tyler","4","Kept","0.2,0.8","9","0.2","trustrating_stim/white_00757_941201_fa_edt.bmp","1","87","17"
"html-keyboard-response","187","194175","0.0-19.0-3.16","63d53c6bc368b9fa8d33f4cf","bdp_trlrn","Tue Mar 14 2023 21:07:49 GMT-0400 (Eastern Daylight Time)","395794","Untrustworthy,Trustworthy","","null","","","","feedback","","<div class='trialDiv'><img src='trustrating_stim/white_00757_941201_fa_edt.bmp'><br><font class='baseline'><strong>Tyler</strong><p>Received: <strong>4</strong></font> &nbsp; &nbsp; &nbsp; &nbsp; &nbsp; &nbsp;<font class='negOutcome'>Shared back: <strong>0</strong></font></font><div class='respPicDiv'><img src='img/responseButtonOffersNo0_wht.png' class='respPic'></div></div>","null","6","Tyler","4","Kept","0.2,0.8","9","0.2","trustrating_stim/white_00757_941201_fa_edt.bmp","1","87","17"
"html-keyboard-response","188","194598","0.0-19.0-1.17","63d53c6bc368b9fa8d33f4cf","bdp_trlrn","Tue Mar 14 2023 21:07:49 GMT-0400 (Eastern Daylight Time)","395794","Untrustworthy,Trustworthy","","422","","","","decision","","<div class='trialDiv'><img src='trustrating_stim/white_mw099.bmp'><br><font class='baseline'><strong>Jordan</strong><p>Choose number of points to send.</font><div class='respPicDiv'><img src='img/responseButtonOffersNo0L.png' class='respPic'></div></div>","1","6","Jordan","0","Kept","0.65,0.2","10","0.65","trustrating_stim/white_mw099.bmp","1","92","18"
"html-keyboard-response","189","194849","0.0-19.0-2.17","63d53c6bc368b9fa8d33f4cf","bdp_trlrn","Tue Mar 14 2023 21:07:49 GMT-0400 (Eastern Daylight Time)","395794","Untrustworthy,Trustworthy","","null","","","","decisionFB","","<div class='trialDiv'><img src='trustrating_stim/white_mw099.bmp'><br><font class='baseline'><strong>Jordan</strong><p>Choose number of points to send.</font><div class='respPicDiv'><img src='img/responseButtonOffersNo0L1.png' class='respPic'></div></div>","null","6","Jordan","0","Kept","0.65,0.2","10","0.65","trustrating_stim/white_mw099.bmp","1","91","18"
"html-keyboard-response","190","195852","0.0-19.0-3.17","63d53c6bc368b9fa8d33f4cf","bdp_trlrn","Tue Mar 14 2023 21:07:49 GMT-0400 (Eastern Daylight Time)","395794","Untrustworthy,Trustworthy","","null","","","","feedback","","<div class='trialDiv'><img src='trustrating_stim/white_mw099.bmp'><br><font class='baseline'><strong>Jordan</strong><p>Received: <strong>4</strong></font> &nbsp; &nbsp; &nbsp; &nbsp; &nbsp; &nbsp;<font class='negOutcome'>Shared back: <strong>0</strong></font></font><div class='respPicDiv'><img src='img/responseButtonOffersNo0_wht.png' class='respPic'></div></div>","null","6","Jordan","0","Kept","0.65,0.2","10","0.65","trustrating_stim/white_mw099.bmp","1","91","18"
"html-keyboard-response","191","196485","0.0-19.0-1.18","63d53c6bc368b9fa8d33f4cf","bdp_trlrn","Tue Mar 14 2023 21:07:49 GMT-0400 (Eastern Daylight Time)","395794","Untrustworthy,Trustworthy","","631","","","","decision","","<div class='trialDiv'><img src='trustrating_stim/white_00757_941201_fa_edt.bmp'><br><font class='baseline'><strong>Tyler</strong><p>Choose number of points to send.</font><div class='respPicDiv'><img src='img/responseButtonOffersNo0L.png' class='respPic'></div></div>","1","7","Tyler","4","Shared","0.2,0.8","9","0.2","trustrating_stim/white_00757_941201_fa_edt.bmp","1","96","19"
"html-keyboard-response","192","196736","0.0-19.0-2.18","63d53c6bc368b9fa8d33f4cf","bdp_trlrn","Tue Mar 14 2023 21:07:49 GMT-0400 (Eastern Daylight Time)","395794","Untrustworthy,Trustworthy","","null","","","","decisionFB","","<div class='trialDiv'><img src='trustrating_stim/white_00757_941201_fa_edt.bmp'><br><font class='baseline'><strong>Tyler</strong><p>Choose number of points to send.</font><div class='respPicDiv'><img src='img/responseButtonOffersNo0L1.png' class='respPic'></div></div>","null","7","Tyler","4","Shared","0.2,0.8","9","0.2","trustrating_stim/white_00757_941201_fa_edt.bmp","1","95","19"
"html-keyboard-response","193","197738","0.0-19.0-3.18","63d53c6bc368b9fa8d33f4cf","bdp_trlrn","Tue Mar 14 2023 21:07:49 GMT-0400 (Eastern Daylight Time)","395794","Untrustworthy,Trustworthy","","null","","","","feedback","","<div class='trialDiv'><img src='trustrating_stim/white_00757_941201_fa_edt.bmp'><br><font class='baseline'><strong>Tyler</strong><p>Received: <strong>4</strong></font> &nbsp; &nbsp; &nbsp; &nbsp; &nbsp; &nbsp;<font class='posOutcome'>Shared back: <strong>2</strong></font></font><div class='respPicDiv'><img src='img/responseButtonOffersNo0_wht.png' class='respPic'></div></div>","null","7","Tyler","4","Shared","0.2,0.8","9","0.2","trustrating_stim/white_00757_941201_fa_edt.bmp","1","97","19"
"html-keyboard-response","194","198402","0.0-19.0-1.19","63d53c6bc368b9fa8d33f4cf","bdp_trlrn","Tue Mar 14 2023 21:07:49 GMT-0400 (Eastern Daylight Time)","395794","Untrustworthy,Trustworthy","","664","","","","decision","","<div class='trialDiv'><img src='trustrating_stim/white_00109_931230_fa_edt.bmp'><br><font class='baseline'><strong>Nathan</strong><p>Choose number of points to send.</font><div class='respPicDiv'><img src='img/responseButtonOffersNo0L.png' class='respPic'></div></div>","4","7","Nathan","9","Kept","0.35,0.8","12","0.35","trustrating_stim/white_00109_931230_fa_edt.bmp","7","102","20"
"html-keyboard-response","195","198654","0.0-19.0-2.19","63d53c6bc368b9fa8d33f4cf","bdp_trlrn","Tue Mar 14 2023 21:07:49 GMT-0400 (Eastern Daylight Time)","395794","Untrustworthy,Trustworthy","","null","","","","decisionFB","","<div class='trialDiv'><img src='trustrating_stim/white_00109_931230_fa_edt.bmp'><br><font class='baseline'><strong>Nathan</strong><p>Choose number of points to send.</font><div class='respPicDiv'><img src='img/responseButtonOffersNo0L4.png' class='respPic'></div></div>","null","7","Nathan","9","Kept","0.35,0.8","12","0.35","trustrating_stim/white_00109_931230_fa_edt.bmp","7","98","20"
"html-keyboard-response","196","199656","0.0-19.0-3.19","63d53c6bc368b9fa8d33f4cf","bdp_trlrn","Tue Mar 14 2023 21:07:49 GMT-0400 (Eastern Daylight Time)","395794","Untrustworthy,Trustworthy","","null","","","","feedback","","<div class='trialDiv'><img src='trustrating_stim/white_00109_931230_fa_edt.bmp'><br><font class='baseline'><strong>Nathan</strong><p>Received: <strong>16</strong></font> &nbsp; &nbsp; &nbsp; &nbsp; &nbsp; &nbsp;<font class='negOutcome'>Shared back: <strong>0</strong></font></font><div class='respPicDiv'><img src='img/responseButtonOffersNo0_wht.png' class='respPic'></div></div>","null","7","Nathan","9","Kept","0.35,0.8","12","0.35","trustrating_stim/white_00109_931230_fa_edt.bmp","7","98","20"
"html-keyboard-response","197","200043","0.0-19.0-1.20","63d53c6bc368b9fa8d33f4cf","bdp_trlrn","Tue Mar 14 2023 21:07:49 GMT-0400 (Eastern Daylight Time)","395794","Untrustworthy,Trustworthy","","386","","","","decision","","<div class='trialDiv'><img src='trustrating_stim/white_mw099.bmp'><br><font class='baseline'><strong>Jordan</strong><p>Choose number of points to send.</font><div class='respPicDiv'><img src='img/responseButtonOffersNo0L.png' class='respPic'></div></div>","1","7","Jordan","0","Shared","0.65,0.2","10","0.65","trustrating_stim/white_mw099.bmp","1","103","21"
"html-keyboard-response","198","200295","0.0-19.0-2.20","63d53c6bc368b9fa8d33f4cf","bdp_trlrn","Tue Mar 14 2023 21:07:49 GMT-0400 (Eastern Daylight Time)","395794","Untrustworthy,Trustworthy","","null","","","","decisionFB","","<div class='trialDiv'><img src='trustrating_stim/white_mw099.bmp'><br><font class='baseline'><strong>Jordan</strong><p>Choose number of points to send.</font><div class='respPicDiv'><img src='img/responseButtonOffersNo0L1.png' class='respPic'></div></div>","null","7","Jordan","0","Shared","0.65,0.2","10","0.65","trustrating_stim/white_mw099.bmp","1","102","21"
"html-keyboard-response","199","201297","0.0-19.0-3.20","63d53c6bc368b9fa8d33f4cf","bdp_trlrn","Tue Mar 14 2023 21:07:49 GMT-0400 (Eastern Daylight Time)","395794","Untrustworthy,Trustworthy","","null","","","","feedback","","<div class='trialDiv'><img src='trustrating_stim/white_mw099.bmp'><br><font class='baseline'><strong>Jordan</strong><p>Received: <strong>4</strong></font> &nbsp; &nbsp; &nbsp; &nbsp; &nbsp; &nbsp;<font class='posOutcome'>Shared back: <strong>2</strong></font></font><div class='respPicDiv'><img src='img/responseButtonOffersNo0_wht.png' class='respPic'></div></div>","null","7","Jordan","0","Shared","0.65,0.2","10","0.65","trustrating_stim/white_mw099.bmp","1","104","21"
"html-keyboard-response","200","202235","0.0-19.0-1.21","63d53c6bc368b9fa8d33f4cf","bdp_trlrn","Tue Mar 14 2023 21:07:49 GMT-0400 (Eastern Daylight Time)","395794","Untrustworthy,Trustworthy","","938","","","","decision","","<div class='trialDiv'><img src='trustrating_stim/white_00109_931230_fa_edt.bmp'><br><font class='baseline'><strong>Nathan</strong><p>Choose number of points to send.</font><div class='respPicDiv'><img src='img/responseButtonOffersNo0L.png' class='respPic'></div></div>","2","8","Nathan","9","Shared","0.35,0.8","12","0.35","trustrating_stim/white_00109_931230_fa_edt.bmp","7","109","22"
"html-keyboard-response","201","202486","0.0-19.0-2.21","63d53c6bc368b9fa8d33f4cf","bdp_trlrn","Tue Mar 14 2023 21:07:49 GMT-0400 (Eastern Daylight Time)","395794","Untrustworthy,Trustworthy","","null","","","","decisionFB","","<div class='trialDiv'><img src='trustrating_stim/white_00109_931230_fa_edt.bmp'><br><font class='baseline'><strong>Nathan</strong><p>Choose number of points to send.</font><div class='respPicDiv'><img src='img/responseButtonOffersNo0L2.png' class='respPic'></div></div>","null","8","Nathan","9","Shared","0.35,0.8","12","0.35","trustrating_stim/white_00109_931230_fa_edt.bmp","7","107","22"
"html-keyboard-response","202","203488","0.0-19.0-3.21","63d53c6bc368b9fa8d33f4cf","bdp_trlrn","Tue Mar 14 2023 21:07:49 GMT-0400 (Eastern Daylight Time)","395794","Untrustworthy,Trustworthy","","null","","","","feedback","","<div class='trialDiv'><img src='trustrating_stim/white_00109_931230_fa_edt.bmp'><br><font class='baseline'><strong>Nathan</strong><p>Received: <strong>8</strong></font> &nbsp; &nbsp; &nbsp; &nbsp; &nbsp; &nbsp;<font class='posOutcome'>Shared back: <strong>4</strong></font></font><div class='respPicDiv'><img src='img/responseButtonOffersNo0_wht.png' class='respPic'></div></div>","null","8","Nathan","9","Shared","0.35,0.8","12","0.35","trustrating_stim/white_00109_931230_fa_edt.bmp","7","111","22"
"html-keyboard-response","203","204287","0.0-19.0-1.22","63d53c6bc368b9fa8d33f4cf","bdp_trlrn","Tue Mar 14 2023 21:07:49 GMT-0400 (Eastern Daylight Time)","395794","Untrustworthy,Trustworthy","","797","","","","decision","","<div class='trialDiv'><img src='trustrating_stim/white_00757_941201_fa_edt.bmp'><br><font class='baseline'><strong>Tyler</strong><p>Choose number of points to send.</font><div class='respPicDiv'><img src='img/responseButtonOffersNo0L.png' class='respPic'></div></div>","3","8","Tyler","4","Kept","0.2,0.8","9","0.2","trustrating_stim/white_00757_941201_fa_edt.bmp","1","116","23"
"html-keyboard-response","204","204539","0.0-19.0-2.22","63d53c6bc368b9fa8d33f4cf","bdp_trlrn","Tue Mar 14 2023 21:07:49 GMT-0400 (Eastern Daylight Time)","395794","Untrustworthy,Trustworthy","","null","","","","decisionFB","","<div class='trialDiv'><img src='trustrating_stim/white_00757_941201_fa_edt.bmp'><br><font class='baseline'><strong>Tyler</strong><p>Choose number of points to send.</font><div class='respPicDiv'><img src='img/responseButtonOffersNo0L3.png' class='respPic'></div></div>","null","8","Tyler","4","Kept","0.2,0.8","9","0.2","trustrating_stim/white_00757_941201_fa_edt.bmp","1","113","23"
"html-keyboard-response","205","205540","0.0-19.0-3.22","63d53c6bc368b9fa8d33f4cf","bdp_trlrn","Tue Mar 14 2023 21:07:49 GMT-0400 (Eastern Daylight Time)","395794","Untrustworthy,Trustworthy","","null","","","","feedback","","<div class='trialDiv'><img src='trustrating_stim/white_00757_941201_fa_edt.bmp'><br><font class='baseline'><strong>Tyler</strong><p>Received: <strong>12</strong></font> &nbsp; &nbsp; &nbsp; &nbsp; &nbsp; &nbsp;<font class='negOutcome'>Shared back: <strong>0</strong></font></font><div class='respPicDiv'><img src='img/responseButtonOffersNo0_wht.png' class='respPic'></div></div>","null","8","Tyler","4","Kept","0.2,0.8","9","0.2","trustrating_stim/white_00757_941201_fa_edt.bmp","1","113","23"
"html-keyboard-response","206","206189","0.0-19.0-1.23","63d53c6bc368b9fa8d33f4cf","bdp_trlrn","Tue Mar 14 2023 21:07:49 GMT-0400 (Eastern Daylight Time)","395794","Untrustworthy,Trustworthy","","647","","","","decision","","<div class='trialDiv'><img src='trustrating_stim/white_mw099.bmp'><br><font class='baseline'><strong>Jordan</strong><p>Choose number of points to send.</font><div class='respPicDiv'><img src='img/responseButtonOffersNo0L.png' class='respPic'></div></div>","3","8","Jordan","0","Shared","0.65,0.2","10","0.65","trustrating_stim/white_mw099.bmp","1","118","24"
"html-keyboard-response","207","206440","0.0-19.0-2.23","63d53c6bc368b9fa8d33f4cf","bdp_trlrn","Tue Mar 14 2023 21:07:49 GMT-0400 (Eastern Daylight Time)","395794","Untrustworthy,Trustworthy","","null","","","","decisionFB","","<div class='trialDiv'><img src='trustrating_stim/white_mw099.bmp'><br><font class='baseline'><strong>Jordan</strong><p>Choose number of points to send.</font><div class='respPicDiv'><img src='img/responseButtonOffersNo0L3.png' class='respPic'></div></div>","null","8","Jordan","0","Shared","0.65,0.2","10","0.65","trustrating_stim/white_mw099.bmp","1","115","24"
"html-keyboard-response","208","207442","0.0-19.0-3.23","63d53c6bc368b9fa8d33f4cf","bdp_trlrn","Tue Mar 14 2023 21:07:49 GMT-0400 (Eastern Daylight Time)","395794","Untrustworthy,Trustworthy","","null","","","","feedback","","<div class='trialDiv'><img src='trustrating_stim/white_mw099.bmp'><br><font class='baseline'><strong>Jordan</strong><p>Received: <strong>12</strong></font> &nbsp; &nbsp; &nbsp; &nbsp; &nbsp; &nbsp;<font class='posOutcome'>Shared back: <strong>6</strong></font></font><div class='respPicDiv'><img src='img/responseButtonOffersNo0_wht.png' class='respPic'></div></div>","null","8","Jordan","0","Shared","0.65,0.2","10","0.65","trustrating_stim/white_mw099.bmp","1","121","24"
"html-keyboard-response","209","207947","0.0-19.0-1.24","63d53c6bc368b9fa8d33f4cf","bdp_trlrn","Tue Mar 14 2023 21:07:49 GMT-0400 (Eastern Daylight Time)","395794","Untrustworthy,Trustworthy","","504","","","","decision","","<div class='trialDiv'><img src='trustrating_stim/white_00757_941201_fa_edt.bmp'><br><font class='baseline'><strong>Tyler</strong><p>Choose number of points to send.</font><div class='respPicDiv'><img src='img/responseButtonOffersNo0L.png' class='respPic'></div></div>","1","9","Tyler","4","Shared","0.2,0.8","9","0.2","trustrating_stim/white_00757_941201_fa_edt.bmp","1","126","25"
"html-keyboard-response","210","208199","0.0-19.0-2.24","63d53c6bc368b9fa8d33f4cf","bdp_trlrn","Tue Mar 14 2023 21:07:49 GMT-0400 (Eastern Daylight Time)","395794","Untrustworthy,Trustworthy","","null","","","","decisionFB","","<div class='trialDiv'><img src='trustrating_stim/white_00757_941201_fa_edt.bmp'><br><font class='baseline'><strong>Tyler</strong><p>Choose number of points to send.</font><div class='respPicDiv'><img src='img/responseButtonOffersNo0L1.png' class='respPic'></div></div>","null","9","Tyler","4","Shared","0.2,0.8","9","0.2","trustrating_stim/white_00757_941201_fa_edt.bmp","1","125","25"
"html-keyboard-response","211","209201","0.0-19.0-3.24","63d53c6bc368b9fa8d33f4cf","bdp_trlrn","Tue Mar 14 2023 21:07:49 GMT-0400 (Eastern Daylight Time)","395794","Untrustworthy,Trustworthy","","null","","","","feedback","","<div class='trialDiv'><img src='trustrating_stim/white_00757_941201_fa_edt.bmp'><br><font class='baseline'><strong>Tyler</strong><p>Received: <strong>4</strong></font> &nbsp; &nbsp; &nbsp; &nbsp; &nbsp; &nbsp;<font class='posOutcome'>Shared back: <strong>2</strong></font></font><div class='respPicDiv'><img src='img/responseButtonOffersNo0_wht.png' class='respPic'></div></div>","null","9","Tyler","4","Shared","0.2,0.8","9","0.2","trustrating_stim/white_00757_941201_fa_edt.bmp","1","127","25"
"html-keyboard-response","212","209758","0.0-19.0-1.25","63d53c6bc368b9fa8d33f4cf","bdp_trlrn","Tue Mar 14 2023 21:07:49 GMT-0400 (Eastern Daylight Time)","395794","Untrustworthy,Trustworthy","","557","","","","decision","","<div class='trialDiv'><img src='trustrating_stim/white_00109_931230_fa_edt.bmp'><br><font class='baseline'><strong>Nathan</strong><p>Choose number of points to send.</font><div class='respPicDiv'><img src='img/responseButtonOffersNo0L.png' class='respPic'></div></div>","4","9","Nathan","9","Shared","0.35,0.8","12","0.35","trustrating_stim/white_00109_931230_fa_edt.bmp","7","132","26"
"html-keyboard-response","213","210009","0.0-19.0-2.25","63d53c6bc368b9fa8d33f4cf","bdp_trlrn","Tue Mar 14 2023 21:07:49 GMT-0400 (Eastern Daylight Time)","395794","Untrustworthy,Trustworthy","","null","","","","decisionFB","","<div class='trialDiv'><img src='trustrating_stim/white_00109_931230_fa_edt.bmp'><br><font class='baseline'><strong>Nathan</strong><p>Choose number of points to send.</font><div class='respPicDiv'><img src='img/responseButtonOffersNo0L4.png' class='respPic'></div></div>","null","9","Nathan","9","Shared","0.35,0.8","12","0.35","trustrating_stim/white_00109_931230_fa_edt.bmp","7","128","26"
"html-keyboard-response","214","211011","0.0-19.0-3.25","63d53c6bc368b9fa8d33f4cf","bdp_trlrn","Tue Mar 14 2023 21:07:49 GMT-0400 (Eastern Daylight Time)","395794","Untrustworthy,Trustworthy","","null","","","","feedback","","<div class='trialDiv'><img src='trustrating_stim/white_00109_931230_fa_edt.bmp'><br><font class='baseline'><strong>Nathan</strong><p>Received: <strong>16</strong></font> &nbsp; &nbsp; &nbsp; &nbsp; &nbsp; &nbsp;<font class='posOutcome'>Shared back: <strong>8</strong></font></font><div class='respPicDiv'><img src='img/responseButtonOffersNo0_wht.png' class='respPic'></div></div>","null","9","Nathan","9","Shared","0.35,0.8","12","0.35","trustrating_stim/white_00109_931230_fa_edt.bmp","7","136","26"
"html-keyboard-response","215","213199","0.0-19.0-1.26","63d53c6bc368b9fa8d33f4cf","bdp_trlrn","Tue Mar 14 2023 21:07:49 GMT-0400 (Eastern Daylight Time)","395794","Untrustworthy,Trustworthy","","2187","","","","decision","","<div class='trialDiv'><img src='trustrating_stim/white_mw099.bmp'><br><font class='baseline'><strong>Jordan</strong><p>Choose number of points to send.</font><div class='respPicDiv'><img src='img/responseButtonOffersNo0L.png' class='respPic'></div></div>","5","9","Jordan","0","Shared","0.65,0.2","10","0.65","trustrating_stim/white_mw099.bmp","1","141","27"
"html-keyboard-response","216","213450","0.0-19.0-2.26","63d53c6bc368b9fa8d33f4cf","bdp_trlrn","Tue Mar 14 2023 21:07:49 GMT-0400 (Eastern Daylight Time)","395794","Untrustworthy,Trustworthy","","null","","","","decisionFB","","<div class='trialDiv'><img src='trustrating_stim/white_mw099.bmp'><br><font class='baseline'><strong>Jordan</strong><p>Choose number of points to send.</font><div class='respPicDiv'><img src='img/responseButtonOffersNo0L5.png' class='respPic'></div></div>","null","9","Jordan","0","Shared","0.65,0.2","10","0.65","trustrating_stim/white_mw099.bmp","1","136","27"
"html-keyboard-response","217","214452","0.0-19.0-3.26","63d53c6bc368b9fa8d33f4cf","bdp_trlrn","Tue Mar 14 2023 21:07:49 GMT-0400 (Eastern Daylight Time)","395794","Untrustworthy,Trustworthy","","null","","","","feedback","","<div class='trialDiv'><img src='trustrating_stim/white_mw099.bmp'><br><font class='baseline'><strong>Jordan</strong><p>Received: <strong>20</strong></font> &nbsp; &nbsp; &nbsp; &nbsp; &nbsp; &nbsp;<font class='posOutcome'>Shared back: <strong>10</strong></font></font><div class='respPicDiv'><img src='img/responseButtonOffersNo0_wht.png' class='respPic'></div></div>","null","9","Jordan","0","Shared","0.65,0.2","10","0.65","trustrating_stim/white_mw099.bmp","1","146","27"
"html-keyboard-response","218","215339","0.0-19.0-1.27","63d53c6bc368b9fa8d33f4cf","bdp_trlrn","Tue Mar 14 2023 21:07:49 GMT-0400 (Eastern Daylight Time)","395794","Untrustworthy,Trustworthy","","886","","","","decision","","<div class='trialDiv'><img src='trustrating_stim/white_00109_931230_fa_edt.bmp'><br><font class='baseline'><strong>Nathan</strong><p>Choose number of points to send.</font><div class='respPicDiv'><img src='img/responseButtonOffersNo0L.png' class='respPic'></div></div>","2","10","Nathan","9","Kept","0.35,0.8","12","0.35","trustrating_stim/white_00109_931230_fa_edt.bmp","7","151","28"
"html-keyboard-response","219","215591","0.0-19.0-2.27","63d53c6bc368b9fa8d33f4cf","bdp_trlrn","Tue Mar 14 2023 21:07:49 GMT-0400 (Eastern Daylight Time)","395794","Untrustworthy,Trustworthy","","null","","","","decisionFB","","<div class='trialDiv'><img src='trustrating_stim/white_00109_931230_fa_edt.bmp'><br><font class='baseline'><strong>Nathan</strong><p>Choose number of points to send.</font><div class='respPicDiv'><img src='img/responseButtonOffersNo0L2.png' class='respPic'></div></div>","null","10","Nathan","9","Kept","0.35,0.8","12","0.35","trustrating_stim/white_00109_931230_fa_edt.bmp","7","149","28"
"html-keyboard-response","220","216593","0.0-19.0-3.27","63d53c6bc368b9fa8d33f4cf","bdp_trlrn","Tue Mar 14 2023 21:07:49 GMT-0400 (Eastern Daylight Time)","395794","Untrustworthy,Trustworthy","","null","","","","feedback","","<div class='trialDiv'><img src='trustrating_stim/white_00109_931230_fa_edt.bmp'><br><font class='baseline'><strong>Nathan</strong><p>Received: <strong>8</strong></font> &nbsp; &nbsp; &nbsp; &nbsp; &nbsp; &nbsp;<font class='negOutcome'>Shared back: <strong>0</strong></font></font><div class='respPicDiv'><img src='img/responseButtonOffersNo0_wht.png' class='respPic'></div></div>","null","10","Nathan","9","Kept","0.35,0.8","12","0.35","trustrating_stim/white_00109_931230_fa_edt.bmp","7","149","28"
