"trial_type","trial_index","time_elapsed","internal_node_id","subject_id","task","startTime","totalTime","labels","view_history","rt","event","trial","time","trialtype","success","stimulus","key_press","aground","name","faceID","outcome","agenttype","agentswpt","agentcurrpshare","face","avgRating","point_total","round"
"pavlovia","0","3","0.0-0.0","63d007388da4ef5b301762f9","bdp_trlrn","Tue Mar 14 2023 18:11:00 GMT-0700 (Pacific Daylight Time)","461044","Untrustworthy,Trustworthy","","","","","","","","","","","","","","","","","","","",""
"instructions","1","4237","0.0-1.0","63d007388da4ef5b301762f9","bdp_trlrn","Tue Mar 14 2023 18:11:00 GMT-0700 (Pacific Daylight Time)","461044","Untrustworthy,Trustworthy","[{""page_index"":0,""viewing_time"":4232}]","4232","","","","","","","","","","","","","","","","","",""
"","","","","63d007388da4ef5b301762f9","bdp_trlrn","Tue Mar 14 2023 18:11:00 GMT-0700 (Pacific Daylight Time)","461044","Untrustworthy,Trustworthy","","","fullscreenenter","2","6037","fullscreenenter","","","","","","","","","","","","","",""
"fullscreen","2","7024","0.0-2.0","63d007388da4ef5b301762f9","bdp_trlrn","Tue Mar 14 2023 18:11:00 GMT-0700 (Pacific Daylight Time)","461044","Untrustworthy,Trustworthy","","","","","","","true","","","","","","","","","","","","",""
"instructions","3","11812","0.0-4.0","63d007388da4ef5b301762f9","bdp_trlrn","Tue Mar 14 2023 18:11:00 GMT-0700 (Pacific Daylight Time)","461044","Untrustworthy,Trustworthy","[{""page_index"":0,""viewing_time"":3625},{""page_index"":1,""viewing_time"":1162}]","4787","","","","","","","","","","","","","","","","","",""
"instructions","4","12608","0.0-5.0","63d007388da4ef5b301762f9","bdp_trlrn","Tue Mar 14 2023 18:11:00 GMT-0700 (Pacific Daylight Time)","461044","Untrustworthy,Trustworthy","[{""page_index"":0,""viewing_time"":796}]","796","","","","","","","","","","","","","","","","","",""
"image-keyboard-response","5","14841","0.0-6.0-1.0","63d007388da4ef5b301762f9","bdp_trlrn","Tue Mar 14 2023 18:11:00 GMT-0700 (Pacific Daylight Time)","461044","Untrustworthy,Trustworthy","","2132","","","","rating","","trustrating_stim/white_00757_941201_fa_edt.bmp","5","","","","","","","","","","",""
"image-keyboard-response","6","15056","0.0-6.0-2.0","63d007388da4ef5b301762f9","bdp_trlrn","Tue Mar 14 2023 18:11:00 GMT-0700 (Pacific Daylight Time)","461044","Untrustworthy,Trustworthy","","null","","","","ratingFB","","trustrating_stim/white_00757_941201_fa_edt.bmp","null","","","","","","","","","","",""
"image-keyboard-response","7","16985","0.0-6.0-1.1","63d007388da4ef5b301762f9","bdp_trlrn","Tue Mar 14 2023 18:11:00 GMT-0700 (Pacific Daylight Time)","461044","Untrustworthy,Trustworthy","","1819","","","","rating","","trustrating_stim/white_00659_941121_fa_edt.bmp","4","","","","","","","","","","",""
"image-keyboard-response","8","17188","0.0-6.0-2.1","63d007388da4ef5b301762f9","bdp_trlrn","Tue Mar 14 2023 18:11:00 GMT-0700 (Pacific Daylight Time)","461044","Untrustworthy,Trustworthy","","null","","","","ratingFB","","trustrating_stim/white_00659_941121_fa_edt.bmp","null","","","","","","","","","","",""
"image-keyboard-response","9","19533","0.0-6.0-1.2","63d007388da4ef5b301762f9","bdp_trlrn","Tue Mar 14 2023 18:11:00 GMT-0700 (Pacific Daylight Time)","461044","Untrustworthy,Trustworthy","","2235","","","","rating","","trustrating_stim/white_mw089.bmp","1","","","","","","","","","","",""
"image-keyboard-response","10","19737","0.0-6.0-2.2","63d007388da4ef5b301762f9","bdp_trlrn","Tue Mar 14 2023 18:11:00 GMT-0700 (Pacific Daylight Time)","461044","Untrustworthy,Trustworthy","","null","","","","ratingFB","","trustrating_stim/white_mw089.bmp","null","","","","","","","","","","",""
"image-keyboard-response","11","21739","0.0-6.0-1.3","63d007388da4ef5b301762f9","bdp_trlrn","Tue Mar 14 2023 18:11:00 GMT-0700 (Pacific Daylight Time)","461044","Untrustworthy,Trustworthy","","1891","","","","rating","","trustrating_stim/white_mw099.bmp","6","","","","","","","","","","",""
"image-keyboard-response","12","21949","0.0-6.0-2.3","63d007388da4ef5b301762f9","bdp_trlrn","Tue Mar 14 2023 18:11:00 GMT-0700 (Pacific Daylight Time)","461044","Untrustworthy,Trustworthy","","null","","","","ratingFB","","trustrating_stim/white_mw099.bmp","null","","","","","","","","","","",""
"image-keyboard-response","13","24197","0.0-6.0-1.4","63d007388da4ef5b301762f9","bdp_trlrn","Tue Mar 14 2023 18:11:00 GMT-0700 (Pacific Daylight Time)","461044","Untrustworthy,Trustworthy","","2139","","","","rating","","trustrating_stim/white_00577_940928_fa_edt.bmp","6","","","","","","","","","","",""
"image-keyboard-response","14","24409","0.0-6.0-2.4","63d007388da4ef5b301762f9","bdp_trlrn","Tue Mar 14 2023 18:11:00 GMT-0700 (Pacific Daylight Time)","461044","Untrustworthy,Trustworthy","","null","","","","ratingFB","","trustrating_stim/white_00577_940928_fa_edt.bmp","null","","","","","","","","","","",""
"image-keyboard-response","15","26413","0.0-6.0-1.5","63d007388da4ef5b301762f9","bdp_trlrn","Tue Mar 14 2023 18:11:00 GMT-0700 (Pacific Daylight Time)","461044","Untrustworthy,Trustworthy","","1903","","","","rating","","trustrating_stim/white_mw097.bmp","5","","","","","","","","","","",""
"image-keyboard-response","16","26626","0.0-6.0-2.5","63d007388da4ef5b301762f9","bdp_trlrn","Tue Mar 14 2023 18:11:00 GMT-0700 (Pacific Daylight Time)","461044","Untrustworthy,Trustworthy","","null","","","","ratingFB","","trustrating_stim/white_mw097.bmp","null","","","","","","","","","","",""
"image-keyboard-response","17","28210","0.0-6.0-1.6","63d007388da4ef5b301762f9","bdp_trlrn","Tue Mar 14 2023 18:11:00 GMT-0700 (Pacific Daylight Time)","461044","Untrustworthy,Trustworthy","","1482","","","","rating","","trustrating_stim/white_mw035.bmp","7","","","","","","","","","","",""
"image-keyboard-response","18","28412","0.0-6.0-2.6","63d007388da4ef5b301762f9","bdp_trlrn","Tue Mar 14 2023 18:11:00 GMT-0700 (Pacific Daylight Time)","461044","Untrustworthy,Trustworthy","","null","","","","ratingFB","","trustrating_stim/white_mw035.bmp","null","","","","","","","","","","",""
"image-keyboard-response","19","29881","0.0-6.0-1.7","63d007388da4ef5b301762f9","bdp_trlrn","Tue Mar 14 2023 18:11:00 GMT-0700 (Pacific Daylight Time)","461044","Untrustworthy,Trustworthy","","1359","","","","rating","","trustrating_stim/white_00129_931230_fb_edt.bmp","9","","","","","","","","","","",""
"image-keyboard-response","20","30081","0.0-6.0-2.7","63d007388da4ef5b301762f9","bdp_trlrn","Tue Mar 14 2023 18:11:00 GMT-0700 (Pacific Daylight Time)","461044","Untrustworthy,Trustworthy","","null","","","","ratingFB","","trustrating_stim/white_00129_931230_fb_edt.bmp","null","","","","","","","","","","",""
"image-keyboard-response","21","31965","0.0-6.0-1.8","63d007388da4ef5b301762f9","bdp_trlrn","Tue Mar 14 2023 18:11:00 GMT-0700 (Pacific Daylight Time)","461044","Untrustworthy,Trustworthy","","1783","","","","rating","","trustrating_stim/white_00898_960530_fa_edt.bmp","7","","","","","","","","","","",""
"image-keyboard-response","22","32166","0.0-6.0-2.8","63d007388da4ef5b301762f9","bdp_trlrn","Tue Mar 14 2023 18:11:00 GMT-0700 (Pacific Daylight Time)","461044","Untrustworthy,Trustworthy","","null","","","","ratingFB","","trustrating_stim/white_00898_960530_fa_edt.bmp","null","","","","","","","","","","",""
"image-keyboard-response","23","34578","0.0-6.0-1.9","63d007388da4ef5b301762f9","bdp_trlrn","Tue Mar 14 2023 18:11:00 GMT-0700 (Pacific Daylight Time)","461044","Untrustworthy,Trustworthy","","2311","","","","rating","","trustrating_stim/white_00602_940928_fb_edt.bmp","5","","","","","","","","","","",""
"image-keyboard-response","24","34779","0.0-6.0-2.9","63d007388da4ef5b301762f9","bdp_trlrn","Tue Mar 14 2023 18:11:00 GMT-0700 (Pacific Daylight Time)","461044","Untrustworthy,Trustworthy","","null","","","","ratingFB","","trustrating_stim/white_00602_940928_fb_edt.bmp","null","","","","","","","","","","",""
"image-keyboard-response","25","36883","0.0-6.0-1.10","63d007388da4ef5b301762f9","bdp_trlrn","Tue Mar 14 2023 18:11:00 GMT-0700 (Pacific Daylight Time)","461044","Untrustworthy,Trustworthy","","2003","","","","rating","","trustrating_stim/white_00299_940422_fa_edt.bmp","5","","","","","","","","","","",""
"image-keyboard-response","26","37085","0.0-6.0-2.10","63d007388da4ef5b301762f9","bdp_trlrn","Tue Mar 14 2023 18:11:00 GMT-0700 (Pacific Daylight Time)","461044","Untrustworthy,Trustworthy","","null","","","","ratingFB","","trustrating_stim/white_00299_940422_fa_edt.bmp","null","","","","","","","","","","",""
"image-keyboard-response","27","38878","0.0-6.0-1.11","63d007388da4ef5b301762f9","bdp_trlrn","Tue Mar 14 2023 18:11:00 GMT-0700 (Pacific Daylight Time)","461044","Untrustworthy,Trustworthy","","1691","","","","rating","","trustrating_stim/white_00519_940519_fb_edt.bmp","3","","","","","","","","","","",""
"image-keyboard-response","28","39092","0.0-6.0-2.11","63d007388da4ef5b301762f9","bdp_trlrn","Tue Mar 14 2023 18:11:00 GMT-0700 (Pacific Daylight Time)","461044","Untrustworthy,Trustworthy","","null","","","","ratingFB","","trustrating_stim/white_00519_940519_fb_edt.bmp","null","","","","","","","","","","",""
"image-keyboard-response","29","40922","0.0-6.0-1.12","63d007388da4ef5b301762f9","bdp_trlrn","Tue Mar 14 2023 18:11:00 GMT-0700 (Pacific Daylight Time)","461044","Untrustworthy,Trustworthy","","1729","","","","rating","","trustrating_stim/white_mw063.bmp","2","","","","","","","","","","",""
"image-keyboard-response","30","41124","0.0-6.0-2.12","63d007388da4ef5b301762f9","bdp_trlrn","Tue Mar 14 2023 18:11:00 GMT-0700 (Pacific Daylight Time)","461044","Untrustworthy,Trustworthy","","null","","","","ratingFB","","trustrating_stim/white_mw063.bmp","null","","","","","","","","","","",""
"image-keyboard-response","31","42520","0.0-6.0-1.13","63d007388da4ef5b301762f9","bdp_trlrn","Tue Mar 14 2023 18:11:00 GMT-0700 (Pacific Daylight Time)","461044","Untrustworthy,Trustworthy","","1295","","","","rating","","trustrating_stim/white_00340_940422_fa_edt.bmp","7","","","","","","","","","","",""
"image-keyboard-response","32","42721","0.0-6.0-2.13","63d007388da4ef5b301762f9","bdp_trlrn","Tue Mar 14 2023 18:11:00 GMT-0700 (Pacific Daylight Time)","461044","Untrustworthy,Trustworthy","","null","","","","ratingFB","","trustrating_stim/white_00340_940422_fa_edt.bmp","null","","","","","","","","","","",""
"image-keyboard-response","33","45083","0.0-6.0-1.14","63d007388da4ef5b301762f9","bdp_trlrn","Tue Mar 14 2023 18:11:00 GMT-0700 (Pacific Daylight Time)","461044","Untrustworthy,Trustworthy","","2262","","","","rating","","trustrating_stim/white_00761_941201_fb_edt.bmp","4","","","","","","","","","","",""
"image-keyboard-response","34","45285","0.0-6.0-2.14","63d007388da4ef5b301762f9","bdp_trlrn","Tue Mar 14 2023 18:11:00 GMT-0700 (Pacific Daylight Time)","461044","Untrustworthy,Trustworthy","","null","","","","ratingFB","","trustrating_stim/white_00761_941201_fb_edt.bmp","null","","","","","","","","","","",""
"image-keyboard-response","35","46652","0.0-6.0-1.15","63d007388da4ef5b301762f9","bdp_trlrn","Tue Mar 14 2023 18:11:00 GMT-0700 (Pacific Daylight Time)","461044","Untrustworthy,Trustworthy","","1267","","","","rating","","trustrating_stim/white_mw049.bmp","8","","","","","","","","","","",""
"image-keyboard-response","36","46853","0.0-6.0-2.15","63d007388da4ef5b301762f9","bdp_trlrn","Tue Mar 14 2023 18:11:00 GMT-0700 (Pacific Daylight Time)","461044","Untrustworthy,Trustworthy","","null","","","","ratingFB","","trustrating_stim/white_mw049.bmp","null","","","","","","","","","","",""
"image-keyboard-response","37","49125","0.0-6.0-1.16","63d007388da4ef5b301762f9","bdp_trlrn","Tue Mar 14 2023 18:11:00 GMT-0700 (Pacific Daylight Time)","461044","Untrustworthy,Trustworthy","","2171","","","","rating","","trustrating_stim/white_00807_941205_fb_edt.bmp","5","","","","","","","","","","",""
"image-keyboard-response","38","49327","0.0-6.0-2.16","63d007388da4ef5b301762f9","bdp_trlrn","Tue Mar 14 2023 18:11:00 GMT-0700 (Pacific Daylight Time)","461044","Untrustworthy,Trustworthy","","null","","","","ratingFB","","trustrating_stim/white_00807_941205_fb_edt.bmp","null","","","","","","","","","","",""
"image-keyboard-response","39","51182","0.0-6.0-1.17","63d007388da4ef5b301762f9","bdp_trlrn","Tue Mar 14 2023 18:11:00 GMT-0700 (Pacific Daylight Time)","461044","Untrustworthy,Trustworthy","","1754","","","","rating","","trustrating_stim/white_00109_931230_fa_edt.bmp","9","","","","","","","","","","",""
"image-keyboard-response","40","51383","0.0-6.0-2.17","63d007388da4ef5b301762f9","bdp_trlrn","Tue Mar 14 2023 18:11:00 GMT-0700 (Pacific Daylight Time)","461044","Untrustworthy,Trustworthy","","null","","","","ratingFB","","trustrating_stim/white_00109_931230_fa_edt.bmp","null","","","","","","","","","","",""
"image-keyboard-response","41","52978","0.0-6.0-1.18","63d007388da4ef5b301762f9","bdp_trlrn","Tue Mar 14 2023 18:11:00 GMT-0700 (Pacific Daylight Time)","461044","Untrustworthy,Trustworthy","","1493","","","","rating","","trustrating_stim/white_mw046.bmp","6","","","","","","","","","","",""
"image-keyboard-response","42","53180","0.0-6.0-2.18","63d007388da4ef5b301762f9","bdp_trlrn","Tue Mar 14 2023 18:11:00 GMT-0700 (Pacific Daylight Time)","461044","Untrustworthy,Trustworthy","","null","","","","ratingFB","","trustrating_stim/white_mw046.bmp","null","","","","","","","","","","",""
"image-keyboard-response","43","54568","0.0-6.0-1.19","63d007388da4ef5b301762f9","bdp_trlrn","Tue Mar 14 2023 18:11:00 GMT-0700 (Pacific Daylight Time)","461044","Untrustworthy,Trustworthy","","1286","","","","rating","","trustrating_stim/white_mw033.bmp","7","","","","","","","","","","",""
"image-keyboard-response","44","54784","0.0-6.0-2.19","63d007388da4ef5b301762f9","bdp_trlrn","Tue Mar 14 2023 18:11:00 GMT-0700 (Pacific Daylight Time)","461044","Untrustworthy,Trustworthy","","null","","","","ratingFB","","trustrating_stim/white_mw033.bmp","null","","","","","","","","","","",""
"image-keyboard-response","45","57703","0.0-6.0-1.20","63d007388da4ef5b301762f9","bdp_trlrn","Tue Mar 14 2023 18:11:00 GMT-0700 (Pacific Daylight Time)","461044","Untrustworthy,Trustworthy","","2819","","","","rating","","trustrating_stim/white_mw053.bmp","7","","","","","","","","","","",""
"image-keyboard-response","46","57905","0.0-6.0-2.20","63d007388da4ef5b301762f9","bdp_trlrn","Tue Mar 14 2023 18:11:00 GMT-0700 (Pacific Daylight Time)","461044","Untrustworthy,Trustworthy","","null","","","","ratingFB","","trustrating_stim/white_mw053.bmp","null","","","","","","","","","","",""
"image-keyboard-response","47","60092","0.0-6.0-1.21","63d007388da4ef5b301762f9","bdp_trlrn","Tue Mar 14 2023 18:11:00 GMT-0700 (Pacific Daylight Time)","461044","Untrustworthy,Trustworthy","","2086","","","","rating","","trustrating_stim/white_mw048.bmp","6","","","","","","","","","","",""
"image-keyboard-response","48","60294","0.0-6.0-2.21","63d007388da4ef5b301762f9","bdp_trlrn","Tue Mar 14 2023 18:11:00 GMT-0700 (Pacific Daylight Time)","461044","Untrustworthy,Trustworthy","","null","","","","ratingFB","","trustrating_stim/white_mw048.bmp","null","","","","","","","","","","",""
"image-keyboard-response","49","62151","0.0-6.0-1.22","63d007388da4ef5b301762f9","bdp_trlrn","Tue Mar 14 2023 18:11:00 GMT-0700 (Pacific Daylight Time)","461044","Untrustworthy,Trustworthy","","1756","","","","rating","","trustrating_stim/white_mw066.bmp","6","","","","","","","","","","",""
"image-keyboard-response","50","62353","0.0-6.0-2.22","63d007388da4ef5b301762f9","bdp_trlrn","Tue Mar 14 2023 18:11:00 GMT-0700 (Pacific Daylight Time)","461044","Untrustworthy,Trustworthy","","null","","","","ratingFB","","trustrating_stim/white_mw066.bmp","null","","","","","","","","","","",""
"image-keyboard-response","51","63740","0.0-6.0-1.23","63d007388da4ef5b301762f9","bdp_trlrn","Tue Mar 14 2023 18:11:00 GMT-0700 (Pacific Daylight Time)","461044","Untrustworthy,Trustworthy","","1286","","","","rating","","trustrating_stim/white_mw071.bmp","4","","","","","","","","","","",""
"image-keyboard-response","52","63942","0.0-6.0-2.23","63d007388da4ef5b301762f9","bdp_trlrn","Tue Mar 14 2023 18:11:00 GMT-0700 (Pacific Daylight Time)","461044","Untrustworthy,Trustworthy","","null","","","","ratingFB","","trustrating_stim/white_mw071.bmp","null","","","","","","","","","","",""
"image-keyboard-response","53","65790","0.0-6.0-1.24","63d007388da4ef5b301762f9","bdp_trlrn","Tue Mar 14 2023 18:11:00 GMT-0700 (Pacific Daylight Time)","461044","Untrustworthy,Trustworthy","","1747","","","","rating","","trustrating_stim/white_00223_940128_fb_edt.bmp","5","","","","","","","","","","",""
"image-keyboard-response","54","65990","0.0-6.0-2.24","63d007388da4ef5b301762f9","bdp_trlrn","Tue Mar 14 2023 18:11:00 GMT-0700 (Pacific Daylight Time)","461044","Untrustworthy,Trustworthy","","null","","","","ratingFB","","trustrating_stim/white_00223_940128_fb_edt.bmp","null","","","","","","","","","","",""
"image-keyboard-response","55","67199","0.0-6.0-1.25","63d007388da4ef5b301762f9","bdp_trlrn","Tue Mar 14 2023 18:11:00 GMT-0700 (Pacific Daylight Time)","461044","Untrustworthy,Trustworthy","","1107","","","","rating","","trustrating_stim/white_00785_941205_fb_edt.bmp","4","","","","","","","","","","",""
"image-keyboard-response","56","67401","0.0-6.0-2.25","63d007388da4ef5b301762f9","bdp_trlrn","Tue Mar 14 2023 18:11:00 GMT-0700 (Pacific Daylight Time)","461044","Untrustworthy,Trustworthy","","null","","","","ratingFB","","trustrating_stim/white_00785_941205_fb_edt.bmp","null","","","","","","","","","","",""
"image-keyboard-response","57","70389","0.0-6.0-1.26","63d007388da4ef5b301762f9","bdp_trlrn","Tue Mar 14 2023 18:11:00 GMT-0700 (Pacific Daylight Time)","461044","Untrustworthy,Trustworthy","","2887","","","","rating","","trustrating_stim/white_mw056.bmp","7","","","","","","","","","","",""
"image-keyboard-response","58","70591","0.0-6.0-2.26","63d007388da4ef5b301762f9","bdp_trlrn","Tue Mar 14 2023 18:11:00 GMT-0700 (Pacific Daylight Time)","461044","Untrustworthy,Trustworthy","","null","","","","ratingFB","","trustrating_stim/white_mw056.bmp","null","","","","","","","","","","",""
"image-keyboard-response","59","72768","0.0-6.0-1.27","63d007388da4ef5b301762f9","bdp_trlrn","Tue Mar 14 2023 18:11:00 GMT-0700 (Pacific Daylight Time)","461044","Untrustworthy,Trustworthy","","2076","","","","rating","","trustrating_stim/white_mw084.bmp","3","","","","","","","","","","",""
"image-keyboard-response","60","72970","0.0-6.0-2.27","63d007388da4ef5b301762f9","bdp_trlrn","Tue Mar 14 2023 18:11:00 GMT-0700 (Pacific Daylight Time)","461044","Untrustworthy,Trustworthy","","null","","","","ratingFB","","trustrating_stim/white_mw084.bmp","null","","","","","","","","","","",""
"image-keyboard-response","61","74673","0.0-6.0-1.28","63d007388da4ef5b301762f9","bdp_trlrn","Tue Mar 14 2023 18:11:00 GMT-0700 (Pacific Daylight Time)","461044","Untrustworthy,Trustworthy","","1601","","","","rating","","trustrating_stim/white_00120_931230_fa_edt.bmp","5","","","","","","","","","","",""
"image-keyboard-response","62","74875","0.0-6.0-2.28","63d007388da4ef5b301762f9","bdp_trlrn","Tue Mar 14 2023 18:11:00 GMT-0700 (Pacific Daylight Time)","461044","Untrustworthy,Trustworthy","","null","","","","ratingFB","","trustrating_stim/white_00120_931230_fa_edt.bmp","null","","","","","","","","","","",""
"image-keyboard-response","63","75880","0.0-6.0-1.29","63d007388da4ef5b301762f9","bdp_trlrn","Tue Mar 14 2023 18:11:00 GMT-0700 (Pacific Daylight Time)","461044","Untrustworthy,Trustworthy","","904","","","","rating","","trustrating_stim/white_mw060.bmp","5","","","","","","","","","","",""
"image-keyboard-response","64","76081","0.0-6.0-2.29","63d007388da4ef5b301762f9","bdp_trlrn","Tue Mar 14 2023 18:11:00 GMT-0700 (Pacific Daylight Time)","461044","Untrustworthy,Trustworthy","","null","","","","ratingFB","","trustrating_stim/white_mw060.bmp","null","","","","","","","","","","",""
"image-keyboard-response","65","77230","0.0-6.0-1.30","63d007388da4ef5b301762f9","bdp_trlrn","Tue Mar 14 2023 18:11:00 GMT-0700 (Pacific Daylight Time)","461044","Untrustworthy,Trustworthy","","1048","","","","rating","","trustrating_stim/white_mw053.bmp","6","","","","","","","","","","",""
"image-keyboard-response","66","77431","0.0-6.0-2.30","63d007388da4ef5b301762f9","bdp_trlrn","Tue Mar 14 2023 18:11:00 GMT-0700 (Pacific Daylight Time)","461044","Untrustworthy,Trustworthy","","null","","","","ratingFB","","trustrating_stim/white_mw053.bmp","null","","","","","","","","","","",""
"image-keyboard-response","67","78510","0.0-6.0-1.31","63d007388da4ef5b301762f9","bdp_trlrn","Tue Mar 14 2023 18:11:00 GMT-0700 (Pacific Daylight Time)","461044","Untrustworthy,Trustworthy","","978","","","","rating","","trustrating_stim/white_00299_940422_fa_edt.bmp","8","","","","","","","","","","",""
"image-keyboard-response","68","78712","0.0-6.0-2.31","63d007388da4ef5b301762f9","bdp_trlrn","Tue Mar 14 2023 18:11:00 GMT-0700 (Pacific Daylight Time)","461044","Untrustworthy,Trustworthy","","null","","","","ratingFB","","trustrating_stim/white_00299_940422_fa_edt.bmp","null","","","","","","","","","","",""
"image-keyboard-response","69","80380","0.0-6.0-1.32","63d007388da4ef5b301762f9","bdp_trlrn","Tue Mar 14 2023 18:11:00 GMT-0700 (Pacific Daylight Time)","461044","Untrustworthy,Trustworthy","","1566","","","","rating","","trustrating_stim/white_mw089.bmp","7","","","","","","","","","","",""
"image-keyboard-response","70","80581","0.0-6.0-2.32","63d007388da4ef5b301762f9","bdp_trlrn","Tue Mar 14 2023 18:11:00 GMT-0700 (Pacific Daylight Time)","461044","Untrustworthy,Trustworthy","","null","","","","ratingFB","","trustrating_stim/white_mw089.bmp","null","","","","","","","","","","",""
"image-keyboard-response","71","82310","0.0-6.0-1.33","63d007388da4ef5b301762f9","bdp_trlrn","Tue Mar 14 2023 18:11:00 GMT-0700 (Pacific Daylight Time)","461044","Untrustworthy,Trustworthy","","1627","","","","rating","","trustrating_stim/white_00109_931230_fa_edt.bmp","6","","","","","","","","","","",""
"image-keyboard-response","72","82511","0.0-6.0-2.33","63d007388da4ef5b301762f9","bdp_trlrn","Tue Mar 14 2023 18:11:00 GMT-0700 (Pacific Daylight Time)","461044","Untrustworthy,Trustworthy","","null","","","","ratingFB","","trustrating_stim/white_00109_931230_fa_edt.bmp","null","","","","","","","","","","",""
"image-keyboard-response","73","84640","0.0-6.0-1.34","63d007388da4ef5b301762f9","bdp_trlrn","Tue Mar 14 2023 18:11:00 GMT-0700 (Pacific Daylight Time)","461044","Untrustworthy,Trustworthy","","2026","","","","rating","","trustrating_stim/white_mw099.bmp","6","","","","","","","","","","",""
"image-keyboard-response","74","84841","0.0-6.0-2.34","63d007388da4ef5b301762f9","bdp_trlrn","Tue Mar 14 2023 18:11:00 GMT-0700 (Pacific Daylight Time)","461044","Untrustworthy,Trustworthy","","null","","","","ratingFB","","trustrating_stim/white_mw099.bmp","null","","","","","","","","","","",""
"image-keyboard-response","75","88063","0.0-6.0-1.35","63d007388da4ef5b301762f9","bdp_trlrn","Tue Mar 14 2023 18:11:00 GMT-0700 (Pacific Daylight Time)","461044","Untrustworthy,Trustworthy","","3120","","","","rating","","trustrating_stim/white_mw097.bmp","5","","","","","","","","","","",""
"image-keyboard-response","76","88264","0.0-6.0-2.35","63d007388da4ef5b301762f9","bdp_trlrn","Tue Mar 14 2023 18:11:00 GMT-0700 (Pacific Daylight Time)","461044","Untrustworthy,Trustworthy","","null","","","","ratingFB","","trustrating_stim/white_mw097.bmp","null","","","","","","","","","","",""
"image-keyboard-response","77","90349","0.0-6.0-1.36","63d007388da4ef5b301762f9","bdp_trlrn","Tue Mar 14 2023 18:11:00 GMT-0700 (Pacific Daylight Time)","461044","Untrustworthy,Trustworthy","","1984","","","","rating","","trustrating_stim/white_mw084.bmp","7","","","","","","","","","","",""
"image-keyboard-response","78","90549","0.0-6.0-2.36","63d007388da4ef5b301762f9","bdp_trlrn","Tue Mar 14 2023 18:11:00 GMT-0700 (Pacific Daylight Time)","461044","Untrustworthy,Trustworthy","","null","","","","ratingFB","","trustrating_stim/white_mw084.bmp","null","","","","","","","","","","",""
"image-keyboard-response","79","93834","0.0-6.0-1.37","63d007388da4ef5b301762f9","bdp_trlrn","Tue Mar 14 2023 18:11:00 GMT-0700 (Pacific Daylight Time)","461044","Untrustworthy,Trustworthy","","3182","","","","rating","","trustrating_stim/white_mw046.bmp","2","","","","","","","","","","",""
"image-keyboard-response","80","94035","0.0-6.0-2.37","63d007388da4ef5b301762f9","bdp_trlrn","Tue Mar 14 2023 18:11:00 GMT-0700 (Pacific Daylight Time)","461044","Untrustworthy,Trustworthy","","null","","","","ratingFB","","trustrating_stim/white_mw046.bmp","null","","","","","","","","","","",""
"image-keyboard-response","81","96047","0.0-6.0-1.38","63d007388da4ef5b301762f9","bdp_trlrn","Tue Mar 14 2023 18:11:00 GMT-0700 (Pacific Daylight Time)","461044","Untrustworthy,Trustworthy","","1911","","","","rating","","trustrating_stim/white_00602_940928_fb_edt.bmp","6","","","","","","","","","","",""
"image-keyboard-response","82","96252","0.0-6.0-2.38","63d007388da4ef5b301762f9","bdp_trlrn","Tue Mar 14 2023 18:11:00 GMT-0700 (Pacific Daylight Time)","461044","Untrustworthy,Trustworthy","","null","","","","ratingFB","","trustrating_stim/white_00602_940928_fb_edt.bmp","null","","","","","","","","","","",""
"image-keyboard-response","83","99051","0.0-6.0-1.39","63d007388da4ef5b301762f9","bdp_trlrn","Tue Mar 14 2023 18:11:00 GMT-0700 (Pacific Daylight Time)","461044","Untrustworthy,Trustworthy","","2698","","","","rating","","trustrating_stim/white_00757_941201_fa_edt.bmp","7","","","","","","","","","","",""
"image-keyboard-response","84","99252","0.0-6.0-2.39","63d007388da4ef5b301762f9","bdp_trlrn","Tue Mar 14 2023 18:11:00 GMT-0700 (Pacific Daylight Time)","461044","Untrustworthy,Trustworthy","","null","","","","ratingFB","","trustrating_stim/white_00757_941201_fa_edt.bmp","null","","","","","","","","","","",""
"image-keyboard-response","85","101520","0.0-6.0-1.40","63d007388da4ef5b301762f9","bdp_trlrn","Tue Mar 14 2023 18:11:00 GMT-0700 (Pacific Daylight Time)","461044","Untrustworthy,Trustworthy","","2166","","","","rating","","trustrating_stim/white_mw060.bmp","2","","","","","","","","","","",""
"image-keyboard-response","86","101721","0.0-6.0-2.40","63d007388da4ef5b301762f9","bdp_trlrn","Tue Mar 14 2023 18:11:00 GMT-0700 (Pacific Daylight Time)","461044","Untrustworthy,Trustworthy","","null","","","","ratingFB","","trustrating_stim/white_mw060.bmp","null","","","","","","","","","","",""
"image-keyboard-response","87","104559","0.0-6.0-1.41","63d007388da4ef5b301762f9","bdp_trlrn","Tue Mar 14 2023 18:11:00 GMT-0700 (Pacific Daylight Time)","461044","Untrustworthy,Trustworthy","","2736","","","","rating","","trustrating_stim/white_00785_941205_fb_edt.bmp","2","","","","","","","","","","",""
"image-keyboard-response","88","104761","0.0-6.0-2.41","63d007388da4ef5b301762f9","bdp_trlrn","Tue Mar 14 2023 18:11:00 GMT-0700 (Pacific Daylight Time)","461044","Untrustworthy,Trustworthy","","null","","","","ratingFB","","trustrating_stim/white_00785_941205_fb_edt.bmp","null","","","","","","","","","","",""
"image-keyboard-response","89","105979","0.0-6.0-1.42","63d007388da4ef5b301762f9","bdp_trlrn","Tue Mar 14 2023 18:11:00 GMT-0700 (Pacific Daylight Time)","461044","Untrustworthy,Trustworthy","","1116","","","","rating","","trustrating_stim/white_00807_941205_fb_edt.bmp","2","","","","","","","","","","",""
"image-keyboard-response","90","106180","0.0-6.0-2.42","63d007388da4ef5b301762f9","bdp_trlrn","Tue Mar 14 2023 18:11:00 GMT-0700 (Pacific Daylight Time)","461044","Untrustworthy,Trustworthy","","null","","","","ratingFB","","trustrating_stim/white_00807_941205_fb_edt.bmp","null","","","","","","","","","","",""
"image-keyboard-response","91","107728","0.0-6.0-1.43","63d007388da4ef5b301762f9","bdp_trlrn","Tue Mar 14 2023 18:11:00 GMT-0700 (Pacific Daylight Time)","461044","Untrustworthy,Trustworthy","","1447","","","","rating","","trustrating_stim/white_mw035.bmp","7","","","","","","","","","","",""
"image-keyboard-response","92","107929","0.0-6.0-2.43","63d007388da4ef5b301762f9","bdp_trlrn","Tue Mar 14 2023 18:11:00 GMT-0700 (Pacific Daylight Time)","461044","Untrustworthy,Trustworthy","","null","","","","ratingFB","","trustrating_stim/white_mw035.bmp","null","","","","","","","","","","",""
"image-keyboard-response","93","109933","0.0-6.0-1.44","63d007388da4ef5b301762f9","bdp_trlrn","Tue Mar 14 2023 18:11:00 GMT-0700 (Pacific Daylight Time)","461044","Untrustworthy,Trustworthy","","1902","","","","rating","","trustrating_stim/white_mw048.bmp","4","","","","","","","","","","",""
"image-keyboard-response","94","110134","0.0-6.0-2.44","63d007388da4ef5b301762f9","bdp_trlrn","Tue Mar 14 2023 18:11:00 GMT-0700 (Pacific Daylight Time)","461044","Untrustworthy,Trustworthy","","null","","","","ratingFB","","trustrating_stim/white_mw048.bmp","null","","","","","","","","","","",""
"image-keyboard-response","95","111629","0.0-6.0-1.45","63d007388da4ef5b301762f9","bdp_trlrn","Tue Mar 14 2023 18:11:00 GMT-0700 (Pacific Daylight Time)","461044","Untrustworthy,Trustworthy","","1393","","","","rating","","trustrating_stim/white_00129_931230_fb_edt.bmp","6","","","","","","","","","","",""
"image-keyboard-response","96","111830","0.0-6.0-2.45","63d007388da4ef5b301762f9","bdp_trlrn","Tue Mar 14 2023 18:11:00 GMT-0700 (Pacific Daylight Time)","461044","Untrustworthy,Trustworthy","","null","","","","ratingFB","","trustrating_stim/white_00129_931230_fb_edt.bmp","null","","","","","","","","","","",""
"image-keyboard-response","97","112542","0.0-6.0-1.46","63d007388da4ef5b301762f9","bdp_trlrn","Tue Mar 14 2023 18:11:00 GMT-0700 (Pacific Daylight Time)","461044","Untrustworthy,Trustworthy","","611","","","","rating","","trustrating_stim/white_00577_940928_fa_edt.bmp","7","","","","","","","","","","",""
"image-keyboard-response","98","112744","0.0-6.0-2.46","63d007388da4ef5b301762f9","bdp_trlrn","Tue Mar 14 2023 18:11:00 GMT-0700 (Pacific Daylight Time)","461044","Untrustworthy,Trustworthy","","null","","","","ratingFB","","trustrating_stim/white_00577_940928_fa_edt.bmp","null","","","","","","","","","","",""
"image-keyboard-response","99","114146","0.0-6.0-1.47","63d007388da4ef5b301762f9","bdp_trlrn","Tue Mar 14 2023 18:11:00 GMT-0700 (Pacific Daylight Time)","461044","Untrustworthy,Trustworthy","","1301","","","","rating","","trustrating_stim/white_00659_941121_fa_edt.bmp","4","","","","","","","","","","",""
"image-keyboard-response","100","114347","0.0-6.0-2.47","63d007388da4ef5b301762f9","bdp_trlrn","Tue Mar 14 2023 18:11:00 GMT-0700 (Pacific Daylight Time)","461044","Untrustworthy,Trustworthy","","null","","","","ratingFB","","trustrating_stim/white_00659_941121_fa_edt.bmp","null","","","","","","","","","","",""
"image-keyboard-response","101","115376","0.0-6.0-1.48","63d007388da4ef5b301762f9","bdp_trlrn","Tue Mar 14 2023 18:11:00 GMT-0700 (Pacific Daylight Time)","461044","Untrustworthy,Trustworthy","","927","","","","rating","","trustrating_stim/white_mw033.bmp","5","","","","","","","","","","",""
"image-keyboard-response","102","115577","0.0-6.0-2.48","63d007388da4ef5b301762f9","bdp_trlrn","Tue Mar 14 2023 18:11:00 GMT-0700 (Pacific Daylight Time)","461044","Untrustworthy,Trustworthy","","null","","","","ratingFB","","trustrating_stim/white_mw033.bmp","null","","","","","","","","","","",""
"image-keyboard-response","103","116005","0.0-6.0-1.49","63d007388da4ef5b301762f9","bdp_trlrn","Tue Mar 14 2023 18:11:00 GMT-0700 (Pacific Daylight Time)","461044","Untrustworthy,Trustworthy","","324","","","","rating","","trustrating_stim/white_mw049.bmp","6","","","","","","","","","","",""
"image-keyboard-response","104","116206","0.0-6.0-2.49","63d007388da4ef5b301762f9","bdp_trlrn","Tue Mar 14 2023 18:11:00 GMT-0700 (Pacific Daylight Time)","461044","Untrustworthy,Trustworthy","","null","","","","ratingFB","","trustrating_stim/white_mw049.bmp","null","","","","","","","","","","",""
"image-keyboard-response","105","116543","0.0-6.0-1.50","63d007388da4ef5b301762f9","bdp_trlrn","Tue Mar 14 2023 18:11:00 GMT-0700 (Pacific Daylight Time)","461044","Untrustworthy,Trustworthy","","234","","","","rating","","trustrating_stim/white_mw063.bmp","7","","","","","","","","","","",""
"image-keyboard-response","106","116743","0.0-6.0-2.50","63d007388da4ef5b301762f9","bdp_trlrn","Tue Mar 14 2023 18:11:00 GMT-0700 (Pacific Daylight Time)","461044","Untrustworthy,Trustworthy","","null","","","","ratingFB","","trustrating_stim/white_mw063.bmp","null","","","","","","","","","","",""
"image-keyboard-response","107","118193","0.0-6.0-1.51","63d007388da4ef5b301762f9","bdp_trlrn","Tue Mar 14 2023 18:11:00 GMT-0700 (Pacific Daylight Time)","461044","Untrustworthy,Trustworthy","","1348","","","","rating","","trustrating_stim/white_00898_960530_fa_edt.bmp","1","","","","","","","","","","",""
"image-keyboard-response","108","118394","0.0-6.0-2.51","63d007388da4ef5b301762f9","bdp_trlrn","Tue Mar 14 2023 18:11:00 GMT-0700 (Pacific Daylight Time)","461044","Untrustworthy,Trustworthy","","null","","","","ratingFB","","trustrating_stim/white_00898_960530_fa_edt.bmp","null","","","","","","","","","","",""
"image-keyboard-response","109","119265","0.0-6.0-1.52","63d007388da4ef5b301762f9","bdp_trlrn","Tue Mar 14 2023 18:11:00 GMT-0700 (Pacific Daylight Time)","461044","Untrustworthy,Trustworthy","","770","","","","rating","","trustrating_stim/white_00761_941201_fb_edt.bmp","2","","","","","","","","","","",""
"image-keyboard-response","110","119466","0.0-6.0-2.52","63d007388da4ef5b301762f9","bdp_trlrn","Tue Mar 14 2023 18:11:00 GMT-0700 (Pacific Daylight Time)","461044","Untrustworthy,Trustworthy","","null","","","","ratingFB","","trustrating_stim/white_00761_941201_fb_edt.bmp","null","","","","","","","","","","",""
"image-keyboard-response","111","120296","0.0-6.0-1.53","63d007388da4ef5b301762f9","bdp_trlrn","Tue Mar 14 2023 18:11:00 GMT-0700 (Pacific Daylight Time)","461044","Untrustworthy,Trustworthy","","728","","","","rating","","trustrating_stim/white_00519_940519_fb_edt.bmp","4","","","","","","","","","","",""
"image-keyboard-response","112","120496","0.0-6.0-2.53","63d007388da4ef5b301762f9","bdp_trlrn","Tue Mar 14 2023 18:11:00 GMT-0700 (Pacific Daylight Time)","461044","Untrustworthy,Trustworthy","","null","","","","ratingFB","","trustrating_stim/white_00519_940519_fb_edt.bmp","null","","","","","","","","","","",""
"image-keyboard-response","113","121116","0.0-6.0-1.54","63d007388da4ef5b301762f9","bdp_trlrn","Tue Mar 14 2023 18:11:00 GMT-0700 (Pacific Daylight Time)","461044","Untrustworthy,Trustworthy","","517","","","","rating","","trustrating_stim/white_mw066.bmp","5","","","","","","","","","","",""
"image-keyboard-response","114","121317","0.0-6.0-2.54","63d007388da4ef5b301762f9","bdp_trlrn","Tue Mar 14 2023 18:11:00 GMT-0700 (Pacific Daylight Time)","461044","Untrustworthy,Trustworthy","","null","","","","ratingFB","","trustrating_stim/white_mw066.bmp","null","","","","","","","","","","",""
"image-keyboard-response","115","122322","0.0-6.0-1.55","63d007388da4ef5b301762f9","bdp_trlrn","Tue Mar 14 2023 18:11:00 GMT-0700 (Pacific Daylight Time)","461044","Untrustworthy,Trustworthy","","904","","","","rating","","trustrating_stim/white_mw056.bmp","6","","","","","","","","","","",""
"image-keyboard-response","116","122524","0.0-6.0-2.55","63d007388da4ef5b301762f9","bdp_trlrn","Tue Mar 14 2023 18:11:00 GMT-0700 (Pacific Daylight Time)","461044","Untrustworthy,Trustworthy","","null","","","","ratingFB","","trustrating_stim/white_mw056.bmp","null","","","","","","","","","","",""
"image-keyboard-response","117","125220","0.0-6.0-1.56","63d007388da4ef5b301762f9","bdp_trlrn","Tue Mar 14 2023 18:11:00 GMT-0700 (Pacific Daylight Time)","461044","Untrustworthy,Trustworthy","","2585","","","","rating","","trustrating_stim/white_00223_940128_fb_edt.bmp","7","","","","","","","","","","",""
"image-keyboard-response","118","125421","0.0-6.0-2.56","63d007388da4ef5b301762f9","bdp_trlrn","Tue Mar 14 2023 18:11:00 GMT-0700 (Pacific Daylight Time)","461044","Untrustworthy,Trustworthy","","null","","","","ratingFB","","trustrating_stim/white_00223_940128_fb_edt.bmp","null","","","","","","","","","","",""
"image-keyboard-response","119","126741","0.0-6.0-1.57","63d007388da4ef5b301762f9","bdp_trlrn","Tue Mar 14 2023 18:11:00 GMT-0700 (Pacific Daylight Time)","461044","Untrustworthy,Trustworthy","","1219","","","","rating","","trustrating_stim/white_00120_931230_fa_edt.bmp","8","","","","","","","","","","",""
"image-keyboard-response","120","126943","0.0-6.0-2.57","63d007388da4ef5b301762f9","bdp_trlrn","Tue Mar 14 2023 18:11:00 GMT-0700 (Pacific Daylight Time)","461044","Untrustworthy,Trustworthy","","null","","","","ratingFB","","trustrating_stim/white_00120_931230_fa_edt.bmp","null","","","","","","","","","","",""
"image-keyboard-response","121","128652","0.0-6.0-1.58","63d007388da4ef5b301762f9","bdp_trlrn","Tue Mar 14 2023 18:11:00 GMT-0700 (Pacific Daylight Time)","461044","Untrustworthy,Trustworthy","","1607","","","","rating","","trustrating_stim/white_00340_940422_fa_edt.bmp","5","","","","","","","","","","",""
"image-keyboard-response","122","128854","0.0-6.0-2.58","63d007388da4ef5b301762f9","bdp_trlrn","Tue Mar 14 2023 18:11:00 GMT-0700 (Pacific Daylight Time)","461044","Untrustworthy,Trustworthy","","null","","","","ratingFB","","trustrating_stim/white_00340_940422_fa_edt.bmp","null","","","","","","","","","","",""
"image-keyboard-response","123","130971","0.0-6.0-1.59","63d007388da4ef5b301762f9","bdp_trlrn","Tue Mar 14 2023 18:11:00 GMT-0700 (Pacific Daylight Time)","461044","Untrustworthy,Trustworthy","","2015","","","","rating","","trustrating_stim/white_mw071.bmp","5","","","","","","","","","","",""
"image-keyboard-response","124","131173","0.0-6.0-2.59","63d007388da4ef5b301762f9","bdp_trlrn","Tue Mar 14 2023 18:11:00 GMT-0700 (Pacific Daylight Time)","461044","Untrustworthy,Trustworthy","","null","","","","ratingFB","","trustrating_stim/white_mw071.bmp","null","","","","","","","","","","",""
"instructions","125","132683","0.0-7.0","63d007388da4ef5b301762f9","bdp_trlrn","Tue Mar 14 2023 18:11:00 GMT-0700 (Pacific Daylight Time)","461044","Untrustworthy,Trustworthy","[{""page_index"":0,""viewing_time"":1409}]","1409","","","","","","","","","","","","","","","","","",""
"instructions","126","168672","0.0-8.0","63d007388da4ef5b301762f9","bdp_trlrn","Tue Mar 14 2023 18:11:00 GMT-0700 (Pacific Daylight Time)","461044","Untrustworthy,Trustworthy","[{""page_index"":0,""viewing_time"":6587},{""page_index"":1,""viewing_time"":7721},{""page_index"":2,""viewing_time"":3961},{""page_index"":3,""viewing_time"":6580},{""page_index"":4,""viewing_time"":2955},{""page_index"":5,""viewing_time"":3844},{""page_index"":6,""viewing_time"":3151},{""page_index"":7,""viewing_time"":1089}]","35888","","","","","","","","","","","","","","","","","",""
"html-keyboard-response","127","171757","0.0-9.0","63d007388da4ef5b301762f9","bdp_trlrn","Tue Mar 14 2023 18:11:00 GMT-0700 (Pacific Daylight Time)","461044","Untrustworthy,Trustworthy","","3085","","","","","","<div class='header' style='text-align:left; position: absolute; top: 5%; left: 5%;'><small>Task 3 of 5</small></div><div class='instruxDiv'><p><strong>1) What is the minimum number of points you can choose to send to your partner?</strong></p><p>a) 0</p><p>b) 1</p><p>c) 5</p>","C","","","","","","","","","","",""
"html-keyboard-response","128","175480","0.0-10.0","63d007388da4ef5b301762f9","bdp_trlrn","Tue Mar 14 2023 18:11:00 GMT-0700 (Pacific Daylight Time)","461044","Untrustworthy,Trustworthy","","3622","","","","","","<div class='header' style='text-align:left; position: absolute; top: 5%; left: 5%;'><small>Task 3 of 5</small></div><div class='instruxDiv'><p><strong>1) What is the minimum number of points you can choose to send to your partner?</strong></p><p>a) 1</p><p>b) 1</p><p style='color:#FF0000'>c) 5</p><h3 style='color:#FF0000'>Incorrect!</h3><h3 class='center-content'>The correct response is b).</h3><h3 class='center-content'>The minimum number of points you can choose to send to your partner is 1 point.</h3><p><em>Press SPACEBAR to continue</em></p></div>"," ","","","","","","","","","","",""
"html-keyboard-response","129","181122","0.0-11.0","63d007388da4ef5b301762f9","bdp_trlrn","Tue Mar 14 2023 18:11:00 GMT-0700 (Pacific Daylight Time)","461044","Untrustworthy,Trustworthy","","5542","","","","","","<div class='header' style='text-align:left; position: absolute; top: 5%; left: 5%;'><small>Task 3 of 5</small></div><div class='instruxDiv'><p><strong>2) What is the maximum number of points you can choose to send to your partner?</strong></p><p>a) 8</p><p>b) 5</p><p>c) 3</p>","A","","","","","","","","","","",""
"html-keyboard-response","130","183189","0.0-12.0","63d007388da4ef5b301762f9","bdp_trlrn","Tue Mar 14 2023 18:11:00 GMT-0700 (Pacific Daylight Time)","461044","Untrustworthy,Trustworthy","","1966","","","","","","<div class='header' style='text-align:left; position: absolute; top: 5%; left: 5%;'><small>Task 3 of 5</small></div><div class='instruxDiv'><p><strong>2) What is the maximum number of points you can choose to send to your partner?</strong></p><p style='color:#FF0000'>a) 8</p><p>b) 5</p><p>c) 3</p><h3 style='color:#FF0000'>Incorrect!</h3><h3 class='center-content'>The correct response is b).</h3><h3 class='center-content'>The maximum number of points you can choose to send to your partner is 5 points.</h3><p><em>Press SPACEBAR to continue</em></p></div>"," ","","","","","","","","","","",""
"html-keyboard-response","131","185478","0.0-13.0","63d007388da4ef5b301762f9","bdp_trlrn","Tue Mar 14 2023 18:11:00 GMT-0700 (Pacific Daylight Time)","461044","Untrustworthy,Trustworthy","","2188","","","","","","<div class='header' style='text-align:left; position: absolute; top: 5%; left: 5%;'><small>Task 3 of 5</small></div><div class='instruxDiv'><p><strong>3) What happens to the amount of points you send to your partner?</strong></p><p>a) Nothing</p><p>b) It doubles</p><p>c) It quadruples</p>","B","","","","","","","","","","",""
"html-keyboard-response","132","186781","0.0-14.0","63d007388da4ef5b301762f9","bdp_trlrn","Tue Mar 14 2023 18:11:00 GMT-0700 (Pacific Daylight Time)","461044","Untrustworthy,Trustworthy","","1202","","","","","","<div class='header' style='text-align:left; position: absolute; top: 5%; left: 5%;'><small>Task 3 of 5</small></div><div class='instruxDiv'><p><strong>3) What happens to the amount of points you send to your partner?</strong></p><p>a) Nothing</p><p style='color:#FF0000'>b) It doubles</p><p>c) It quadruples</p><h3 style='color:#FF0000'>Incorrect!</h3><h3 class='center-content'>The correct response is c).</h3><h3 class='center-content'>The amount of points you send to your partner quadruples.</h3><p><em>Press SPACEBAR to continue</em></p></div>"," ","","","","","","","","","","",""
"html-keyboard-response","133","191698","0.0-15.0","63d007388da4ef5b301762f9","bdp_trlrn","Tue Mar 14 2023 18:11:00 GMT-0700 (Pacific Daylight Time)","461044","Untrustworthy,Trustworthy","","4816","","","","","","<div class='header' style='text-align:left; position: absolute; top: 5%; left: 5%;'><small>Task 3 of 5</small></div><div class='instruxDiv'><p><strong>4) If you decided to share 4 out of 5 points with your partner, and they decided to share half of the amount they received with you, how many points would you receive back from them on this round?</strong></p><p>a) 16</p><p>b) 0</p><p>c) 8</p>","C","","","","","","","","","","",""
"html-keyboard-response","134","192707","0.0-16.0","63d007388da4ef5b301762f9","bdp_trlrn","Tue Mar 14 2023 18:11:00 GMT-0700 (Pacific Daylight Time)","461044","Untrustworthy,Trustworthy","","907","","","","","","<div class='header' style='text-align:left; position: absolute; top: 5%; left: 5%;'><small>Task 3 of 5</small></div><div class='instruxDiv'><p><strong>4) If you decided to share 4 out of 5 points with your partner, and they decided to share half of the amount they received with you, how many points would you receive back from them on this round?</strong></p><p>a) 16</p><p>b) 0</p><p style='color:#00FF00'>c) 8</p><h3 style='color:#00FF00'>Correct!</h3><h3 class='center-content'>The correct response is c).</h3><h3 class='center-content'>If you shared 4 out of 5 points with your partner and they decided to share half of the amount they received with you, you would receive 8 points back (i.e. (4 x 4)/2 = 8).</h3><p><em>Press SPACEBAR to continue</em></p></div>"," ","","","","","","","","","","",""
"html-keyboard-response","135","197809","0.0-17.0","63d007388da4ef5b301762f9","bdp_trlrn","Tue Mar 14 2023 18:11:00 GMT-0700 (Pacific Daylight Time)","461044","Untrustworthy,Trustworthy","","null","","","","","","<div class='header' style='text-align:left; position: absolute; top: 5%; left: 5%;'><small>Task 3 of 5</small></div><div class='instruxDiv'><p>Thank you for completing the quiz<p>These are the actual partners you will be interacting with in the next block:<p><div class='tc' align='center'><img class='introPic' src='trustrating_stim/white_00519_940519_fb_edt.bmp'><br><strong>Ryan</strong></div><div class='bl' align='center'><img class='introPic' src='trustrating_stim/white_00602_940928_fb_edt.bmp'><br><strong>Benjamin</strong></div><div class='br' align='center'><img class='introPic' src='trustrating_stim/white_00109_931230_fa_edt.bmp'><br><strong>Lucas</strong></div></div><p>Across <strong>66 rounds</strong> you will interact with each partner <strong>22 times</strong> (in random order).<p style='align:center; color:white'><font <em>Press SPACEBAR to continue</em></p>","null","","","","","","","","","","",""
"instructions","136","199443","0.0-18.0","63d007388da4ef5b301762f9","bdp_trlrn","Tue Mar 14 2023 18:11:00 GMT-0700 (Pacific Daylight Time)","461044","Untrustworthy,Trustworthy","[{""page_index"":0,""viewing_time"":641},{""page_index"":1,""viewing_time"":992}]","1633","","","","","","","","","","","","","","","","","",""
"html-keyboard-response","137","202596","0.0-19.0-1.0","63d007388da4ef5b301762f9","bdp_trlrn","Tue Mar 14 2023 18:11:00 GMT-0700 (Pacific Daylight Time)","461044","Untrustworthy,Trustworthy","","3050","","","","decision","","<div class='trialDiv'><img src='trustrating_stim/white_00519_940519_fb_edt.bmp'><br><font class='baseline'><strong>Ryan</strong><p>Choose number of points to send.</font><div class='respPicDiv'><img src='img/responseButtonOffersNo0L.png' class='respPic'></div></div>","3","1","Ryan","2","Shared","0.2,0.65","13","0.2","trustrating_stim/white_00519_940519_fb_edt.bmp","3.5","5","1"
"html-keyboard-response","138","202848","0.0-19.0-2.0","63d007388da4ef5b301762f9","bdp_trlrn","Tue Mar 14 2023 18:11:00 GMT-0700 (Pacific Daylight Time)","461044","Untrustworthy,Trustworthy","","null","","","","decisionFB","","<div class='trialDiv'><img src='trustrating_stim/white_00519_940519_fb_edt.bmp'><br><font class='baseline'><strong>Ryan</strong><p>Choose number of points to send.</font><div class='respPicDiv'><img src='img/responseButtonOffersNo0L3.png' class='respPic'></div></div>","null","1","Ryan","2","Shared","0.2,0.65","13","0.2","trustrating_stim/white_00519_940519_fb_edt.bmp","3.5","2","1"
"html-keyboard-response","139","203861","0.0-19.0-3.0","63d007388da4ef5b301762f9","bdp_trlrn","Tue Mar 14 2023 18:11:00 GMT-0700 (Pacific Daylight Time)","461044","Untrustworthy,Trustworthy","","null","","","","feedback","","<div class='trialDiv'><img src='trustrating_stim/white_00519_940519_fb_edt.bmp'><br><font class='baseline'><strong>Ryan</strong><p>Received: <strong>12</strong></font> &nbsp; &nbsp; &nbsp; &nbsp; &nbsp; &nbsp;<font class='posOutcome'>Shared back: <strong>6</strong></font></font><div class='respPicDiv'><img src='img/responseButtonOffersNo0_wht.png' class='respPic'></div></div>","null","1","Ryan","2","Shared","0.2,0.65","13","0.2","trustrating_stim/white_00519_940519_fb_edt.bmp","3.5","8","1"
"html-keyboard-response","140","206305","0.0-19.0-1.1","63d007388da4ef5b301762f9","bdp_trlrn","Tue Mar 14 2023 18:11:00 GMT-0700 (Pacific Daylight Time)","461044","Untrustworthy,Trustworthy","","2443","","","","decision","","<div class='trialDiv'><img src='trustrating_stim/white_00109_931230_fa_edt.bmp'><br><font class='baseline'><strong>Lucas</strong><p>Choose number of points to send.</font><div class='respPicDiv'><img src='img/responseButtonOffersNo0L.png' class='respPic'></div></div>","5","1","Lucas","11","Kept","0.35,0.65","13","0.35","trustrating_stim/white_00109_931230_fa_edt.bmp","7.5","13","2"
"html-keyboard-response","141","206557","0.0-19.0-2.1","63d007388da4ef5b301762f9","bdp_trlrn","Tue Mar 14 2023 18:11:00 GMT-0700 (Pacific Daylight Time)","461044","Untrustworthy,Trustworthy","","null","","","","decisionFB","","<div class='trialDiv'><img src='trustrating_stim/white_00109_931230_fa_edt.bmp'><br><font class='baseline'><strong>Lucas</strong><p>Choose number of points to send.</font><div class='respPicDiv'><img src='img/responseButtonOffersNo0L5.png' class='respPic'></div></div>","null","1","Lucas","11","Kept","0.35,0.65","13","0.35","trustrating_stim/white_00109_931230_fa_edt.bmp","7.5","8","2"
"html-keyboard-response","142","207558","0.0-19.0-3.1","63d007388da4ef5b301762f9","bdp_trlrn","Tue Mar 14 2023 18:11:00 GMT-0700 (Pacific Daylight Time)","461044","Untrustworthy,Trustworthy","","null","","","","feedback","","<div class='trialDiv'><img src='trustrating_stim/white_00109_931230_fa_edt.bmp'><br><font class='baseline'><strong>Lucas</strong><p>Received: <strong>20</strong></font> &nbsp; &nbsp; &nbsp; &nbsp; &nbsp; &nbsp;<font class='negOutcome'>Shared back: <strong>0</strong></font></font><div class='respPicDiv'><img src='img/responseButtonOffersNo0_wht.png' class='respPic'></div></div>","null","1","Lucas","11","Kept","0.35,0.65","13","0.35","trustrating_stim/white_00109_931230_fa_edt.bmp","7.5","8","2"
"html-keyboard-response","143","209810","0.0-19.0-1.2","63d007388da4ef5b301762f9","bdp_trlrn","Tue Mar 14 2023 18:11:00 GMT-0700 (Pacific Daylight Time)","461044","Untrustworthy,Trustworthy","","2252","","","","decision","","<div class='trialDiv'><img src='trustrating_stim/white_00602_940928_fb_edt.bmp'><br><font class='baseline'><strong>Benjamin</strong><p>Choose number of points to send.</font><div class='respPicDiv'><img src='img/responseButtonOffersNo0L.png' class='respPic'></div></div>","2","1","Benjamin","5","Kept","0.8,0.35","10","0.8","trustrating_stim/white_00602_940928_fb_edt.bmp","5.5","13","3"
"html-keyboard-response","144","210061","0.0-19.0-2.2","63d007388da4ef5b301762f9","bdp_trlrn","Tue Mar 14 2023 18:11:00 GMT-0700 (Pacific Daylight Time)","461044","Untrustworthy,Trustworthy","","null","","","","decisionFB","","<div class='trialDiv'><img src='trustrating_stim/white_00602_940928_fb_edt.bmp'><br><font class='baseline'><strong>Benjamin</strong><p>Choose number of points to send.</font><div class='respPicDiv'><img src='img/responseButtonOffersNo0L2.png' class='respPic'></div></div>","null","1","Benjamin","5","Kept","0.8,0.35","10","0.8","trustrating_stim/white_00602_940928_fb_edt.bmp","5.5","11","3"
"html-keyboard-response","145","211063","0.0-19.0-3.2","63d007388da4ef5b301762f9","bdp_trlrn","Tue Mar 14 2023 18:11:00 GMT-0700 (Pacific Daylight Time)","461044","Untrustworthy,Trustworthy","","null","","","","feedback","","<div class='trialDiv'><img src='trustrating_stim/white_00602_940928_fb_edt.bmp'><br><font class='baseline'><strong>Benjamin</strong><p>Received: <strong>8</strong></font> &nbsp; &nbsp; &nbsp; &nbsp; &nbsp; &nbsp;<font class='negOutcome'>Shared back: <strong>0</strong></font></font><div class='respPicDiv'><img src='img/responseButtonOffersNo0_wht.png' class='respPic'></div></div>","null","1","Benjamin","5","Kept","0.8,0.35","10","0.8","trustrating_stim/white_00602_940928_fb_edt.bmp","5.5","11","3"
"html-keyboard-response","146","212080","0.0-19.0-1.3","63d007388da4ef5b301762f9","bdp_trlrn","Tue Mar 14 2023 18:11:00 GMT-0700 (Pacific Daylight Time)","461044","Untrustworthy,Trustworthy","","1016","","","","decision","","<div class='trialDiv'><img src='trustrating_stim/white_00519_940519_fb_edt.bmp'><br><font class='baseline'><strong>Ryan</strong><p>Choose number of points to send.</font><div class='respPicDiv'><img src='img/responseButtonOffersNo0L.png' class='respPic'></div></div>","4","2","Ryan","2","Kept","0.2,0.65","13","0.2","trustrating_stim/white_00519_940519_fb_edt.bmp","3.5","16","4"
"html-keyboard-response","147","212331","0.0-19.0-2.3","63d007388da4ef5b301762f9","bdp_trlrn","Tue Mar 14 2023 18:11:00 GMT-0700 (Pacific Daylight Time)","461044","Untrustworthy,Trustworthy","","null","","","","decisionFB","","<div class='trialDiv'><img src='trustrating_stim/white_00519_940519_fb_edt.bmp'><br><font class='baseline'><strong>Ryan</strong><p>Choose number of points to send.</font><div class='respPicDiv'><img src='img/responseButtonOffersNo0L4.png' class='respPic'></div></div>","null","2","Ryan","2","Kept","0.2,0.65","13","0.2","trustrating_stim/white_00519_940519_fb_edt.bmp","3.5","12","4"
"html-keyboard-response","148","213333","0.0-19.0-3.3","63d007388da4ef5b301762f9","bdp_trlrn","Tue Mar 14 2023 18:11:00 GMT-0700 (Pacific Daylight Time)","461044","Untrustworthy,Trustworthy","","null","","","","feedback","","<div class='trialDiv'><img src='trustrating_stim/white_00519_940519_fb_edt.bmp'><br><font class='baseline'><strong>Ryan</strong><p>Received: <strong>16</strong></font> &nbsp; &nbsp; &nbsp; &nbsp; &nbsp; &nbsp;<font class='negOutcome'>Shared back: <strong>0</strong></font></font><div class='respPicDiv'><img src='img/responseButtonOffersNo0_wht.png' class='respPic'></div></div>","null","2","Ryan","2","Kept","0.2,0.65","13","0.2","trustrating_stim/white_00519_940519_fb_edt.bmp","3.5","12","4"
"html-keyboard-response","149","213769","0.0-19.0-1.4","63d007388da4ef5b301762f9","bdp_trlrn","Tue Mar 14 2023 18:11:00 GMT-0700 (Pacific Daylight Time)","461044","Untrustworthy,Trustworthy","","435","","","","decision","","<div class='trialDiv'><img src='trustrating_stim/white_00109_931230_fa_edt.bmp'><br><font class='baseline'><strong>Lucas</strong><p>Choose number of points to send.</font><div class='respPicDiv'><img src='img/responseButtonOffersNo0L.png' class='respPic'></div></div>","5","2","Lucas","11","Kept","0.35,0.65","13","0.35","trustrating_stim/white_00109_931230_fa_edt.bmp","7.5","17","5"
"html-keyboard-response","150","214021","0.0-19.0-2.4","63d007388da4ef5b301762f9","bdp_trlrn","Tue Mar 14 2023 18:11:00 GMT-0700 (Pacific Daylight Time)","461044","Untrustworthy,Trustworthy","","null","","","","decisionFB","","<div class='trialDiv'><img src='trustrating_stim/white_00109_931230_fa_edt.bmp'><br><font class='baseline'><strong>Lucas</strong><p>Choose number of points to send.</font><div class='respPicDiv'><img src='img/responseButtonOffersNo0L5.png' class='respPic'></div></div>","null","2","Lucas","11","Kept","0.35,0.65","13","0.35","trustrating_stim/white_00109_931230_fa_edt.bmp","7.5","12","5"
"html-keyboard-response","151","215022","0.0-19.0-3.4","63d007388da4ef5b301762f9","bdp_trlrn","Tue Mar 14 2023 18:11:00 GMT-0700 (Pacific Daylight Time)","461044","Untrustworthy,Trustworthy","","null","","","","feedback","","<div class='trialDiv'><img src='trustrating_stim/white_00109_931230_fa_edt.bmp'><br><font class='baseline'><strong>Lucas</strong><p>Received: <strong>20</strong></font> &nbsp; &nbsp; &nbsp; &nbsp; &nbsp; &nbsp;<font class='negOutcome'>Shared back: <strong>0</strong></font></font><div class='respPicDiv'><img src='img/responseButtonOffersNo0_wht.png' class='respPic'></div></div>","null","2","Lucas","11","Kept","0.35,0.65","13","0.35","trustrating_stim/white_00109_931230_fa_edt.bmp","7.5","12","5"
"html-keyboard-response","152","215436","0.0-19.0-1.5","63d007388da4ef5b301762f9","bdp_trlrn","Tue Mar 14 2023 18:11:00 GMT-0700 (Pacific Daylight Time)","461044","Untrustworthy,Trustworthy","","412","","","","decision","","<div class='trialDiv'><img src='trustrating_stim/white_00602_940928_fb_edt.bmp'><br><font class='baseline'><strong>Benjamin</strong><p>Choose number of points to send.</font><div class='respPicDiv'><img src='img/responseButtonOffersNo0L.png' class='respPic'></div></div>","1","2","Benjamin","5","Shared","0.8,0.35","10","0.8","trustrating_stim/white_00602_940928_fb_edt.bmp","5.5","17","6"
"html-keyboard-response","153","215687","0.0-19.0-2.5","63d007388da4ef5b301762f9","bdp_trlrn","Tue Mar 14 2023 18:11:00 GMT-0700 (Pacific Daylight Time)","461044","Untrustworthy,Trustworthy","","null","","","","decisionFB","","<div class='trialDiv'><img src='trustrating_stim/white_00602_940928_fb_edt.bmp'><br><font class='baseline'><strong>Benjamin</strong><p>Choose number of points to send.</font><div class='respPicDiv'><img src='img/responseButtonOffersNo0L1.png' class='respPic'></div></div>","null","2","Benjamin","5","Shared","0.8,0.35","10","0.8","trustrating_stim/white_00602_940928_fb_edt.bmp","5.5","16","6"
"html-keyboard-response","154","216689","0.0-19.0-3.5","63d007388da4ef5b301762f9","bdp_trlrn","Tue Mar 14 2023 18:11:00 GMT-0700 (Pacific Daylight Time)","461044","Untrustworthy,Trustworthy","","null","","","","feedback","","<div class='trialDiv'><img src='trustrating_stim/white_00602_940928_fb_edt.bmp'><br><font class='baseline'><strong>Benjamin</strong><p>Received: <strong>4</strong></font> &nbsp; &nbsp; &nbsp; &nbsp; &nbsp; &nbsp;<font class='posOutcome'>Shared back: <strong>2</strong></font></font><div class='respPicDiv'><img src='img/responseButtonOffersNo0_wht.png' class='respPic'></div></div>","null","2","Benjamin","5","Shared","0.8,0.35","10","0.8","trustrating_stim/white_00602_940928_fb_edt.bmp","5.5","18","6"
"html-keyboard-response","155","218272","0.0-19.0-1.6","63d007388da4ef5b301762f9","bdp_trlrn","Tue Mar 14 2023 18:11:00 GMT-0700 (Pacific Daylight Time)","461044","Untrustworthy,Trustworthy","","1582","","","","decision","","<div class='trialDiv'><img src='trustrating_stim/white_00109_931230_fa_edt.bmp'><br><font class='baseline'><strong>Lucas</strong><p>Choose number of points to send.</font><div class='respPicDiv'><img src='img/responseButtonOffersNo0L.png' class='respPic'></div></div>","1","3","Lucas","11","Shared","0.35,0.65","13","0.35","trustrating_stim/white_00109_931230_fa_edt.bmp","7.5","23","7"
"html-keyboard-response","156","218524","0.0-19.0-2.6","63d007388da4ef5b301762f9","bdp_trlrn","Tue Mar 14 2023 18:11:00 GMT-0700 (Pacific Daylight Time)","461044","Untrustworthy,Trustworthy","","null","","","","decisionFB","","<div class='trialDiv'><img src='trustrating_stim/white_00109_931230_fa_edt.bmp'><br><font class='baseline'><strong>Lucas</strong><p>Choose number of points to send.</font><div class='respPicDiv'><img src='img/responseButtonOffersNo0L1.png' class='respPic'></div></div>","null","3","Lucas","11","Shared","0.35,0.65","13","0.35","trustrating_stim/white_00109_931230_fa_edt.bmp","7.5","22","7"
"html-keyboard-response","157","219525","0.0-19.0-3.6","63d007388da4ef5b301762f9","bdp_trlrn","Tue Mar 14 2023 18:11:00 GMT-0700 (Pacific Daylight Time)","461044","Untrustworthy,Trustworthy","","null","","","","feedback","","<div class='trialDiv'><img src='trustrating_stim/white_00109_931230_fa_edt.bmp'><br><font class='baseline'><strong>Lucas</strong><p>Received: <strong>4</strong></font> &nbsp; &nbsp; &nbsp; &nbsp; &nbsp; &nbsp;<font class='posOutcome'>Shared back: <strong>2</strong></font></font><div class='respPicDiv'><img src='img/responseButtonOffersNo0_wht.png' class='respPic'></div></div>","null","3","Lucas","11","Shared","0.35,0.65","13","0.35","trustrating_stim/white_00109_931230_fa_edt.bmp","7.5","24","7"
"html-keyboard-response","158","219765","0.0-19.0-1.7","63d007388da4ef5b301762f9","bdp_trlrn","Tue Mar 14 2023 18:11:00 GMT-0700 (Pacific Daylight Time)","461044","Untrustworthy,Trustworthy","","240","","","","decision","","<div class='trialDiv'><img src='trustrating_stim/white_00519_940519_fb_edt.bmp'><br><font class='baseline'><strong>Ryan</strong><p>Choose number of points to send.</font><div class='respPicDiv'><img src='img/responseButtonOffersNo0L.png' class='respPic'></div></div>","1","3","Ryan","2","Kept","0.2,0.65","13","0.2","trustrating_stim/white_00519_940519_fb_edt.bmp","3.5","29","8"
"html-keyboard-response","159","220016","0.0-19.0-2.7","63d007388da4ef5b301762f9","bdp_trlrn","Tue Mar 14 2023 18:11:00 GMT-0700 (Pacific Daylight Time)","461044","Untrustworthy,Trustworthy","","null","","","","decisionFB","","<div class='trialDiv'><img src='trustrating_stim/white_00519_940519_fb_edt.bmp'><br><font class='baseline'><strong>Ryan</strong><p>Choose number of points to send.</font><div class='respPicDiv'><img src='img/responseButtonOffersNo0L1.png' class='respPic'></div></div>","null","3","Ryan","2","Kept","0.2,0.65","13","0.2","trustrating_stim/white_00519_940519_fb_edt.bmp","3.5","28","8"
"html-keyboard-response","160","221018","0.0-19.0-3.7","63d007388da4ef5b301762f9","bdp_trlrn","Tue Mar 14 2023 18:11:00 GMT-0700 (Pacific Daylight Time)","461044","Untrustworthy,Trustworthy","","null","","","","feedback","","<div class='trialDiv'><img src='trustrating_stim/white_00519_940519_fb_edt.bmp'><br><font class='baseline'><strong>Ryan</strong><p>Received: <strong>4</strong></font> &nbsp; &nbsp; &nbsp; &nbsp; &nbsp; &nbsp;<font class='negOutcome'>Shared back: <strong>0</strong></font></font><div class='respPicDiv'><img src='img/responseButtonOffersNo0_wht.png' class='respPic'></div></div>","null","3","Ryan","2","Kept","0.2,0.65","13","0.2","trustrating_stim/white_00519_940519_fb_edt.bmp","3.5","28","8"
"html-keyboard-response","161","222462","0.0-19.0-1.8","63d007388da4ef5b301762f9","bdp_trlrn","Tue Mar 14 2023 18:11:00 GMT-0700 (Pacific Daylight Time)","461044","Untrustworthy,Trustworthy","","1444","","","","decision","","<div class='trialDiv'><img src='trustrating_stim/white_00602_940928_fb_edt.bmp'><br><font class='baseline'><strong>Benjamin</strong><p>Choose number of points to send.</font><div class='respPicDiv'><img src='img/responseButtonOffersNo0L.png' class='respPic'></div></div>","4","3","Benjamin","5","Kept","0.8,0.35","10","0.8","trustrating_stim/white_00602_940928_fb_edt.bmp","5.5","33","9"
"html-keyboard-response","162","222714","0.0-19.0-2.8","63d007388da4ef5b301762f9","bdp_trlrn","Tue Mar 14 2023 18:11:00 GMT-0700 (Pacific Daylight Time)","461044","Untrustworthy,Trustworthy","","null","","","","decisionFB","","<div class='trialDiv'><img src='trustrating_stim/white_00602_940928_fb_edt.bmp'><br><font class='baseline'><strong>Benjamin</strong><p>Choose number of points to send.</font><div class='respPicDiv'><img src='img/responseButtonOffersNo0L4.png' class='respPic'></div></div>","null","3","Benjamin","5","Kept","0.8,0.35","10","0.8","trustrating_stim/white_00602_940928_fb_edt.bmp","5.5","29","9"
"html-keyboard-response","163","223715","0.0-19.0-3.8","63d007388da4ef5b301762f9","bdp_trlrn","Tue Mar 14 2023 18:11:00 GMT-0700 (Pacific Daylight Time)","461044","Untrustworthy,Trustworthy","","null","","","","feedback","","<div class='trialDiv'><img src='trustrating_stim/white_00602_940928_fb_edt.bmp'><br><font class='baseline'><strong>Benjamin</strong><p>Received: <strong>16</strong></font> &nbsp; &nbsp; &nbsp; &nbsp; &nbsp; &nbsp;<font class='negOutcome'>Shared back: <strong>0</strong></font></font><div class='respPicDiv'><img src='img/responseButtonOffersNo0_wht.png' class='respPic'></div></div>","null","3","Benjamin","5","Kept","0.8,0.35","10","0.8","trustrating_stim/white_00602_940928_fb_edt.bmp","5.5","29","9"
"html-keyboard-response","164","224221","0.0-19.0-1.9","63d007388da4ef5b301762f9","bdp_trlrn","Tue Mar 14 2023 18:11:00 GMT-0700 (Pacific Daylight Time)","461044","Untrustworthy,Trustworthy","","506","","","","decision","","<div class='trialDiv'><img src='trustrating_stim/white_00519_940519_fb_edt.bmp'><br><font class='baseline'><strong>Ryan</strong><p>Choose number of points to send.</font><div class='respPicDiv'><img src='img/responseButtonOffersNo0L.png' class='respPic'></div></div>","5","4","Ryan","2","Kept","0.2,0.65","13","0.2","trustrating_stim/white_00519_940519_fb_edt.bmp","3.5","34","10"
"html-keyboard-response","165","224473","0.0-19.0-2.9","63d007388da4ef5b301762f9","bdp_trlrn","Tue Mar 14 2023 18:11:00 GMT-0700 (Pacific Daylight Time)","461044","Untrustworthy,Trustworthy","","null","","","","decisionFB","","<div class='trialDiv'><img src='trustrating_stim/white_00519_940519_fb_edt.bmp'><br><font class='baseline'><strong>Ryan</strong><p>Choose number of points to send.</font><div class='respPicDiv'><img src='img/responseButtonOffersNo0L5.png' class='respPic'></div></div>","null","4","Ryan","2","Kept","0.2,0.65","13","0.2","trustrating_stim/white_00519_940519_fb_edt.bmp","3.5","29","10"
"html-keyboard-response","166","225474","0.0-19.0-3.9","63d007388da4ef5b301762f9","bdp_trlrn","Tue Mar 14 2023 18:11:00 GMT-0700 (Pacific Daylight Time)","461044","Untrustworthy,Trustworthy","","null","","","","feedback","","<div class='trialDiv'><img src='trustrating_stim/white_00519_940519_fb_edt.bmp'><br><font class='baseline'><strong>Ryan</strong><p>Received: <strong>20</strong></font> &nbsp; &nbsp; &nbsp; &nbsp; &nbsp; &nbsp;<font class='negOutcome'>Shared back: <strong>0</strong></font></font><div class='respPicDiv'><img src='img/responseButtonOffersNo0_wht.png' class='respPic'></div></div>","null","4","Ryan","2","Kept","0.2,0.65","13","0.2","trustrating_stim/white_00519_940519_fb_edt.bmp","3.5","29","10"
"html-keyboard-response","167","225536","0.0-19.0-1.10","63d007388da4ef5b301762f9","bdp_trlrn","Tue Mar 14 2023 18:11:00 GMT-0700 (Pacific Daylight Time)","461044","Untrustworthy,Trustworthy","","61","","","","decision","","<div class='trialDiv'><img src='trustrating_stim/white_00109_931230_fa_edt.bmp'><br><font class='baseline'><strong>Lucas</strong><p>Choose number of points to send.</font><div class='respPicDiv'><img src='img/responseButtonOffersNo0L.png' class='respPic'></div></div>","3","4","Lucas","11","Kept","0.35,0.65","13","0.35","trustrating_stim/white_00109_931230_fa_edt.bmp","7.5","34","11"
"html-keyboard-response","168","225788","0.0-19.0-2.10","63d007388da4ef5b301762f9","bdp_trlrn","Tue Mar 14 2023 18:11:00 GMT-0700 (Pacific Daylight Time)","461044","Untrustworthy,Trustworthy","","null","","","","decisionFB","","<div class='trialDiv'><img src='trustrating_stim/white_00109_931230_fa_edt.bmp'><br><font class='baseline'><strong>Lucas</strong><p>Choose number of points to send.</font><div class='respPicDiv'><img src='img/responseButtonOffersNo0L3.png' class='respPic'></div></div>","null","4","Lucas","11","Kept","0.35,0.65","13","0.35","trustrating_stim/white_00109_931230_fa_edt.bmp","7.5","31","11"
"html-keyboard-response","169","226790","0.0-19.0-3.10","63d007388da4ef5b301762f9","bdp_trlrn","Tue Mar 14 2023 18:11:00 GMT-0700 (Pacific Daylight Time)","461044","Untrustworthy,Trustworthy","","null","","","","feedback","","<div class='trialDiv'><img src='trustrating_stim/white_00109_931230_fa_edt.bmp'><br><font class='baseline'><strong>Lucas</strong><p>Received: <strong>12</strong></font> &nbsp; &nbsp; &nbsp; &nbsp; &nbsp; &nbsp;<font class='negOutcome'>Shared back: <strong>0</strong></font></font><div class='respPicDiv'><img src='img/responseButtonOffersNo0_wht.png' class='respPic'></div></div>","null","4","Lucas","11","Kept","0.35,0.65","13","0.35","trustrating_stim/white_00109_931230_fa_edt.bmp","7.5","31","11"
"html-keyboard-response","170","226917","0.0-19.0-1.11","63d007388da4ef5b301762f9","bdp_trlrn","Tue Mar 14 2023 18:11:00 GMT-0700 (Pacific Daylight Time)","461044","Untrustworthy,Trustworthy","","127","","","","decision","","<div class='trialDiv'><img src='trustrating_stim/white_00602_940928_fb_edt.bmp'><br><font class='baseline'><strong>Benjamin</strong><p>Choose number of points to send.</font><div class='respPicDiv'><img src='img/responseButtonOffersNo0L.png' class='respPic'></div></div>","2","4","Benjamin","5","Kept","0.8,0.35","10","0.8","trustrating_stim/white_00602_940928_fb_edt.bmp","5.5","36","12"
"html-keyboard-response","171","227168","0.0-19.0-2.11","63d007388da4ef5b301762f9","bdp_trlrn","Tue Mar 14 2023 18:11:00 GMT-0700 (Pacific Daylight Time)","461044","Untrustworthy,Trustworthy","","null","","","","decisionFB","","<div class='trialDiv'><img src='trustrating_stim/white_00602_940928_fb_edt.bmp'><br><font class='baseline'><strong>Benjamin</strong><p>Choose number of points to send.</font><div class='respPicDiv'><img src='img/responseButtonOffersNo0L2.png' class='respPic'></div></div>","null","4","Benjamin","5","Kept","0.8,0.35","10","0.8","trustrating_stim/white_00602_940928_fb_edt.bmp","5.5","34","12"
"html-keyboard-response","172","228169","0.0-19.0-3.11","63d007388da4ef5b301762f9","bdp_trlrn","Tue Mar 14 2023 18:11:00 GMT-0700 (Pacific Daylight Time)","461044","Untrustworthy,Trustworthy","","null","","","","feedback","","<div class='trialDiv'><img src='trustrating_stim/white_00602_940928_fb_edt.bmp'><br><font class='baseline'><strong>Benjamin</strong><p>Received: <strong>8</strong></font> &nbsp; &nbsp; &nbsp; &nbsp; &nbsp; &nbsp;<font class='negOutcome'>Shared back: <strong>0</strong></font></font><div class='respPicDiv'><img src='img/responseButtonOffersNo0_wht.png' class='respPic'></div></div>","null","4","Benjamin","5","Kept","0.8,0.35","10","0.8","trustrating_stim/white_00602_940928_fb_edt.bmp","5.5","34","12"
"html-keyboard-response","173","228376","0.0-19.0-1.12","63d007388da4ef5b301762f9","bdp_trlrn","Tue Mar 14 2023 18:11:00 GMT-0700 (Pacific Daylight Time)","461044","Untrustworthy,Trustworthy","","205","","","","decision","","<div class='trialDiv'><img src='trustrating_stim/white_00519_940519_fb_edt.bmp'><br><font class='baseline'><strong>Ryan</strong><p>Choose number of points to send.</font><div class='respPicDiv'><img src='img/responseButtonOffersNo0L.png' class='respPic'></div></div>","1","5","Ryan","2","Kept","0.2,0.65","13","0.2","trustrating_stim/white_00519_940519_fb_edt.bmp","3.5","39","13"
"html-keyboard-response","174","228627","0.0-19.0-2.12","63d007388da4ef5b301762f9","bdp_trlrn","Tue Mar 14 2023 18:11:00 GMT-0700 (Pacific Daylight Time)","461044","Untrustworthy,Trustworthy","","null","","","","decisionFB","","<div class='trialDiv'><img src='trustrating_stim/white_00519_940519_fb_edt.bmp'><br><font class='baseline'><strong>Ryan</strong><p>Choose number of points to send.</font><div class='respPicDiv'><img src='img/responseButtonOffersNo0L1.png' class='respPic'></div></div>","null","5","Ryan","2","Kept","0.2,0.65","13","0.2","trustrating_stim/white_00519_940519_fb_edt.bmp","3.5","38","13"
"html-keyboard-response","175","229629","0.0-19.0-3.12","63d007388da4ef5b301762f9","bdp_trlrn","Tue Mar 14 2023 18:11:00 GMT-0700 (Pacific Daylight Time)","461044","Untrustworthy,Trustworthy","","null","","","","feedback","","<div class='trialDiv'><img src='trustrating_stim/white_00519_940519_fb_edt.bmp'><br><font class='baseline'><strong>Ryan</strong><p>Received: <strong>4</strong></font> &nbsp; &nbsp; &nbsp; &nbsp; &nbsp; &nbsp;<font class='negOutcome'>Shared back: <strong>0</strong></font></font><div class='respPicDiv'><img src='img/responseButtonOffersNo0_wht.png' class='respPic'></div></div>","null","5","Ryan","2","Kept","0.2,0.65","13","0.2","trustrating_stim/white_00519_940519_fb_edt.bmp","3.5","38","13"
"html-keyboard-response","176","231564","0.0-19.0-1.13","63d007388da4ef5b301762f9","bdp_trlrn","Tue Mar 14 2023 18:11:00 GMT-0700 (Pacific Daylight Time)","461044","Untrustworthy,Trustworthy","","1935","","","","decision","","<div class='trialDiv'><img src='trustrating_stim/white_00109_931230_fa_edt.bmp'><br><font class='baseline'><strong>Lucas</strong><p>Choose number of points to send.</font><div class='respPicDiv'><img src='img/responseButtonOffersNo0L.png' class='respPic'></div></div>","5","5","Lucas","11","Shared","0.35,0.65","13","0.35","trustrating_stim/white_00109_931230_fa_edt.bmp","7.5","43","14"
"html-keyboard-response","177","231816","0.0-19.0-2.13","63d007388da4ef5b301762f9","bdp_trlrn","Tue Mar 14 2023 18:11:00 GMT-0700 (Pacific Daylight Time)","461044","Untrustworthy,Trustworthy","","null","","","","decisionFB","","<div class='trialDiv'><img src='trustrating_stim/white_00109_931230_fa_edt.bmp'><br><font class='baseline'><strong>Lucas</strong><p>Choose number of points to send.</font><div class='respPicDiv'><img src='img/responseButtonOffersNo0L5.png' class='respPic'></div></div>","null","5","Lucas","11","Shared","0.35,0.65","13","0.35","trustrating_stim/white_00109_931230_fa_edt.bmp","7.5","38","14"
"html-keyboard-response","178","232817","0.0-19.0-3.13","63d007388da4ef5b301762f9","bdp_trlrn","Tue Mar 14 2023 18:11:00 GMT-0700 (Pacific Daylight Time)","461044","Untrustworthy,Trustworthy","","null","","","","feedback","","<div class='trialDiv'><img src='trustrating_stim/white_00109_931230_fa_edt.bmp'><br><font class='baseline'><strong>Lucas</strong><p>Received: <strong>20</strong></font> &nbsp; &nbsp; &nbsp; &nbsp; &nbsp; &nbsp;<font class='posOutcome'>Shared back: <strong>10</strong></font></font><div class='respPicDiv'><img src='img/responseButtonOffersNo0_wht.png' class='respPic'></div></div>","null","5","Lucas","11","Shared","0.35,0.65","13","0.35","trustrating_stim/white_00109_931230_fa_edt.bmp","7.5","48","14"
"html-keyboard-response","179","235086","0.0-19.0-1.14","63d007388da4ef5b301762f9","bdp_trlrn","Tue Mar 14 2023 18:11:00 GMT-0700 (Pacific Daylight Time)","461044","Untrustworthy,Trustworthy","","2268","","","","decision","","<div class='trialDiv'><img src='trustrating_stim/white_00602_940928_fb_edt.bmp'><br><font class='baseline'><strong>Benjamin</strong><p>Choose number of points to send.</font><div class='respPicDiv'><img src='img/responseButtonOffersNo0L.png' class='respPic'></div></div>","2","5","Benjamin","5","Shared","0.8,0.35","10","0.8","trustrating_stim/white_00602_940928_fb_edt.bmp","5.5","53","15"
"html-keyboard-response","180","235338","0.0-19.0-2.14","63d007388da4ef5b301762f9","bdp_trlrn","Tue Mar 14 2023 18:11:00 GMT-0700 (Pacific Daylight Time)","461044","Untrustworthy,Trustworthy","","null","","","","decisionFB","","<div class='trialDiv'><img src='trustrating_stim/white_00602_940928_fb_edt.bmp'><br><font class='baseline'><strong>Benjamin</strong><p>Choose number of points to send.</font><div class='respPicDiv'><img src='img/responseButtonOffersNo0L2.png' class='respPic'></div></div>","null","5","Benjamin","5","Shared","0.8,0.35","10","0.8","trustrating_stim/white_00602_940928_fb_edt.bmp","5.5","51","15"
"html-keyboard-response","181","236340","0.0-19.0-3.14","63d007388da4ef5b301762f9","bdp_trlrn","Tue Mar 14 2023 18:11:00 GMT-0700 (Pacific Daylight Time)","461044","Untrustworthy,Trustworthy","","null","","","","feedback","","<div class='trialDiv'><img src='trustrating_stim/white_00602_940928_fb_edt.bmp'><br><font class='baseline'><strong>Benjamin</strong><p>Received: <strong>8</strong></font> &nbsp; &nbsp; &nbsp; &nbsp; &nbsp; &nbsp;<font class='posOutcome'>Shared back: <strong>4</strong></font></font><div class='respPicDiv'><img src='img/responseButtonOffersNo0_wht.png' class='respPic'></div></div>","null","5","Benjamin","5","Shared","0.8,0.35","10","0.8","trustrating_stim/white_00602_940928_fb_edt.bmp","5.5","55","15"
"html-keyboard-response","182","237961","0.0-19.0-1.15","63d007388da4ef5b301762f9","bdp_trlrn","Tue Mar 14 2023 18:11:00 GMT-0700 (Pacific Daylight Time)","461044","Untrustworthy,Trustworthy","","1621","","","","decision","","<div class='trialDiv'><img src='trustrating_stim/white_00109_931230_fa_edt.bmp'><br><font class='baseline'><strong>Lucas</strong><p>Choose number of points to send.</font><div class='respPicDiv'><img src='img/responseButtonOffersNo0L.png' class='respPic'></div></div>","2","6","Lucas","11","Shared","0.35,0.65","13","0.35","trustrating_stim/white_00109_931230_fa_edt.bmp","7.5","60","16"
"html-keyboard-response","183","238213","0.0-19.0-2.15","63d007388da4ef5b301762f9","bdp_trlrn","Tue Mar 14 2023 18:11:00 GMT-0700 (Pacific Daylight Time)","461044","Untrustworthy,Trustworthy","","null","","","","decisionFB","","<div class='trialDiv'><img src='trustrating_stim/white_00109_931230_fa_edt.bmp'><br><font class='baseline'><strong>Lucas</strong><p>Choose number of points to send.</font><div class='respPicDiv'><img src='img/responseButtonOffersNo0L2.png' class='respPic'></div></div>","null","6","Lucas","11","Shared","0.35,0.65","13","0.35","trustrating_stim/white_00109_931230_fa_edt.bmp","7.5","58","16"
"html-keyboard-response","184","239215","0.0-19.0-3.15","63d007388da4ef5b301762f9","bdp_trlrn","Tue Mar 14 2023 18:11:00 GMT-0700 (Pacific Daylight Time)","461044","Untrustworthy,Trustworthy","","null","","","","feedback","","<div class='trialDiv'><img src='trustrating_stim/white_00109_931230_fa_edt.bmp'><br><font class='baseline'><strong>Lucas</strong><p>Received: <strong>8</strong></font> &nbsp; &nbsp; &nbsp; &nbsp; &nbsp; &nbsp;<font class='posOutcome'>Shared back: <strong>4</strong></font></font><div class='respPicDiv'><img src='img/responseButtonOffersNo0_wht.png' class='respPic'></div></div>","null","6","Lucas","11","Shared","0.35,0.65","13","0.35","trustrating_stim/white_00109_931230_fa_edt.bmp","7.5","62","16"
"html-keyboard-response","185","240583","0.0-19.0-1.16","63d007388da4ef5b301762f9","bdp_trlrn","Tue Mar 14 2023 18:11:00 GMT-0700 (Pacific Daylight Time)","461044","Untrustworthy,Trustworthy","","1368","","","","decision","","<div class='trialDiv'><img src='trustrating_stim/white_00602_940928_fb_edt.bmp'><br><font class='baseline'><strong>Benjamin</strong><p>Choose number of points to send.</font><div class='respPicDiv'><img src='img/responseButtonOffersNo0L.png' class='respPic'></div></div>","3","6","Benjamin","5","Shared","0.8,0.35","10","0.8","trustrating_stim/white_00602_940928_fb_edt.bmp","5.5","67","17"
"html-keyboard-response","186","240835","0.0-19.0-2.16","63d007388da4ef5b301762f9","bdp_trlrn","Tue Mar 14 2023 18:11:00 GMT-0700 (Pacific Daylight Time)","461044","Untrustworthy,Trustworthy","","null","","","","decisionFB","","<div class='trialDiv'><img src='trustrating_stim/white_00602_940928_fb_edt.bmp'><br><font class='baseline'><strong>Benjamin</strong><p>Choose number of points to send.</font><div class='respPicDiv'><img src='img/responseButtonOffersNo0L3.png' class='respPic'></div></div>","null","6","Benjamin","5","Shared","0.8,0.35","10","0.8","trustrating_stim/white_00602_940928_fb_edt.bmp","5.5","64","17"
"html-keyboard-response","187","241836","0.0-19.0-3.16","63d007388da4ef5b301762f9","bdp_trlrn","Tue Mar 14 2023 18:11:00 GMT-0700 (Pacific Daylight Time)","461044","Untrustworthy,Trustworthy","","null","","","","feedback","","<div class='trialDiv'><img src='trustrating_stim/white_00602_940928_fb_edt.bmp'><br><font class='baseline'><strong>Benjamin</strong><p>Received: <strong>12</strong></font> &nbsp; &nbsp; &nbsp; &nbsp; &nbsp; &nbsp;<font class='posOutcome'>Shared back: <strong>6</strong></font></font><div class='respPicDiv'><img src='img/responseButtonOffersNo0_wht.png' class='respPic'></div></div>","null","6","Benjamin","5","Shared","0.8,0.35","10","0.8","trustrating_stim/white_00602_940928_fb_edt.bmp","5.5","70","17"
"html-keyboard-response","188","243420","0.0-19.0-1.17","63d007388da4ef5b301762f9","bdp_trlrn","Tue Mar 14 2023 18:11:00 GMT-0700 (Pacific Daylight Time)","461044","Untrustworthy,Trustworthy","","1583","","","","decision","","<div class='trialDiv'><img src='trustrating_stim/white_00519_940519_fb_edt.bmp'><br><font class='baseline'><strong>Ryan</strong><p>Choose number of points to send.</font><div class='respPicDiv'><img src='img/responseButtonOffersNo0L.png' class='respPic'></div></div>","4","6","Ryan","2","Kept","0.2,0.65","13","0.2","trustrating_stim/white_00519_940519_fb_edt.bmp","3.5","75","18"
"html-keyboard-response","189","243671","0.0-19.0-2.17","63d007388da4ef5b301762f9","bdp_trlrn","Tue Mar 14 2023 18:11:00 GMT-0700 (Pacific Daylight Time)","461044","Untrustworthy,Trustworthy","","null","","","","decisionFB","","<div class='trialDiv'><img src='trustrating_stim/white_00519_940519_fb_edt.bmp'><br><font class='baseline'><strong>Ryan</strong><p>Choose number of points to send.</font><div class='respPicDiv'><img src='img/responseButtonOffersNo0L4.png' class='respPic'></div></div>","null","6","Ryan","2","Kept","0.2,0.65","13","0.2","trustrating_stim/white_00519_940519_fb_edt.bmp","3.5","71","18"
"html-keyboard-response","190","244674","0.0-19.0-3.17","63d007388da4ef5b301762f9","bdp_trlrn","Tue Mar 14 2023 18:11:00 GMT-0700 (Pacific Daylight Time)","461044","Untrustworthy,Trustworthy","","null","","","","feedback","","<div class='trialDiv'><img src='trustrating_stim/white_00519_940519_fb_edt.bmp'><br><font class='baseline'><strong>Ryan</strong><p>Received: <strong>16</strong></font> &nbsp; &nbsp; &nbsp; &nbsp; &nbsp; &nbsp;<font class='negOutcome'>Shared back: <strong>0</strong></font></font><div class='respPicDiv'><img src='img/responseButtonOffersNo0_wht.png' class='respPic'></div></div>","null","6","Ryan","2","Kept","0.2,0.65","13","0.2","trustrating_stim/white_00519_940519_fb_edt.bmp","3.5","71","18"
"html-keyboard-response","191","245560","0.0-19.0-1.18","63d007388da4ef5b301762f9","bdp_trlrn","Tue Mar 14 2023 18:11:00 GMT-0700 (Pacific Daylight Time)","461044","Untrustworthy,Trustworthy","","886","","","","decision","","<div class='trialDiv'><img src='trustrating_stim/white_00602_940928_fb_edt.bmp'><br><font class='baseline'><strong>Benjamin</strong><p>Choose number of points to send.</font><div class='respPicDiv'><img src='img/responseButtonOffersNo0L.png' class='respPic'></div></div>","3","7","Benjamin","5","Kept","0.8,0.35","10","0.8","trustrating_stim/white_00602_940928_fb_edt.bmp","5.5","76","19"
"html-keyboard-response","192","245812","0.0-19.0-2.18","63d007388da4ef5b301762f9","bdp_trlrn","Tue Mar 14 2023 18:11:00 GMT-0700 (Pacific Daylight Time)","461044","Untrustworthy,Trustworthy","","null","","","","decisionFB","","<div class='trialDiv'><img src='trustrating_stim/white_00602_940928_fb_edt.bmp'><br><font class='baseline'><strong>Benjamin</strong><p>Choose number of points to send.</font><div class='respPicDiv'><img src='img/responseButtonOffersNo0L3.png' class='respPic'></div></div>","null","7","Benjamin","5","Kept","0.8,0.35","10","0.8","trustrating_stim/white_00602_940928_fb_edt.bmp","5.5","73","19"
"html-keyboard-response","193","246814","0.0-19.0-3.18","63d007388da4ef5b301762f9","bdp_trlrn","Tue Mar 14 2023 18:11:00 GMT-0700 (Pacific Daylight Time)","461044","Untrustworthy,Trustworthy","","null","","","","feedback","","<div class='trialDiv'><img src='trustrating_stim/white_00602_940928_fb_edt.bmp'><br><font class='baseline'><strong>Benjamin</strong><p>Received: <strong>12</strong></font> &nbsp; &nbsp; &nbsp; &nbsp; &nbsp; &nbsp;<font class='negOutcome'>Shared back: <strong>0</strong></font></font><div class='respPicDiv'><img src='img/responseButtonOffersNo0_wht.png' class='respPic'></div></div>","null","7","Benjamin","5","Kept","0.8,0.35","10","0.8","trustrating_stim/white_00602_940928_fb_edt.bmp","5.5","73","19"
"html-keyboard-response","194","247108","0.0-19.0-1.19","63d007388da4ef5b301762f9","bdp_trlrn","Tue Mar 14 2023 18:11:00 GMT-0700 (Pacific Daylight Time)","461044","Untrustworthy,Trustworthy","","294","","","","decision","","<div class='trialDiv'><img src='trustrating_stim/white_00109_931230_fa_edt.bmp'><br><font class='baseline'><strong>Lucas</strong><p>Choose number of points to send.</font><div class='respPicDiv'><img src='img/responseButtonOffersNo0L.png' class='respPic'></div></div>","1","7","Lucas","11","Kept","0.35,0.65","13","0.35","trustrating_stim/white_00109_931230_fa_edt.bmp","7.5","78","20"
"html-keyboard-response","195","247359","0.0-19.0-2.19","63d007388da4ef5b301762f9","bdp_trlrn","Tue Mar 14 2023 18:11:00 GMT-0700 (Pacific Daylight Time)","461044","Untrustworthy,Trustworthy","","null","","","","decisionFB","","<div class='trialDiv'><img src='trustrating_stim/white_00109_931230_fa_edt.bmp'><br><font class='baseline'><strong>Lucas</strong><p>Choose number of points to send.</font><div class='respPicDiv'><img src='img/responseButtonOffersNo0L1.png' class='respPic'></div></div>","null","7","Lucas","11","Kept","0.35,0.65","13","0.35","trustrating_stim/white_00109_931230_fa_edt.bmp","7.5","77","20"
"html-keyboard-response","196","248361","0.0-19.0-3.19","63d007388da4ef5b301762f9","bdp_trlrn","Tue Mar 14 2023 18:11:00 GMT-0700 (Pacific Daylight Time)","461044","Untrustworthy,Trustworthy","","null","","","","feedback","","<div class='trialDiv'><img src='trustrating_stim/white_00109_931230_fa_edt.bmp'><br><font class='baseline'><strong>Lucas</strong><p>Received: <strong>4</strong></font> &nbsp; &nbsp; &nbsp; &nbsp; &nbsp; &nbsp;<font class='negOutcome'>Shared back: <strong>0</strong></font></font><div class='respPicDiv'><img src='img/responseButtonOffersNo0_wht.png' class='respPic'></div></div>","null","7","Lucas","11","Kept","0.35,0.65","13","0.35","trustrating_stim/white_00109_931230_fa_edt.bmp","7.5","77","20"
"html-keyboard-response","197","248464","0.0-19.0-1.20","63d007388da4ef5b301762f9","bdp_trlrn","Tue Mar 14 2023 18:11:00 GMT-0700 (Pacific Daylight Time)","461044","Untrustworthy,Trustworthy","","103","","","","decision","","<div class='trialDiv'><img src='trustrating_stim/white_00519_940519_fb_edt.bmp'><br><font class='baseline'><strong>Ryan</strong><p>Choose number of points to send.</font><div class='respPicDiv'><img src='img/responseButtonOffersNo0L.png' class='respPic'></div></div>","5","7","Ryan","2","Kept","0.2,0.65","13","0.2","trustrating_stim/white_00519_940519_fb_edt.bmp","3.5","82","21"
"html-keyboard-response","198","248717","0.0-19.0-2.20","63d007388da4ef5b301762f9","bdp_trlrn","Tue Mar 14 2023 18:11:00 GMT-0700 (Pacific Daylight Time)","461044","Untrustworthy,Trustworthy","","null","","","","decisionFB","","<div class='trialDiv'><img src='trustrating_stim/white_00519_940519_fb_edt.bmp'><br><font class='baseline'><strong>Ryan</strong><p>Choose number of points to send.</font><div class='respPicDiv'><img src='img/responseButtonOffersNo0L5.png' class='respPic'></div></div>","null","7","Ryan","2","Kept","0.2,0.65","13","0.2","trustrating_stim/white_00519_940519_fb_edt.bmp","3.5","77","21"
"html-keyboard-response","199","249719","0.0-19.0-3.20","63d007388da4ef5b301762f9","bdp_trlrn","Tue Mar 14 2023 18:11:00 GMT-0700 (Pacific Daylight Time)","461044","Untrustworthy,Trustworthy","","null","","","","feedback","","<div class='trialDiv'><img src='trustrating_stim/white_00519_940519_fb_edt.bmp'><br><font class='baseline'><strong>Ryan</strong><p>Received: <strong>20</strong></font> &nbsp; &nbsp; &nbsp; &nbsp; &nbsp; &nbsp;<font class='negOutcome'>Shared back: <strong>0</strong></font></font><div class='respPicDiv'><img src='img/responseButtonOffersNo0_wht.png' class='respPic'></div></div>","null","7","Ryan","2","Kept","0.2,0.65","13","0.2","trustrating_stim/white_00519_940519_fb_edt.bmp","3.5","77","21"
"html-keyboard-response","200","249733","0.0-19.0-1.21","63d007388da4ef5b301762f9","bdp_trlrn","Tue Mar 14 2023 18:11:00 GMT-0700 (Pacific Daylight Time)","461044","Untrustworthy,Trustworthy","","14","","","","decision","","<div class='trialDiv'><img src='trustrating_stim/white_00602_940928_fb_edt.bmp'><br><font class='baseline'><strong>Benjamin</strong><p>Choose number of points to send.</font><div class='respPicDiv'><img src='img/responseButtonOffersNo0L.png' class='respPic'></div></div>","4","8","Benjamin","5","Shared","0.8,0.35","10","0.8","trustrating_stim/white_00602_940928_fb_edt.bmp","5.5","82","22"
"html-keyboard-response","201","249985","0.0-19.0-2.21","63d007388da4ef5b301762f9","bdp_trlrn","Tue Mar 14 2023 18:11:00 GMT-0700 (Pacific Daylight Time)","461044","Untrustworthy,Trustworthy","","null","","","","decisionFB","","<div class='trialDiv'><img src='trustrating_stim/white_00602_940928_fb_edt.bmp'><br><font class='baseline'><strong>Benjamin</strong><p>Choose number of points to send.</font><div class='respPicDiv'><img src='img/responseButtonOffersNo0L4.png' class='respPic'></div></div>","null","8","Benjamin","5","Shared","0.8,0.35","10","0.8","trustrating_stim/white_00602_940928_fb_edt.bmp","5.5","78","22"
"html-keyboard-response","202","250986","0.0-19.0-3.21","63d007388da4ef5b301762f9","bdp_trlrn","Tue Mar 14 2023 18:11:00 GMT-0700 (Pacific Daylight Time)","461044","Untrustworthy,Trustworthy","","null","","","","feedback","","<div class='trialDiv'><img src='trustrating_stim/white_00602_940928_fb_edt.bmp'><br><font class='baseline'><strong>Benjamin</strong><p>Received: <strong>16</strong></font> &nbsp; &nbsp; &nbsp; &nbsp; &nbsp; &nbsp;<font class='posOutcome'>Shared back: <strong>8</strong></font></font><div class='respPicDiv'><img src='img/responseButtonOffersNo0_wht.png' class='respPic'></div></div>","null","8","Benjamin","5","Shared","0.8,0.35","10","0.8","trustrating_stim/white_00602_940928_fb_edt.bmp","5.5","86","22"
"html-keyboard-response","203","251199","0.0-19.0-1.22","63d007388da4ef5b301762f9","bdp_trlrn","Tue Mar 14 2023 18:11:00 GMT-0700 (Pacific Daylight Time)","461044","Untrustworthy,Trustworthy","","212","","","","decision","","<div class='trialDiv'><img src='trustrating_stim/white_00109_931230_fa_edt.bmp'><br><font class='baseline'><strong>Lucas</strong><p>Choose number of points to send.</font><div class='respPicDiv'><img src='img/responseButtonOffersNo0L.png' class='respPic'></div></div>","2","8","Lucas","11","Kept","0.35,0.65","13","0.35","trustrating_stim/white_00109_931230_fa_edt.bmp","7.5","91","23"
"html-keyboard-response","204","251451","0.0-19.0-2.22","63d007388da4ef5b301762f9","bdp_trlrn","Tue Mar 14 2023 18:11:00 GMT-0700 (Pacific Daylight Time)","461044","Untrustworthy,Trustworthy","","null","","","","decisionFB","","<div class='trialDiv'><img src='trustrating_stim/white_00109_931230_fa_edt.bmp'><br><font class='baseline'><strong>Lucas</strong><p>Choose number of points to send.</font><div class='respPicDiv'><img src='img/responseButtonOffersNo0L2.png' class='respPic'></div></div>","null","8","Lucas","11","Kept","0.35,0.65","13","0.35","trustrating_stim/white_00109_931230_fa_edt.bmp","7.5","89","23"
"html-keyboard-response","205","252453","0.0-19.0-3.22","63d007388da4ef5b301762f9","bdp_trlrn","Tue Mar 14 2023 18:11:00 GMT-0700 (Pacific Daylight Time)","461044","Untrustworthy,Trustworthy","","null","","","","feedback","","<div class='trialDiv'><img src='trustrating_stim/white_00109_931230_fa_edt.bmp'><br><font class='baseline'><strong>Lucas</strong><p>Received: <strong>8</strong></font> &nbsp; &nbsp; &nbsp; &nbsp; &nbsp; &nbsp;<font class='negOutcome'>Shared back: <strong>0</strong></font></font><div class='respPicDiv'><img src='img/responseButtonOffersNo0_wht.png' class='respPic'></div></div>","null","8","Lucas","11","Kept","0.35,0.65","13","0.35","trustrating_stim/white_00109_931230_fa_edt.bmp","7.5","89","23"
"html-keyboard-response","206","252660","0.0-19.0-1.23","63d007388da4ef5b301762f9","bdp_trlrn","Tue Mar 14 2023 18:11:00 GMT-0700 (Pacific Daylight Time)","461044","Untrustworthy,Trustworthy","","207","","","","decision","","<div class='trialDiv'><img src='trustrating_stim/white_00519_940519_fb_edt.bmp'><br><font class='baseline'><strong>Ryan</strong><p>Choose number of points to send.</font><div class='respPicDiv'><img src='img/responseButtonOffersNo0L.png' class='respPic'></div></div>","3","8","Ryan","2","Kept","0.2,0.65","13","0.2","trustrating_stim/white_00519_940519_fb_edt.bmp","3.5","94","24"
"html-keyboard-response","207","252911","0.0-19.0-2.23","63d007388da4ef5b301762f9","bdp_trlrn","Tue Mar 14 2023 18:11:00 GMT-0700 (Pacific Daylight Time)","461044","Untrustworthy,Trustworthy","","null","","","","decisionFB","","<div class='trialDiv'><img src='trustrating_stim/white_00519_940519_fb_edt.bmp'><br><font class='baseline'><strong>Ryan</strong><p>Choose number of points to send.</font><div class='respPicDiv'><img src='img/responseButtonOffersNo0L3.png' class='respPic'></div></div>","null","8","Ryan","2","Kept","0.2,0.65","13","0.2","trustrating_stim/white_00519_940519_fb_edt.bmp","3.5","91","24"
"html-keyboard-response","208","253912","0.0-19.0-3.23","63d007388da4ef5b301762f9","bdp_trlrn","Tue Mar 14 2023 18:11:00 GMT-0700 (Pacific Daylight Time)","461044","Untrustworthy,Trustworthy","","null","","","","feedback","","<div class='trialDiv'><img src='trustrating_stim/white_00519_940519_fb_edt.bmp'><br><font class='baseline'><strong>Ryan</strong><p>Received: <strong>12</strong></font> &nbsp; &nbsp; &nbsp; &nbsp; &nbsp; &nbsp;<font class='negOutcome'>Shared back: <strong>0</strong></font></font><div class='respPicDiv'><img src='img/responseButtonOffersNo0_wht.png' class='respPic'></div></div>","null","8","Ryan","2","Kept","0.2,0.65","13","0.2","trustrating_stim/white_00519_940519_fb_edt.bmp","3.5","91","24"
"html-keyboard-response","209","254000","0.0-19.0-1.24","63d007388da4ef5b301762f9","bdp_trlrn","Tue Mar 14 2023 18:11:00 GMT-0700 (Pacific Daylight Time)","461044","Untrustworthy,Trustworthy","","87","","","","decision","","<div class='trialDiv'><img src='trustrating_stim/white_00109_931230_fa_edt.bmp'><br><font class='baseline'><strong>Lucas</strong><p>Choose number of points to send.</font><div class='respPicDiv'><img src='img/responseButtonOffersNo0L.png' class='respPic'></div></div>","5","9","Lucas","11","Kept","0.35,0.65","13","0.35","trustrating_stim/white_00109_931230_fa_edt.bmp","7.5","96","25"
"html-keyboard-response","210","254250","0.0-19.0-2.24","63d007388da4ef5b301762f9","bdp_trlrn","Tue Mar 14 2023 18:11:00 GMT-0700 (Pacific Daylight Time)","461044","Untrustworthy,Trustworthy","","null","","","","decisionFB","","<div class='trialDiv'><img src='trustrating_stim/white_00109_931230_fa_edt.bmp'><br><font class='baseline'><strong>Lucas</strong><p>Choose number of points to send.</font><div class='respPicDiv'><img src='img/responseButtonOffersNo0L5.png' class='respPic'></div></div>","null","9","Lucas","11","Kept","0.35,0.65","13","0.35","trustrating_stim/white_00109_931230_fa_edt.bmp","7.5","91","25"
"html-keyboard-response","211","255251","0.0-19.0-3.24","63d007388da4ef5b301762f9","bdp_trlrn","Tue Mar 14 2023 18:11:00 GMT-0700 (Pacific Daylight Time)","461044","Untrustworthy,Trustworthy","","null","","","","feedback","","<div class='trialDiv'><img src='trustrating_stim/white_00109_931230_fa_edt.bmp'><br><font class='baseline'><strong>Lucas</strong><p>Received: <strong>20</strong></font> &nbsp; &nbsp; &nbsp; &nbsp; &nbsp; &nbsp;<font class='negOutcome'>Shared back: <strong>0</strong></font></font><div class='respPicDiv'><img src='img/responseButtonOffersNo0_wht.png' class='respPic'></div></div>","null","9","Lucas","11","Kept","0.35,0.65","13","0.35","trustrating_stim/white_00109_931230_fa_edt.bmp","7.5","91","25"
"html-keyboard-response","212","255310","0.0-19.0-1.25","63d007388da4ef5b301762f9","bdp_trlrn","Tue Mar 14 2023 18:11:00 GMT-0700 (Pacific Daylight Time)","461044","Untrustworthy,Trustworthy","","58","","","","decision","","<div class='trialDiv'><img src='trustrating_stim/white_00519_940519_fb_edt.bmp'><br><font class='baseline'><strong>Ryan</strong><p>Choose number of points to send.</font><div class='respPicDiv'><img src='img/responseButtonOffersNo0L.png' class='respPic'></div></div>","1","9","Ryan","2","Kept","0.2,0.65","13","0.2","trustrating_stim/white_00519_940519_fb_edt.bmp","3.5","96","26"
"html-keyboard-response","213","255562","0.0-19.0-2.25","63d007388da4ef5b301762f9","bdp_trlrn","Tue Mar 14 2023 18:11:00 GMT-0700 (Pacific Daylight Time)","461044","Untrustworthy,Trustworthy","","null","","","","decisionFB","","<div class='trialDiv'><img src='trustrating_stim/white_00519_940519_fb_edt.bmp'><br><font class='baseline'><strong>Ryan</strong><p>Choose number of points to send.</font><div class='respPicDiv'><img src='img/responseButtonOffersNo0L1.png' class='respPic'></div></div>","null","9","Ryan","2","Kept","0.2,0.65","13","0.2","trustrating_stim/white_00519_940519_fb_edt.bmp","3.5","95","26"
"html-keyboard-response","214","256564","0.0-19.0-3.25","63d007388da4ef5b301762f9","bdp_trlrn","Tue Mar 14 2023 18:11:00 GMT-0700 (Pacific Daylight Time)","461044","Untrustworthy,Trustworthy","","null","","","","feedback","","<div class='trialDiv'><img src='trustrating_stim/white_00519_940519_fb_edt.bmp'><br><font class='baseline'><strong>Ryan</strong><p>Received: <strong>4</strong></font> &nbsp; &nbsp; &nbsp; &nbsp; &nbsp; &nbsp;<font class='negOutcome'>Shared back: <strong>0</strong></font></font><div class='respPicDiv'><img src='img/responseButtonOffersNo0_wht.png' class='respPic'></div></div>","null","9","Ryan","2","Kept","0.2,0.65","13","0.2","trustrating_stim/white_00519_940519_fb_edt.bmp","3.5","95","26"
"html-keyboard-response","215","256599","0.0-19.0-1.26","63d007388da4ef5b301762f9","bdp_trlrn","Tue Mar 14 2023 18:11:00 GMT-0700 (Pacific Daylight Time)","461044","Untrustworthy,Trustworthy","","33","","","","decision","","<div class='trialDiv'><img src='trustrating_stim/white_00602_940928_fb_edt.bmp'><br><font class='baseline'><strong>Benjamin</strong><p>Choose number of points to send.</font><div class='respPicDiv'><img src='img/responseButtonOffersNo0L.png' class='respPic'></div></div>","3","9","Benjamin","5","Shared","0.8,0.35","10","0.8","trustrating_stim/white_00602_940928_fb_edt.bmp","5.5","100","27"
"html-keyboard-response","216","256850","0.0-19.0-2.26","63d007388da4ef5b301762f9","bdp_trlrn","Tue Mar 14 2023 18:11:00 GMT-0700 (Pacific Daylight Time)","461044","Untrustworthy,Trustworthy","","null","","","","decisionFB","","<div class='trialDiv'><img src='trustrating_stim/white_00602_940928_fb_edt.bmp'><br><font class='baseline'><strong>Benjamin</strong><p>Choose number of points to send.</font><div class='respPicDiv'><img src='img/responseButtonOffersNo0L3.png' class='respPic'></div></div>","null","9","Benjamin","5","Shared","0.8,0.35","10","0.8","trustrating_stim/white_00602_940928_fb_edt.bmp","5.5","97","27"
"html-keyboard-response","217","257851","0.0-19.0-3.26","63d007388da4ef5b301762f9","bdp_trlrn","Tue Mar 14 2023 18:11:00 GMT-0700 (Pacific Daylight Time)","461044","Untrustworthy,Trustworthy","","null","","","","feedback","","<div class='trialDiv'><img src='trustrating_stim/white_00602_940928_fb_edt.bmp'><br><font class='baseline'><strong>Benjamin</strong><p>Received: <strong>12</strong></font> &nbsp; &nbsp; &nbsp; &nbsp; &nbsp; &nbsp;<font class='posOutcome'>Shared back: <strong>6</strong></font></font><div class='respPicDiv'><img src='img/responseButtonOffersNo0_wht.png' class='respPic'></div></div>","null","9","Benjamin","5","Shared","0.8,0.35","10","0.8","trustrating_stim/white_00602_940928_fb_edt.bmp","5.5","103","27"
"html-keyboard-response","218","258067","0.0-19.0-1.27","63d007388da4ef5b301762f9","bdp_trlrn","Tue Mar 14 2023 18:11:00 GMT-0700 (Pacific Daylight Time)","461044","Untrustworthy,Trustworthy","","216","","","","decision","","<div class='trialDiv'><img src='trustrating_stim/white_00519_940519_fb_edt.bmp'><br><font class='baseline'><strong>Ryan</strong><p>Choose number of points to send.</font><div class='respPicDiv'><img src='img/responseButtonOffersNo0L.png' class='respPic'></div></div>","4","10","Ryan","2","Shared","0.2,0.65","13","0.2","trustrating_stim/white_00519_940519_fb_edt.bmp","3.5","108","28"
