"trial_type","trial_index","time_elapsed","internal_node_id","subject_id","task","startTime","totalTime","labels","view_history","rt","event","trial","time","trialtype","success","stimulus","key_press","aground","name","faceID","outcome","agenttype","agentswpt","agentcurrpshare","face","avgRating","point_total","round"
"pavlovia","0","1","0.0-0.0","63e7ac6bcbc2e035cbeadf8a","bdp_trlrn","Tue Mar 14 2023 12:57:38 GMT-0400 (Eastern Daylight Time)","594513","Untrustworthy,Trustworthy","","","","","","","","","","","","","","","","","","","",""
"instructions","1","3644","0.0-1.0","63e7ac6bcbc2e035cbeadf8a","bdp_trlrn","Tue Mar 14 2023 12:57:38 GMT-0400 (Eastern Daylight Time)","594513","Untrustworthy,Trustworthy","[{""page_index"":0,""viewing_time"":3642}]","3642","","","","","","","","","","","","","","","","","",""
"","","","","63e7ac6bcbc2e035cbeadf8a","bdp_trlrn","Tue Mar 14 2023 12:57:38 GMT-0400 (Eastern Daylight Time)","594513","Untrustworthy,Trustworthy","","","fullscreenenter","2","5488","fullscreenenter","","","","","","","","","","","","","",""
"fullscreen","2","6483","0.0-2.0","63e7ac6bcbc2e035cbeadf8a","bdp_trlrn","Tue Mar 14 2023 12:57:38 GMT-0400 (Eastern Daylight Time)","594513","Untrustworthy,Trustworthy","","","","","","","true","","","","","","","","","","","","",""
"instructions","3","15452","0.0-4.0","63e7ac6bcbc2e035cbeadf8a","bdp_trlrn","Tue Mar 14 2023 12:57:38 GMT-0400 (Eastern Daylight Time)","594513","Untrustworthy,Trustworthy","[{""page_index"":0,""viewing_time"":7537},{""page_index"":1,""viewing_time"":1432}]","8969","","","","","","","","","","","","","","","","","",""
"instructions","4","16397","0.0-5.0","63e7ac6bcbc2e035cbeadf8a","bdp_trlrn","Tue Mar 14 2023 12:57:38 GMT-0400 (Eastern Daylight Time)","594513","Untrustworthy,Trustworthy","[{""page_index"":0,""viewing_time"":945}]","945","","","","","","","","","","","","","","","","","",""
"image-keyboard-response","5","19265","0.0-6.0-1.0","63e7ac6bcbc2e035cbeadf8a","bdp_trlrn","Tue Mar 14 2023 12:57:38 GMT-0400 (Eastern Daylight Time)","594513","Untrustworthy,Trustworthy","","2767","","","","rating","","trustrating_stim/white_00898_960530_fa_edt.bmp","5","","","","","","","","","","",""
"image-keyboard-response","6","19477","0.0-6.0-2.0","63e7ac6bcbc2e035cbeadf8a","bdp_trlrn","Tue Mar 14 2023 12:57:38 GMT-0400 (Eastern Daylight Time)","594513","Untrustworthy,Trustworthy","","null","","","","ratingFB","","trustrating_stim/white_00898_960530_fa_edt.bmp","null","","","","","","","","","","",""
"image-keyboard-response","7","21314","0.0-6.0-1.1","63e7ac6bcbc2e035cbeadf8a","bdp_trlrn","Tue Mar 14 2023 12:57:38 GMT-0400 (Eastern Daylight Time)","594513","Untrustworthy,Trustworthy","","1728","","","","rating","","trustrating_stim/white_mw056.bmp","4","","","","","","","","","","",""
"image-keyboard-response","8","21518","0.0-6.0-2.1","63e7ac6bcbc2e035cbeadf8a","bdp_trlrn","Tue Mar 14 2023 12:57:38 GMT-0400 (Eastern Daylight Time)","594513","Untrustworthy,Trustworthy","","null","","","","ratingFB","","trustrating_stim/white_mw056.bmp","null","","","","","","","","","","",""
"image-keyboard-response","9","23457","0.0-6.0-1.2","63e7ac6bcbc2e035cbeadf8a","bdp_trlrn","Tue Mar 14 2023 12:57:38 GMT-0400 (Eastern Daylight Time)","594513","Untrustworthy,Trustworthy","","1830","","","","rating","","trustrating_stim/white_00109_931230_fa_edt.bmp","8","","","","","","","","","","",""
"image-keyboard-response","10","23664","0.0-6.0-2.2","63e7ac6bcbc2e035cbeadf8a","bdp_trlrn","Tue Mar 14 2023 12:57:38 GMT-0400 (Eastern Daylight Time)","594513","Untrustworthy,Trustworthy","","null","","","","ratingFB","","trustrating_stim/white_00109_931230_fa_edt.bmp","null","","","","","","","","","","",""
"image-keyboard-response","11","25984","0.0-6.0-1.3","63e7ac6bcbc2e035cbeadf8a","bdp_trlrn","Tue Mar 14 2023 12:57:38 GMT-0400 (Eastern Daylight Time)","594513","Untrustworthy,Trustworthy","","2211","","","","rating","","trustrating_stim/white_mw099.bmp","4","","","","","","","","","","",""
"image-keyboard-response","12","26199","0.0-6.0-2.3","63e7ac6bcbc2e035cbeadf8a","bdp_trlrn","Tue Mar 14 2023 12:57:38 GMT-0400 (Eastern Daylight Time)","594513","Untrustworthy,Trustworthy","","null","","","","ratingFB","","trustrating_stim/white_mw099.bmp","null","","","","","","","","","","",""
"image-keyboard-response","13","28196","0.0-6.0-1.4","63e7ac6bcbc2e035cbeadf8a","bdp_trlrn","Tue Mar 14 2023 12:57:38 GMT-0400 (Eastern Daylight Time)","594513","Untrustworthy,Trustworthy","","1889","","","","rating","","trustrating_stim/white_00577_940928_fa_edt.bmp","2","","","","","","","","","","",""
"image-keyboard-response","14","28396","0.0-6.0-2.4","63e7ac6bcbc2e035cbeadf8a","bdp_trlrn","Tue Mar 14 2023 12:57:38 GMT-0400 (Eastern Daylight Time)","594513","Untrustworthy,Trustworthy","","null","","","","ratingFB","","trustrating_stim/white_00577_940928_fa_edt.bmp","null","","","","","","","","","","",""
"image-keyboard-response","15","30832","0.0-6.0-1.5","63e7ac6bcbc2e035cbeadf8a","bdp_trlrn","Tue Mar 14 2023 12:57:38 GMT-0400 (Eastern Daylight Time)","594513","Untrustworthy,Trustworthy","","2335","","","","rating","","trustrating_stim/white_00129_931230_fb_edt.bmp","6","","","","","","","","","","",""
"image-keyboard-response","16","31033","0.0-6.0-2.5","63e7ac6bcbc2e035cbeadf8a","bdp_trlrn","Tue Mar 14 2023 12:57:38 GMT-0400 (Eastern Daylight Time)","594513","Untrustworthy,Trustworthy","","null","","","","ratingFB","","trustrating_stim/white_00129_931230_fb_edt.bmp","null","","","","","","","","","","",""
"image-keyboard-response","17","32501","0.0-6.0-1.6","63e7ac6bcbc2e035cbeadf8a","bdp_trlrn","Tue Mar 14 2023 12:57:38 GMT-0400 (Eastern Daylight Time)","594513","Untrustworthy,Trustworthy","","1366","","","","rating","","trustrating_stim/white_00120_931230_fa_edt.bmp","7","","","","","","","","","","",""
"image-keyboard-response","18","32702","0.0-6.0-2.6","63e7ac6bcbc2e035cbeadf8a","bdp_trlrn","Tue Mar 14 2023 12:57:38 GMT-0400 (Eastern Daylight Time)","594513","Untrustworthy,Trustworthy","","null","","","","ratingFB","","trustrating_stim/white_00120_931230_fa_edt.bmp","null","","","","","","","","","","",""
"image-keyboard-response","19","34361","0.0-6.0-1.7","63e7ac6bcbc2e035cbeadf8a","bdp_trlrn","Tue Mar 14 2023 12:57:38 GMT-0400 (Eastern Daylight Time)","594513","Untrustworthy,Trustworthy","","1559","","","","rating","","trustrating_stim/white_00602_940928_fb_edt.bmp","5","","","","","","","","","","",""
"image-keyboard-response","20","34563","0.0-6.0-2.7","63e7ac6bcbc2e035cbeadf8a","bdp_trlrn","Tue Mar 14 2023 12:57:38 GMT-0400 (Eastern Daylight Time)","594513","Untrustworthy,Trustworthy","","null","","","","ratingFB","","trustrating_stim/white_00602_940928_fb_edt.bmp","null","","","","","","","","","","",""
"image-keyboard-response","21","36996","0.0-6.0-1.8","63e7ac6bcbc2e035cbeadf8a","bdp_trlrn","Tue Mar 14 2023 12:57:38 GMT-0400 (Eastern Daylight Time)","594513","Untrustworthy,Trustworthy","","2332","","","","rating","","trustrating_stim/white_00761_941201_fb_edt.bmp","9","","","","","","","","","","",""
"image-keyboard-response","22","37197","0.0-6.0-2.8","63e7ac6bcbc2e035cbeadf8a","bdp_trlrn","Tue Mar 14 2023 12:57:38 GMT-0400 (Eastern Daylight Time)","594513","Untrustworthy,Trustworthy","","null","","","","ratingFB","","trustrating_stim/white_00761_941201_fb_edt.bmp","null","","","","","","","","","","",""
"image-keyboard-response","23","39669","0.0-6.0-1.9","63e7ac6bcbc2e035cbeadf8a","bdp_trlrn","Tue Mar 14 2023 12:57:38 GMT-0400 (Eastern Daylight Time)","594513","Untrustworthy,Trustworthy","","2372","","","","rating","","trustrating_stim/white_mw084.bmp","5","","","","","","","","","","",""
"image-keyboard-response","24","39870","0.0-6.0-2.9","63e7ac6bcbc2e035cbeadf8a","bdp_trlrn","Tue Mar 14 2023 12:57:38 GMT-0400 (Eastern Daylight Time)","594513","Untrustworthy,Trustworthy","","null","","","","ratingFB","","trustrating_stim/white_mw084.bmp","null","","","","","","","","","","",""
"image-keyboard-response","25","41559","0.0-6.0-1.10","63e7ac6bcbc2e035cbeadf8a","bdp_trlrn","Tue Mar 14 2023 12:57:38 GMT-0400 (Eastern Daylight Time)","594513","Untrustworthy,Trustworthy","","1587","","","","rating","","trustrating_stim/white_mw048.bmp","1","","","","","","","","","","",""
"image-keyboard-response","26","41759","0.0-6.0-2.10","63e7ac6bcbc2e035cbeadf8a","bdp_trlrn","Tue Mar 14 2023 12:57:38 GMT-0400 (Eastern Daylight Time)","594513","Untrustworthy,Trustworthy","","null","","","","ratingFB","","trustrating_stim/white_mw048.bmp","null","","","","","","","","","","",""
"image-keyboard-response","27","44151","0.0-6.0-1.11","63e7ac6bcbc2e035cbeadf8a","bdp_trlrn","Tue Mar 14 2023 12:57:38 GMT-0400 (Eastern Daylight Time)","594513","Untrustworthy,Trustworthy","","2290","","","","rating","","trustrating_stim/white_00519_940519_fb_edt.bmp","2","","","","","","","","","","",""
"image-keyboard-response","28","44353","0.0-6.0-2.11","63e7ac6bcbc2e035cbeadf8a","bdp_trlrn","Tue Mar 14 2023 12:57:38 GMT-0400 (Eastern Daylight Time)","594513","Untrustworthy,Trustworthy","","null","","","","ratingFB","","trustrating_stim/white_00519_940519_fb_edt.bmp","null","","","","","","","","","","",""
"image-keyboard-response","29","46903","0.0-6.0-1.12","63e7ac6bcbc2e035cbeadf8a","bdp_trlrn","Tue Mar 14 2023 12:57:38 GMT-0400 (Eastern Daylight Time)","594513","Untrustworthy,Trustworthy","","2449","","","","rating","","trustrating_stim/white_mw097.bmp","3","","","","","","","","","","",""
"image-keyboard-response","30","47104","0.0-6.0-2.12","63e7ac6bcbc2e035cbeadf8a","bdp_trlrn","Tue Mar 14 2023 12:57:38 GMT-0400 (Eastern Daylight Time)","594513","Untrustworthy,Trustworthy","","null","","","","ratingFB","","trustrating_stim/white_mw097.bmp","null","","","","","","","","","","",""
"image-keyboard-response","31","48529","0.0-6.0-1.13","63e7ac6bcbc2e035cbeadf8a","bdp_trlrn","Tue Mar 14 2023 12:57:38 GMT-0400 (Eastern Daylight Time)","594513","Untrustworthy,Trustworthy","","1324","","","","rating","","trustrating_stim/white_00785_941205_fb_edt.bmp","3","","","","","","","","","","",""
"image-keyboard-response","32","48730","0.0-6.0-2.13","63e7ac6bcbc2e035cbeadf8a","bdp_trlrn","Tue Mar 14 2023 12:57:38 GMT-0400 (Eastern Daylight Time)","594513","Untrustworthy,Trustworthy","","null","","","","ratingFB","","trustrating_stim/white_00785_941205_fb_edt.bmp","null","","","","","","","","","","",""
"image-keyboard-response","33","50085","0.0-6.0-1.14","63e7ac6bcbc2e035cbeadf8a","bdp_trlrn","Tue Mar 14 2023 12:57:38 GMT-0400 (Eastern Daylight Time)","594513","Untrustworthy,Trustworthy","","1254","","","","rating","","trustrating_stim/white_mw046.bmp","3","","","","","","","","","","",""
"image-keyboard-response","34","50286","0.0-6.0-2.14","63e7ac6bcbc2e035cbeadf8a","bdp_trlrn","Tue Mar 14 2023 12:57:38 GMT-0400 (Eastern Daylight Time)","594513","Untrustworthy,Trustworthy","","null","","","","ratingFB","","trustrating_stim/white_mw046.bmp","null","","","","","","","","","","",""
"image-keyboard-response","35","52697","0.0-6.0-1.15","63e7ac6bcbc2e035cbeadf8a","bdp_trlrn","Tue Mar 14 2023 12:57:38 GMT-0400 (Eastern Daylight Time)","594513","Untrustworthy,Trustworthy","","2310","","","","rating","","trustrating_stim/white_00299_940422_fa_edt.bmp","4","","","","","","","","","","",""
"image-keyboard-response","36","52898","0.0-6.0-2.15","63e7ac6bcbc2e035cbeadf8a","bdp_trlrn","Tue Mar 14 2023 12:57:38 GMT-0400 (Eastern Daylight Time)","594513","Untrustworthy,Trustworthy","","null","","","","ratingFB","","trustrating_stim/white_00299_940422_fa_edt.bmp","null","","","","","","","","","","",""
"image-keyboard-response","37","54810","0.0-6.0-1.16","63e7ac6bcbc2e035cbeadf8a","bdp_trlrn","Tue Mar 14 2023 12:57:38 GMT-0400 (Eastern Daylight Time)","594513","Untrustworthy,Trustworthy","","1811","","","","rating","","trustrating_stim/white_00659_941121_fa_edt.bmp","1","","","","","","","","","","",""
"image-keyboard-response","38","55011","0.0-6.0-2.16","63e7ac6bcbc2e035cbeadf8a","bdp_trlrn","Tue Mar 14 2023 12:57:38 GMT-0400 (Eastern Daylight Time)","594513","Untrustworthy,Trustworthy","","null","","","","ratingFB","","trustrating_stim/white_00659_941121_fa_edt.bmp","null","","","","","","","","","","",""
"image-keyboard-response","39","55946","0.0-6.0-1.17","63e7ac6bcbc2e035cbeadf8a","bdp_trlrn","Tue Mar 14 2023 12:57:38 GMT-0400 (Eastern Daylight Time)","594513","Untrustworthy,Trustworthy","","835","","","","rating","","trustrating_stim/white_00340_940422_fa_edt.bmp","1","","","","","","","","","","",""
"image-keyboard-response","40","56147","0.0-6.0-2.17","63e7ac6bcbc2e035cbeadf8a","bdp_trlrn","Tue Mar 14 2023 12:57:38 GMT-0400 (Eastern Daylight Time)","594513","Untrustworthy,Trustworthy","","null","","","","ratingFB","","trustrating_stim/white_00340_940422_fa_edt.bmp","null","","","","","","","","","","",""
"image-keyboard-response","41","57382","0.0-6.0-1.18","63e7ac6bcbc2e035cbeadf8a","bdp_trlrn","Tue Mar 14 2023 12:57:38 GMT-0400 (Eastern Daylight Time)","594513","Untrustworthy,Trustworthy","","1134","","","","rating","","trustrating_stim/white_00757_941201_fa_edt.bmp","1","","","","","","","","","","",""
"image-keyboard-response","42","57583","0.0-6.0-2.18","63e7ac6bcbc2e035cbeadf8a","bdp_trlrn","Tue Mar 14 2023 12:57:38 GMT-0400 (Eastern Daylight Time)","594513","Untrustworthy,Trustworthy","","null","","","","ratingFB","","trustrating_stim/white_00757_941201_fa_edt.bmp","null","","","","","","","","","","",""
"image-keyboard-response","43","58602","0.0-6.0-1.19","63e7ac6bcbc2e035cbeadf8a","bdp_trlrn","Tue Mar 14 2023 12:57:38 GMT-0400 (Eastern Daylight Time)","594513","Untrustworthy,Trustworthy","","919","","","","rating","","trustrating_stim/white_mw060.bmp","1","","","","","","","","","","",""
"image-keyboard-response","44","58803","0.0-6.0-2.19","63e7ac6bcbc2e035cbeadf8a","bdp_trlrn","Tue Mar 14 2023 12:57:38 GMT-0400 (Eastern Daylight Time)","594513","Untrustworthy,Trustworthy","","null","","","","ratingFB","","trustrating_stim/white_mw060.bmp","null","","","","","","","","","","",""
"image-keyboard-response","45","61857","0.0-6.0-1.20","63e7ac6bcbc2e035cbeadf8a","bdp_trlrn","Tue Mar 14 2023 12:57:38 GMT-0400 (Eastern Daylight Time)","594513","Untrustworthy,Trustworthy","","2952","","","","rating","","trustrating_stim/white_mw053.bmp","3","","","","","","","","","","",""
"image-keyboard-response","46","62058","0.0-6.0-2.20","63e7ac6bcbc2e035cbeadf8a","bdp_trlrn","Tue Mar 14 2023 12:57:38 GMT-0400 (Eastern Daylight Time)","594513","Untrustworthy,Trustworthy","","null","","","","ratingFB","","trustrating_stim/white_mw053.bmp","null","","","","","","","","","","",""
"image-keyboard-response","47","63916","0.0-6.0-1.21","63e7ac6bcbc2e035cbeadf8a","bdp_trlrn","Tue Mar 14 2023 12:57:38 GMT-0400 (Eastern Daylight Time)","594513","Untrustworthy,Trustworthy","","1756","","","","rating","","trustrating_stim/white_mw035.bmp","6","","","","","","","","","","",""
"image-keyboard-response","48","64117","0.0-6.0-2.21","63e7ac6bcbc2e035cbeadf8a","bdp_trlrn","Tue Mar 14 2023 12:57:38 GMT-0400 (Eastern Daylight Time)","594513","Untrustworthy,Trustworthy","","null","","","","ratingFB","","trustrating_stim/white_mw035.bmp","null","","","","","","","","","","",""
"image-keyboard-response","49","66331","0.0-6.0-1.22","63e7ac6bcbc2e035cbeadf8a","bdp_trlrn","Tue Mar 14 2023 12:57:38 GMT-0400 (Eastern Daylight Time)","594513","Untrustworthy,Trustworthy","","2113","","","","rating","","trustrating_stim/white_mw033.bmp","3","","","","","","","","","","",""
"image-keyboard-response","50","66531","0.0-6.0-2.22","63e7ac6bcbc2e035cbeadf8a","bdp_trlrn","Tue Mar 14 2023 12:57:38 GMT-0400 (Eastern Daylight Time)","594513","Untrustworthy,Trustworthy","","null","","","","ratingFB","","trustrating_stim/white_mw033.bmp","null","","","","","","","","","","",""
"image-keyboard-response","51","68122","0.0-6.0-1.23","63e7ac6bcbc2e035cbeadf8a","bdp_trlrn","Tue Mar 14 2023 12:57:38 GMT-0400 (Eastern Daylight Time)","594513","Untrustworthy,Trustworthy","","1490","","","","rating","","trustrating_stim/white_mw089.bmp","3","","","","","","","","","","",""
"image-keyboard-response","52","68323","0.0-6.0-2.23","63e7ac6bcbc2e035cbeadf8a","bdp_trlrn","Tue Mar 14 2023 12:57:38 GMT-0400 (Eastern Daylight Time)","594513","Untrustworthy,Trustworthy","","null","","","","ratingFB","","trustrating_stim/white_mw089.bmp","null","","","","","","","","","","",""
"image-keyboard-response","53","69482","0.0-6.0-1.24","63e7ac6bcbc2e035cbeadf8a","bdp_trlrn","Tue Mar 14 2023 12:57:38 GMT-0400 (Eastern Daylight Time)","594513","Untrustworthy,Trustworthy","","1058","","","","rating","","trustrating_stim/white_mw066.bmp","3","","","","","","","","","","",""
"image-keyboard-response","54","69683","0.0-6.0-2.24","63e7ac6bcbc2e035cbeadf8a","bdp_trlrn","Tue Mar 14 2023 12:57:38 GMT-0400 (Eastern Daylight Time)","594513","Untrustworthy,Trustworthy","","null","","","","ratingFB","","trustrating_stim/white_mw066.bmp","null","","","","","","","","","","",""
"image-keyboard-response","55","72090","0.0-6.0-1.25","63e7ac6bcbc2e035cbeadf8a","bdp_trlrn","Tue Mar 14 2023 12:57:38 GMT-0400 (Eastern Daylight Time)","594513","Untrustworthy,Trustworthy","","2306","","","","rating","","trustrating_stim/white_00223_940128_fb_edt.bmp","3","","","","","","","","","","",""
"image-keyboard-response","56","72291","0.0-6.0-2.25","63e7ac6bcbc2e035cbeadf8a","bdp_trlrn","Tue Mar 14 2023 12:57:38 GMT-0400 (Eastern Daylight Time)","594513","Untrustworthy,Trustworthy","","null","","","","ratingFB","","trustrating_stim/white_00223_940128_fb_edt.bmp","null","","","","","","","","","","",""
"image-keyboard-response","57","73825","0.0-6.0-1.26","63e7ac6bcbc2e035cbeadf8a","bdp_trlrn","Tue Mar 14 2023 12:57:38 GMT-0400 (Eastern Daylight Time)","594513","Untrustworthy,Trustworthy","","1432","","","","rating","","trustrating_stim/white_mw049.bmp","5","","","","","","","","","","",""
"image-keyboard-response","58","74026","0.0-6.0-2.26","63e7ac6bcbc2e035cbeadf8a","bdp_trlrn","Tue Mar 14 2023 12:57:38 GMT-0400 (Eastern Daylight Time)","594513","Untrustworthy,Trustworthy","","null","","","","ratingFB","","trustrating_stim/white_mw049.bmp","null","","","","","","","","","","",""
"image-keyboard-response","59","75734","0.0-6.0-1.27","63e7ac6bcbc2e035cbeadf8a","bdp_trlrn","Tue Mar 14 2023 12:57:38 GMT-0400 (Eastern Daylight Time)","594513","Untrustworthy,Trustworthy","","1607","","","","rating","","trustrating_stim/white_mw071.bmp","3","","","","","","","","","","",""
"image-keyboard-response","60","75934","0.0-6.0-2.27","63e7ac6bcbc2e035cbeadf8a","bdp_trlrn","Tue Mar 14 2023 12:57:38 GMT-0400 (Eastern Daylight Time)","594513","Untrustworthy,Trustworthy","","null","","","","ratingFB","","trustrating_stim/white_mw071.bmp","null","","","","","","","","","","",""
"image-keyboard-response","61","77553","0.0-6.0-1.28","63e7ac6bcbc2e035cbeadf8a","bdp_trlrn","Tue Mar 14 2023 12:57:38 GMT-0400 (Eastern Daylight Time)","594513","Untrustworthy,Trustworthy","","1518","","","","rating","","trustrating_stim/white_00807_941205_fb_edt.bmp","2","","","","","","","","","","",""
"image-keyboard-response","62","77753","0.0-6.0-2.28","63e7ac6bcbc2e035cbeadf8a","bdp_trlrn","Tue Mar 14 2023 12:57:38 GMT-0400 (Eastern Daylight Time)","594513","Untrustworthy,Trustworthy","","null","","","","ratingFB","","trustrating_stim/white_00807_941205_fb_edt.bmp","null","","","","","","","","","","",""
"image-keyboard-response","63","78749","0.0-6.0-1.29","63e7ac6bcbc2e035cbeadf8a","bdp_trlrn","Tue Mar 14 2023 12:57:38 GMT-0400 (Eastern Daylight Time)","594513","Untrustworthy,Trustworthy","","895","","","","rating","","trustrating_stim/white_mw063.bmp","1","","","","","","","","","","",""
"image-keyboard-response","64","78949","0.0-6.0-2.29","63e7ac6bcbc2e035cbeadf8a","bdp_trlrn","Tue Mar 14 2023 12:57:38 GMT-0400 (Eastern Daylight Time)","594513","Untrustworthy,Trustworthy","","null","","","","ratingFB","","trustrating_stim/white_mw063.bmp","null","","","","","","","","","","",""
"image-keyboard-response","65","80412","0.0-6.0-1.30","63e7ac6bcbc2e035cbeadf8a","bdp_trlrn","Tue Mar 14 2023 12:57:38 GMT-0400 (Eastern Daylight Time)","594513","Untrustworthy,Trustworthy","","1362","","","","rating","","trustrating_stim/white_00602_940928_fb_edt.bmp","2","","","","","","","","","","",""
"image-keyboard-response","66","80613","0.0-6.0-2.30","63e7ac6bcbc2e035cbeadf8a","bdp_trlrn","Tue Mar 14 2023 12:57:38 GMT-0400 (Eastern Daylight Time)","594513","Untrustworthy,Trustworthy","","null","","","","ratingFB","","trustrating_stim/white_00602_940928_fb_edt.bmp","null","","","","","","","","","","",""
"image-keyboard-response","67","83303","0.0-6.0-1.31","63e7ac6bcbc2e035cbeadf8a","bdp_trlrn","Tue Mar 14 2023 12:57:38 GMT-0400 (Eastern Daylight Time)","594513","Untrustworthy,Trustworthy","","2589","","","","rating","","trustrating_stim/white_00898_960530_fa_edt.bmp","3","","","","","","","","","","",""
"image-keyboard-response","68","83504","0.0-6.0-2.31","63e7ac6bcbc2e035cbeadf8a","bdp_trlrn","Tue Mar 14 2023 12:57:38 GMT-0400 (Eastern Daylight Time)","594513","Untrustworthy,Trustworthy","","null","","","","ratingFB","","trustrating_stim/white_00898_960530_fa_edt.bmp","null","","","","","","","","","","",""
"image-keyboard-response","69","84779","0.0-6.0-1.32","63e7ac6bcbc2e035cbeadf8a","bdp_trlrn","Tue Mar 14 2023 12:57:38 GMT-0400 (Eastern Daylight Time)","594513","Untrustworthy,Trustworthy","","1173","","","","rating","","trustrating_stim/white_00223_940128_fb_edt.bmp","3","","","","","","","","","","",""
"image-keyboard-response","70","84979","0.0-6.0-2.32","63e7ac6bcbc2e035cbeadf8a","bdp_trlrn","Tue Mar 14 2023 12:57:38 GMT-0400 (Eastern Daylight Time)","594513","Untrustworthy,Trustworthy","","null","","","","ratingFB","","trustrating_stim/white_00223_940128_fb_edt.bmp","null","","","","","","","","","","",""
"image-keyboard-response","71","85947","0.0-6.0-1.33","63e7ac6bcbc2e035cbeadf8a","bdp_trlrn","Tue Mar 14 2023 12:57:38 GMT-0400 (Eastern Daylight Time)","594513","Untrustworthy,Trustworthy","","866","","","","rating","","trustrating_stim/white_mw046.bmp","3","","","","","","","","","","",""
"image-keyboard-response","72","86148","0.0-6.0-2.33","63e7ac6bcbc2e035cbeadf8a","bdp_trlrn","Tue Mar 14 2023 12:57:38 GMT-0400 (Eastern Daylight Time)","594513","Untrustworthy,Trustworthy","","null","","","","ratingFB","","trustrating_stim/white_mw046.bmp","null","","","","","","","","","","",""
"image-keyboard-response","73","87135","0.0-6.0-1.34","63e7ac6bcbc2e035cbeadf8a","bdp_trlrn","Tue Mar 14 2023 12:57:38 GMT-0400 (Eastern Daylight Time)","594513","Untrustworthy,Trustworthy","","886","","","","rating","","trustrating_stim/white_00340_940422_fa_edt.bmp","1","","","","","","","","","","",""
"image-keyboard-response","74","87335","0.0-6.0-2.34","63e7ac6bcbc2e035cbeadf8a","bdp_trlrn","Tue Mar 14 2023 12:57:38 GMT-0400 (Eastern Daylight Time)","594513","Untrustworthy,Trustworthy","","null","","","","ratingFB","","trustrating_stim/white_00340_940422_fa_edt.bmp","null","","","","","","","","","","",""
"image-keyboard-response","75","88411","0.0-6.0-1.35","63e7ac6bcbc2e035cbeadf8a","bdp_trlrn","Tue Mar 14 2023 12:57:38 GMT-0400 (Eastern Daylight Time)","594513","Untrustworthy,Trustworthy","","975","","","","rating","","trustrating_stim/white_00757_941201_fa_edt.bmp","1","","","","","","","","","","",""
"image-keyboard-response","76","88611","0.0-6.0-2.35","63e7ac6bcbc2e035cbeadf8a","bdp_trlrn","Tue Mar 14 2023 12:57:38 GMT-0400 (Eastern Daylight Time)","594513","Untrustworthy,Trustworthy","","null","","","","ratingFB","","trustrating_stim/white_00757_941201_fa_edt.bmp","null","","","","","","","","","","",""
"image-keyboard-response","77","90322","0.0-6.0-1.36","63e7ac6bcbc2e035cbeadf8a","bdp_trlrn","Tue Mar 14 2023 12:57:38 GMT-0400 (Eastern Daylight Time)","594513","Untrustworthy,Trustworthy","","1610","","","","rating","","trustrating_stim/white_00785_941205_fb_edt.bmp","3","","","","","","","","","","",""
"image-keyboard-response","78","90523","0.0-6.0-2.36","63e7ac6bcbc2e035cbeadf8a","bdp_trlrn","Tue Mar 14 2023 12:57:38 GMT-0400 (Eastern Daylight Time)","594513","Untrustworthy,Trustworthy","","null","","","","ratingFB","","trustrating_stim/white_00785_941205_fb_edt.bmp","null","","","","","","","","","","",""
"image-keyboard-response","79","92169","0.0-6.0-1.37","63e7ac6bcbc2e035cbeadf8a","bdp_trlrn","Tue Mar 14 2023 12:57:38 GMT-0400 (Eastern Daylight Time)","594513","Untrustworthy,Trustworthy","","1545","","","","rating","","trustrating_stim/white_00761_941201_fb_edt.bmp","6","","","","","","","","","","",""
"image-keyboard-response","80","92370","0.0-6.0-2.37","63e7ac6bcbc2e035cbeadf8a","bdp_trlrn","Tue Mar 14 2023 12:57:38 GMT-0400 (Eastern Daylight Time)","594513","Untrustworthy,Trustworthy","","null","","","","ratingFB","","trustrating_stim/white_00761_941201_fb_edt.bmp","null","","","","","","","","","","",""
"image-keyboard-response","81","93744","0.0-6.0-1.38","63e7ac6bcbc2e035cbeadf8a","bdp_trlrn","Tue Mar 14 2023 12:57:38 GMT-0400 (Eastern Daylight Time)","594513","Untrustworthy,Trustworthy","","1274","","","","rating","","trustrating_stim/white_00129_931230_fb_edt.bmp","5","","","","","","","","","","",""
"image-keyboard-response","82","93944","0.0-6.0-2.38","63e7ac6bcbc2e035cbeadf8a","bdp_trlrn","Tue Mar 14 2023 12:57:38 GMT-0400 (Eastern Daylight Time)","594513","Untrustworthy,Trustworthy","","null","","","","ratingFB","","trustrating_stim/white_00129_931230_fb_edt.bmp","null","","","","","","","","","","",""
"image-keyboard-response","83","95989","0.0-6.0-1.39","63e7ac6bcbc2e035cbeadf8a","bdp_trlrn","Tue Mar 14 2023 12:57:38 GMT-0400 (Eastern Daylight Time)","594513","Untrustworthy,Trustworthy","","1944","","","","rating","","trustrating_stim/white_mw056.bmp","3","","","","","","","","","","",""
"image-keyboard-response","84","96189","0.0-6.0-2.39","63e7ac6bcbc2e035cbeadf8a","bdp_trlrn","Tue Mar 14 2023 12:57:38 GMT-0400 (Eastern Daylight Time)","594513","Untrustworthy,Trustworthy","","null","","","","ratingFB","","trustrating_stim/white_mw056.bmp","null","","","","","","","","","","",""
"image-keyboard-response","85","97416","0.0-6.0-1.40","63e7ac6bcbc2e035cbeadf8a","bdp_trlrn","Tue Mar 14 2023 12:57:38 GMT-0400 (Eastern Daylight Time)","594513","Untrustworthy,Trustworthy","","1126","","","","rating","","trustrating_stim/white_00299_940422_fa_edt.bmp","3","","","","","","","","","","",""
"image-keyboard-response","86","97616","0.0-6.0-2.40","63e7ac6bcbc2e035cbeadf8a","bdp_trlrn","Tue Mar 14 2023 12:57:38 GMT-0400 (Eastern Daylight Time)","594513","Untrustworthy,Trustworthy","","null","","","","ratingFB","","trustrating_stim/white_00299_940422_fa_edt.bmp","null","","","","","","","","","","",""
"image-keyboard-response","87","99880","0.0-6.0-1.41","63e7ac6bcbc2e035cbeadf8a","bdp_trlrn","Tue Mar 14 2023 12:57:38 GMT-0400 (Eastern Daylight Time)","594513","Untrustworthy,Trustworthy","","2163","","","","rating","","trustrating_stim/white_00577_940928_fa_edt.bmp","2","","","","","","","","","","",""
"image-keyboard-response","88","100080","0.0-6.0-2.41","63e7ac6bcbc2e035cbeadf8a","bdp_trlrn","Tue Mar 14 2023 12:57:38 GMT-0400 (Eastern Daylight Time)","594513","Untrustworthy,Trustworthy","","null","","","","ratingFB","","trustrating_stim/white_00577_940928_fa_edt.bmp","null","","","","","","","","","","",""
"image-keyboard-response","89","101535","0.0-6.0-1.42","63e7ac6bcbc2e035cbeadf8a","bdp_trlrn","Tue Mar 14 2023 12:57:38 GMT-0400 (Eastern Daylight Time)","594513","Untrustworthy,Trustworthy","","1353","","","","rating","","trustrating_stim/white_mw099.bmp","2","","","","","","","","","","",""
"image-keyboard-response","90","101735","0.0-6.0-2.42","63e7ac6bcbc2e035cbeadf8a","bdp_trlrn","Tue Mar 14 2023 12:57:38 GMT-0400 (Eastern Daylight Time)","594513","Untrustworthy,Trustworthy","","null","","","","ratingFB","","trustrating_stim/white_mw099.bmp","null","","","","","","","","","","",""
"image-keyboard-response","91","102984","0.0-6.0-1.43","63e7ac6bcbc2e035cbeadf8a","bdp_trlrn","Tue Mar 14 2023 12:57:38 GMT-0400 (Eastern Daylight Time)","594513","Untrustworthy,Trustworthy","","1147","","","","rating","","trustrating_stim/white_mw066.bmp","5","","","","","","","","","","",""
"image-keyboard-response","92","103185","0.0-6.0-2.43","63e7ac6bcbc2e035cbeadf8a","bdp_trlrn","Tue Mar 14 2023 12:57:38 GMT-0400 (Eastern Daylight Time)","594513","Untrustworthy,Trustworthy","","null","","","","ratingFB","","trustrating_stim/white_mw066.bmp","null","","","","","","","","","","",""
"image-keyboard-response","93","104243","0.0-6.0-1.44","63e7ac6bcbc2e035cbeadf8a","bdp_trlrn","Tue Mar 14 2023 12:57:38 GMT-0400 (Eastern Daylight Time)","594513","Untrustworthy,Trustworthy","","957","","","","rating","","trustrating_stim/white_00659_941121_fa_edt.bmp","1","","","","","","","","","","",""
"image-keyboard-response","94","104444","0.0-6.0-2.44","63e7ac6bcbc2e035cbeadf8a","bdp_trlrn","Tue Mar 14 2023 12:57:38 GMT-0400 (Eastern Daylight Time)","594513","Untrustworthy,Trustworthy","","null","","","","ratingFB","","trustrating_stim/white_00659_941121_fa_edt.bmp","null","","","","","","","","","","",""
"image-keyboard-response","95","105615","0.0-6.0-1.45","63e7ac6bcbc2e035cbeadf8a","bdp_trlrn","Tue Mar 14 2023 12:57:38 GMT-0400 (Eastern Daylight Time)","594513","Untrustworthy,Trustworthy","","1071","","","","rating","","trustrating_stim/white_mw053.bmp","5","","","","","","","","","","",""
"image-keyboard-response","96","105816","0.0-6.0-2.45","63e7ac6bcbc2e035cbeadf8a","bdp_trlrn","Tue Mar 14 2023 12:57:38 GMT-0400 (Eastern Daylight Time)","594513","Untrustworthy,Trustworthy","","null","","","","ratingFB","","trustrating_stim/white_mw053.bmp","null","","","","","","","","","","",""
"image-keyboard-response","97","108019","0.0-6.0-1.46","63e7ac6bcbc2e035cbeadf8a","bdp_trlrn","Tue Mar 14 2023 12:57:38 GMT-0400 (Eastern Daylight Time)","594513","Untrustworthy,Trustworthy","","2101","","","","rating","","trustrating_stim/white_mw097.bmp","3","","","","","","","","","","",""
"image-keyboard-response","98","108219","0.0-6.0-2.46","63e7ac6bcbc2e035cbeadf8a","bdp_trlrn","Tue Mar 14 2023 12:57:38 GMT-0400 (Eastern Daylight Time)","594513","Untrustworthy,Trustworthy","","null","","","","ratingFB","","trustrating_stim/white_mw097.bmp","null","","","","","","","","","","",""
"image-keyboard-response","99","109810","0.0-6.0-1.47","63e7ac6bcbc2e035cbeadf8a","bdp_trlrn","Tue Mar 14 2023 12:57:38 GMT-0400 (Eastern Daylight Time)","594513","Untrustworthy,Trustworthy","","1489","","","","rating","","trustrating_stim/white_mw035.bmp","5","","","","","","","","","","",""
"image-keyboard-response","100","110011","0.0-6.0-2.47","63e7ac6bcbc2e035cbeadf8a","bdp_trlrn","Tue Mar 14 2023 12:57:38 GMT-0400 (Eastern Daylight Time)","594513","Untrustworthy,Trustworthy","","null","","","","ratingFB","","trustrating_stim/white_mw035.bmp","null","","","","","","","","","","",""
"image-keyboard-response","101","111221","0.0-6.0-1.48","63e7ac6bcbc2e035cbeadf8a","bdp_trlrn","Tue Mar 14 2023 12:57:38 GMT-0400 (Eastern Daylight Time)","594513","Untrustworthy,Trustworthy","","1109","","","","rating","","trustrating_stim/white_mw063.bmp","1","","","","","","","","","","",""
"image-keyboard-response","102","111422","0.0-6.0-2.48","63e7ac6bcbc2e035cbeadf8a","bdp_trlrn","Tue Mar 14 2023 12:57:38 GMT-0400 (Eastern Daylight Time)","594513","Untrustworthy,Trustworthy","","null","","","","ratingFB","","trustrating_stim/white_mw063.bmp","null","","","","","","","","","","",""
"image-keyboard-response","103","112921","0.0-6.0-1.49","63e7ac6bcbc2e035cbeadf8a","bdp_trlrn","Tue Mar 14 2023 12:57:38 GMT-0400 (Eastern Daylight Time)","594513","Untrustworthy,Trustworthy","","1398","","","","rating","","trustrating_stim/white_00120_931230_fa_edt.bmp","6","","","","","","","","","","",""
"image-keyboard-response","104","113122","0.0-6.0-2.49","63e7ac6bcbc2e035cbeadf8a","bdp_trlrn","Tue Mar 14 2023 12:57:38 GMT-0400 (Eastern Daylight Time)","594513","Untrustworthy,Trustworthy","","null","","","","ratingFB","","trustrating_stim/white_00120_931230_fa_edt.bmp","null","","","","","","","","","","",""
"image-keyboard-response","105","114914","0.0-6.0-1.50","63e7ac6bcbc2e035cbeadf8a","bdp_trlrn","Tue Mar 14 2023 12:57:38 GMT-0400 (Eastern Daylight Time)","594513","Untrustworthy,Trustworthy","","1690","","","","rating","","trustrating_stim/white_mw033.bmp","5","","","","","","","","","","",""
"image-keyboard-response","106","115115","0.0-6.0-2.50","63e7ac6bcbc2e035cbeadf8a","bdp_trlrn","Tue Mar 14 2023 12:57:38 GMT-0400 (Eastern Daylight Time)","594513","Untrustworthy,Trustworthy","","null","","","","ratingFB","","trustrating_stim/white_mw033.bmp","null","","","","","","","","","","",""
"image-keyboard-response","107","116808","0.0-6.0-1.51","63e7ac6bcbc2e035cbeadf8a","bdp_trlrn","Tue Mar 14 2023 12:57:38 GMT-0400 (Eastern Daylight Time)","594513","Untrustworthy,Trustworthy","","1593","","","","rating","","trustrating_stim/white_mw089.bmp","3","","","","","","","","","","",""
"image-keyboard-response","108","117008","0.0-6.0-2.51","63e7ac6bcbc2e035cbeadf8a","bdp_trlrn","Tue Mar 14 2023 12:57:38 GMT-0400 (Eastern Daylight Time)","594513","Untrustworthy,Trustworthy","","null","","","","ratingFB","","trustrating_stim/white_mw089.bmp","null","","","","","","","","","","",""
"image-keyboard-response","109","118001","0.0-6.0-1.52","63e7ac6bcbc2e035cbeadf8a","bdp_trlrn","Tue Mar 14 2023 12:57:38 GMT-0400 (Eastern Daylight Time)","594513","Untrustworthy,Trustworthy","","891","","","","rating","","trustrating_stim/white_mw084.bmp","3","","","","","","","","","","",""
"image-keyboard-response","110","118203","0.0-6.0-2.52","63e7ac6bcbc2e035cbeadf8a","bdp_trlrn","Tue Mar 14 2023 12:57:38 GMT-0400 (Eastern Daylight Time)","594513","Untrustworthy,Trustworthy","","null","","","","ratingFB","","trustrating_stim/white_mw084.bmp","null","","","","","","","","","","",""
"image-keyboard-response","111","119117","0.0-6.0-1.53","63e7ac6bcbc2e035cbeadf8a","bdp_trlrn","Tue Mar 14 2023 12:57:38 GMT-0400 (Eastern Daylight Time)","594513","Untrustworthy,Trustworthy","","814","","","","rating","","trustrating_stim/white_mw071.bmp","3","","","","","","","","","","",""
"image-keyboard-response","112","119318","0.0-6.0-2.53","63e7ac6bcbc2e035cbeadf8a","bdp_trlrn","Tue Mar 14 2023 12:57:38 GMT-0400 (Eastern Daylight Time)","594513","Untrustworthy,Trustworthy","","null","","","","ratingFB","","trustrating_stim/white_mw071.bmp","null","","","","","","","","","","",""
"image-keyboard-response","113","120301","0.0-6.0-1.54","63e7ac6bcbc2e035cbeadf8a","bdp_trlrn","Tue Mar 14 2023 12:57:38 GMT-0400 (Eastern Daylight Time)","594513","Untrustworthy,Trustworthy","","883","","","","rating","","trustrating_stim/white_mw060.bmp","1","","","","","","","","","","",""
"image-keyboard-response","114","120502","0.0-6.0-2.54","63e7ac6bcbc2e035cbeadf8a","bdp_trlrn","Tue Mar 14 2023 12:57:38 GMT-0400 (Eastern Daylight Time)","594513","Untrustworthy,Trustworthy","","null","","","","ratingFB","","trustrating_stim/white_mw060.bmp","null","","","","","","","","","","",""
"image-keyboard-response","115","121765","0.0-6.0-1.55","63e7ac6bcbc2e035cbeadf8a","bdp_trlrn","Tue Mar 14 2023 12:57:38 GMT-0400 (Eastern Daylight Time)","594513","Untrustworthy,Trustworthy","","1162","","","","rating","","trustrating_stim/white_00519_940519_fb_edt.bmp","2","","","","","","","","","","",""
"image-keyboard-response","116","121966","0.0-6.0-2.55","63e7ac6bcbc2e035cbeadf8a","bdp_trlrn","Tue Mar 14 2023 12:57:38 GMT-0400 (Eastern Daylight Time)","594513","Untrustworthy,Trustworthy","","null","","","","ratingFB","","trustrating_stim/white_00519_940519_fb_edt.bmp","null","","","","","","","","","","",""
"image-keyboard-response","117","123675","0.0-6.0-1.56","63e7ac6bcbc2e035cbeadf8a","bdp_trlrn","Tue Mar 14 2023 12:57:38 GMT-0400 (Eastern Daylight Time)","594513","Untrustworthy,Trustworthy","","1607","","","","rating","","trustrating_stim/white_mw048.bmp","1","","","","","","","","","","",""
"image-keyboard-response","118","123876","0.0-6.0-2.56","63e7ac6bcbc2e035cbeadf8a","bdp_trlrn","Tue Mar 14 2023 12:57:38 GMT-0400 (Eastern Daylight Time)","594513","Untrustworthy,Trustworthy","","null","","","","ratingFB","","trustrating_stim/white_mw048.bmp","null","","","","","","","","","","",""
"image-keyboard-response","119","126667","0.0-6.0-1.57","63e7ac6bcbc2e035cbeadf8a","bdp_trlrn","Tue Mar 14 2023 12:57:38 GMT-0400 (Eastern Daylight Time)","594513","Untrustworthy,Trustworthy","","2690","","","","rating","","trustrating_stim/white_00109_931230_fa_edt.bmp","6","","","","","","","","","","",""
"image-keyboard-response","120","126869","0.0-6.0-2.57","63e7ac6bcbc2e035cbeadf8a","bdp_trlrn","Tue Mar 14 2023 12:57:38 GMT-0400 (Eastern Daylight Time)","594513","Untrustworthy,Trustworthy","","null","","","","ratingFB","","trustrating_stim/white_00109_931230_fa_edt.bmp","null","","","","","","","","","","",""
"image-keyboard-response","121","129430","0.0-6.0-1.58","63e7ac6bcbc2e035cbeadf8a","bdp_trlrn","Tue Mar 14 2023 12:57:38 GMT-0400 (Eastern Daylight Time)","594513","Untrustworthy,Trustworthy","","2460","","","","rating","","trustrating_stim/white_00807_941205_fb_edt.bmp","3","","","","","","","","","","",""
"image-keyboard-response","122","129631","0.0-6.0-2.58","63e7ac6bcbc2e035cbeadf8a","bdp_trlrn","Tue Mar 14 2023 12:57:38 GMT-0400 (Eastern Daylight Time)","594513","Untrustworthy,Trustworthy","","null","","","","ratingFB","","trustrating_stim/white_00807_941205_fb_edt.bmp","null","","","","","","","","","","",""
"image-keyboard-response","123","132988","0.0-6.0-1.59","63e7ac6bcbc2e035cbeadf8a","bdp_trlrn","Tue Mar 14 2023 12:57:38 GMT-0400 (Eastern Daylight Time)","594513","Untrustworthy,Trustworthy","","3256","","","","rating","","trustrating_stim/white_mw049.bmp","7","","","","","","","","","","",""
"image-keyboard-response","124","133188","0.0-6.0-2.59","63e7ac6bcbc2e035cbeadf8a","bdp_trlrn","Tue Mar 14 2023 12:57:38 GMT-0400 (Eastern Daylight Time)","594513","Untrustworthy,Trustworthy","","null","","","","ratingFB","","trustrating_stim/white_mw049.bmp","null","","","","","","","","","","",""
"instructions","125","134706","0.0-7.0","63e7ac6bcbc2e035cbeadf8a","bdp_trlrn","Tue Mar 14 2023 12:57:38 GMT-0400 (Eastern Daylight Time)","594513","Untrustworthy,Trustworthy","[{""page_index"":0,""viewing_time"":1417}]","1417","","","","","","","","","","","","","","","","","",""
"instructions","126","240102","0.0-8.0","63e7ac6bcbc2e035cbeadf8a","bdp_trlrn","Tue Mar 14 2023 12:57:38 GMT-0400 (Eastern Daylight Time)","594513","Untrustworthy,Trustworthy","[{""page_index"":0,""viewing_time"":35286},{""page_index"":1,""viewing_time"":13993},{""page_index"":2,""viewing_time"":9347},{""page_index"":3,""viewing_time"":8435},{""page_index"":4,""viewing_time"":2923},{""page_index"":5,""viewing_time"":12712},{""page_index"":6,""viewing_time"":19951},{""page_index"":7,""viewing_time"":2648}]","105295","","","","","","","","","","","","","","","","","",""
"html-keyboard-response","127","244154","0.0-9.0","63e7ac6bcbc2e035cbeadf8a","bdp_trlrn","Tue Mar 14 2023 12:57:38 GMT-0400 (Eastern Daylight Time)","594513","Untrustworthy,Trustworthy","","4051","","","","","","<div class='header' style='text-align:left; position: absolute; top: 5%; left: 5%;'><small>Task 3 of 5</small></div><div class='instruxDiv'><p><strong>1) What is the minimum number of points you can choose to send to your partner?</strong></p><p>a) 0</p><p>b) 1</p><p>c) 5</p>","C","","","","","","","","","","",""
"html-keyboard-response","128","249541","0.0-10.0","63e7ac6bcbc2e035cbeadf8a","bdp_trlrn","Tue Mar 14 2023 12:57:38 GMT-0400 (Eastern Daylight Time)","594513","Untrustworthy,Trustworthy","","5286","","","","","","<div class='header' style='text-align:left; position: absolute; top: 5%; left: 5%;'><small>Task 3 of 5</small></div><div class='instruxDiv'><p><strong>1) What is the minimum number of points you can choose to send to your partner?</strong></p><p>a) 1</p><p>b) 1</p><p style='color:#FF0000'>c) 5</p><h3 style='color:#FF0000'>Incorrect!</h3><h3 class='center-content'>The correct response is b).</h3><h3 class='center-content'>The minimum number of points you can choose to send to your partner is 1 point.</h3><p><em>Press SPACEBAR to continue</em></p></div>"," ","","","","","","","","","","",""
"html-keyboard-response","129","252185","0.0-11.0","63e7ac6bcbc2e035cbeadf8a","bdp_trlrn","Tue Mar 14 2023 12:57:38 GMT-0400 (Eastern Daylight Time)","594513","Untrustworthy,Trustworthy","","2543","","","","","","<div class='header' style='text-align:left; position: absolute; top: 5%; left: 5%;'><small>Task 3 of 5</small></div><div class='instruxDiv'><p><strong>2) What is the maximum number of points you can choose to send to your partner?</strong></p><p>a) 8</p><p>b) 5</p><p>c) 3</p>","B","","","","","","","","","","",""
"html-keyboard-response","130","253353","0.0-12.0","63e7ac6bcbc2e035cbeadf8a","bdp_trlrn","Tue Mar 14 2023 12:57:38 GMT-0400 (Eastern Daylight Time)","594513","Untrustworthy,Trustworthy","","1067","","","","","","<div class='header' style='text-align:left; position: absolute; top: 5%; left: 5%;'><small>Task 3 of 5</small></div><div class='instruxDiv'><p><strong>2) What is the maximum number of points you can choose to send to your partner?</strong></p><p>a) 8</p><p style='color:#00FF00'>b) 5</p><p>c) 3</p><h3 style='color:#00FF00'>Correct!</h3><h3 class='center-content'>The correct response is b).</h3><h3 class='center-content'>The maximum number of points you can choose to send to your partner is 5 points.</h3><p><em>Press SPACEBAR to continue</em></p></div>"," ","","","","","","","","","","",""
"html-keyboard-response","131","256710","0.0-13.0","63e7ac6bcbc2e035cbeadf8a","bdp_trlrn","Tue Mar 14 2023 12:57:38 GMT-0400 (Eastern Daylight Time)","594513","Untrustworthy,Trustworthy","","3256","","","","","","<div class='header' style='text-align:left; position: absolute; top: 5%; left: 5%;'><small>Task 3 of 5</small></div><div class='instruxDiv'><p><strong>3) What happens to the amount of points you send to your partner?</strong></p><p>a) Nothing</p><p>b) It doubles</p><p>c) It quadruples</p>","C","","","","","","","","","","",""
"html-keyboard-response","132","257864","0.0-14.0","63e7ac6bcbc2e035cbeadf8a","bdp_trlrn","Tue Mar 14 2023 12:57:38 GMT-0400 (Eastern Daylight Time)","594513","Untrustworthy,Trustworthy","","1052","","","","","","<div class='header' style='text-align:left; position: absolute; top: 5%; left: 5%;'><small>Task 3 of 5</small></div><div class='instruxDiv'><p><strong>3) What happens to the amount of points you send to your partner?</strong></p><p>a) Nothing</p><p>b) It doubles</p><p style='color:#00FF00'>c) It quadruples</p><h3 style='color:#00FF00'>Correct!</h3><h3 class='center-content'>The correct response is c).</h3><h3 class='center-content'>The amount of points you send to your partner quadruples.</h3><p><em>Press SPACEBAR to continue</em></p></div>"," ","","","","","","","","","","",""
"html-keyboard-response","133","275610","0.0-15.0","63e7ac6bcbc2e035cbeadf8a","bdp_trlrn","Tue Mar 14 2023 12:57:38 GMT-0400 (Eastern Daylight Time)","594513","Untrustworthy,Trustworthy","","17646","","","","","","<div class='header' style='text-align:left; position: absolute; top: 5%; left: 5%;'><small>Task 3 of 5</small></div><div class='instruxDiv'><p><strong>4) If you decided to share 4 out of 5 points with your partner, and they decided to share half of the amount they received with you, how many points would you receive back from them on this round?</strong></p><p>a) 16</p><p>b) 0</p><p>c) 8</p>","C","","","","","","","","","","",""
"html-keyboard-response","134","276618","0.0-16.0","63e7ac6bcbc2e035cbeadf8a","bdp_trlrn","Tue Mar 14 2023 12:57:38 GMT-0400 (Eastern Daylight Time)","594513","Untrustworthy,Trustworthy","","907","","","","","","<div class='header' style='text-align:left; position: absolute; top: 5%; left: 5%;'><small>Task 3 of 5</small></div><div class='instruxDiv'><p><strong>4) If you decided to share 4 out of 5 points with your partner, and they decided to share half of the amount they received with you, how many points would you receive back from them on this round?</strong></p><p>a) 16</p><p>b) 0</p><p style='color:#00FF00'>c) 8</p><h3 style='color:#00FF00'>Correct!</h3><h3 class='center-content'>The correct response is c).</h3><h3 class='center-content'>If you shared 4 out of 5 points with your partner and they decided to share half of the amount they received with you, you would receive 8 points back (i.e. (4 x 4)/2 = 8).</h3><p><em>Press SPACEBAR to continue</em></p></div>"," ","","","","","","","","","","",""
"html-keyboard-response","135","281720","0.0-17.0","63e7ac6bcbc2e035cbeadf8a","bdp_trlrn","Tue Mar 14 2023 12:57:38 GMT-0400 (Eastern Daylight Time)","594513","Untrustworthy,Trustworthy","","null","","","","","","<div class='header' style='text-align:left; position: absolute; top: 5%; left: 5%;'><small>Task 3 of 5</small></div><div class='instruxDiv'><p>Thank you for completing the quiz<p>These are the actual partners you will be interacting with in the next block:<p><div class='tc' align='center'><img class='introPic' src='trustrating_stim/white_00757_941201_fa_edt.bmp'><br><strong>James</strong></div><div class='bl' align='center'><img class='introPic' src='trustrating_stim/white_mw056.bmp'><br><strong>Ryan</strong></div><div class='br' align='center'><img class='introPic' src='trustrating_stim/white_00109_931230_fa_edt.bmp'><br><strong>Lucas</strong></div></div><p>Across <strong>66 rounds</strong> you will interact with each partner <strong>22 times</strong> (in random order).<p style='align:center; color:white'><font <em>Press SPACEBAR to continue</em></p>","null","","","","","","","","","","",""
"instructions","136","288781","0.0-18.0","63e7ac6bcbc2e035cbeadf8a","bdp_trlrn","Tue Mar 14 2023 12:57:38 GMT-0400 (Eastern Daylight Time)","594513","Untrustworthy,Trustworthy","[{""page_index"":0,""viewing_time"":4389},{""page_index"":1,""viewing_time"":2672}]","7061","","","","","","","","","","","","","","","","","",""
"html-keyboard-response","137","293830","0.0-19.0-1.0","63e7ac6bcbc2e035cbeadf8a","bdp_trlrn","Tue Mar 14 2023 12:57:38 GMT-0400 (Eastern Daylight Time)","594513","Untrustworthy,Trustworthy","","4947","","","","decision","","<div class='trialDiv'><img src='trustrating_stim/white_00109_931230_fa_edt.bmp'><br><font class='baseline'><strong>Lucas</strong><p>Choose number of points to send.</font><div class='respPicDiv'><img src='img/responseButtonOffersNo0L.png' class='respPic'></div></div>","5","1","Lucas","10","Kept","0.8,0.35","13","0.8","trustrating_stim/white_00109_931230_fa_edt.bmp","7","5","1"
"html-keyboard-response","138","294081","0.0-19.0-2.0","63e7ac6bcbc2e035cbeadf8a","bdp_trlrn","Tue Mar 14 2023 12:57:38 GMT-0400 (Eastern Daylight Time)","594513","Untrustworthy,Trustworthy","","null","","","","decisionFB","","<div class='trialDiv'><img src='trustrating_stim/white_00109_931230_fa_edt.bmp'><br><font class='baseline'><strong>Lucas</strong><p>Choose number of points to send.</font><div class='respPicDiv'><img src='img/responseButtonOffersNo0L5.png' class='respPic'></div></div>","null","1","Lucas","10","Kept","0.8,0.35","13","0.8","trustrating_stim/white_00109_931230_fa_edt.bmp","7","0","1"
"html-keyboard-response","139","295082","0.0-19.0-3.0","63e7ac6bcbc2e035cbeadf8a","bdp_trlrn","Tue Mar 14 2023 12:57:38 GMT-0400 (Eastern Daylight Time)","594513","Untrustworthy,Trustworthy","","null","","","","feedback","","<div class='trialDiv'><img src='trustrating_stim/white_00109_931230_fa_edt.bmp'><br><font class='baseline'><strong>Lucas</strong><p>Received: <strong>20</strong></font> &nbsp; &nbsp; &nbsp; &nbsp; &nbsp; &nbsp;<font class='negOutcome'>Shared back: <strong>0</strong></font></font><div class='respPicDiv'><img src='img/responseButtonOffersNo0_wht.png' class='respPic'></div></div>","null","1","Lucas","10","Kept","0.8,0.35","13","0.8","trustrating_stim/white_00109_931230_fa_edt.bmp","7","0","1"
"html-keyboard-response","140","298996","0.0-19.0-1.1","63e7ac6bcbc2e035cbeadf8a","bdp_trlrn","Tue Mar 14 2023 12:57:38 GMT-0400 (Eastern Daylight Time)","594513","Untrustworthy,Trustworthy","","3914","","","","decision","","<div class='trialDiv'><img src='trustrating_stim/white_00757_941201_fa_edt.bmp'><br><font class='baseline'><strong>James</strong><p>Choose number of points to send.</font><div class='respPicDiv'><img src='img/responseButtonOffersNo0L.png' class='respPic'></div></div>","1","1","James","1","Kept","0.2,0.65","8","0.2","trustrating_stim/white_00757_941201_fa_edt.bmp","1","5","2"
"html-keyboard-response","141","299247","0.0-19.0-2.1","63e7ac6bcbc2e035cbeadf8a","bdp_trlrn","Tue Mar 14 2023 12:57:38 GMT-0400 (Eastern Daylight Time)","594513","Untrustworthy,Trustworthy","","null","","","","decisionFB","","<div class='trialDiv'><img src='trustrating_stim/white_00757_941201_fa_edt.bmp'><br><font class='baseline'><strong>James</strong><p>Choose number of points to send.</font><div class='respPicDiv'><img src='img/responseButtonOffersNo0L1.png' class='respPic'></div></div>","null","1","James","1","Kept","0.2,0.65","8","0.2","trustrating_stim/white_00757_941201_fa_edt.bmp","1","4","2"
"html-keyboard-response","142","300248","0.0-19.0-3.1","63e7ac6bcbc2e035cbeadf8a","bdp_trlrn","Tue Mar 14 2023 12:57:38 GMT-0400 (Eastern Daylight Time)","594513","Untrustworthy,Trustworthy","","null","","","","feedback","","<div class='trialDiv'><img src='trustrating_stim/white_00757_941201_fa_edt.bmp'><br><font class='baseline'><strong>James</strong><p>Received: <strong>4</strong></font> &nbsp; &nbsp; &nbsp; &nbsp; &nbsp; &nbsp;<font class='negOutcome'>Shared back: <strong>0</strong></font></font><div class='respPicDiv'><img src='img/responseButtonOffersNo0_wht.png' class='respPic'></div></div>","null","1","James","1","Kept","0.2,0.65","8","0.2","trustrating_stim/white_00757_941201_fa_edt.bmp","1","4","2"
"html-keyboard-response","143","301473","0.0-19.0-1.2","63e7ac6bcbc2e035cbeadf8a","bdp_trlrn","Tue Mar 14 2023 12:57:38 GMT-0400 (Eastern Daylight Time)","594513","Untrustworthy,Trustworthy","","1224","","","","decision","","<div class='trialDiv'><img src='trustrating_stim/white_mw056.bmp'><br><font class='baseline'><strong>Ryan</strong><p>Choose number of points to send.</font><div class='respPicDiv'><img src='img/responseButtonOffersNo0L.png' class='respPic'></div></div>","1","1","Ryan","7","Kept","0.35,0.65","14","0.35","trustrating_stim/white_mw056.bmp","3.5","9","3"
"html-keyboard-response","144","301723","0.0-19.0-2.2","63e7ac6bcbc2e035cbeadf8a","bdp_trlrn","Tue Mar 14 2023 12:57:38 GMT-0400 (Eastern Daylight Time)","594513","Untrustworthy,Trustworthy","","null","","","","decisionFB","","<div class='trialDiv'><img src='trustrating_stim/white_mw056.bmp'><br><font class='baseline'><strong>Ryan</strong><p>Choose number of points to send.</font><div class='respPicDiv'><img src='img/responseButtonOffersNo0L1.png' class='respPic'></div></div>","null","1","Ryan","7","Kept","0.35,0.65","14","0.35","trustrating_stim/white_mw056.bmp","3.5","8","3"
"html-keyboard-response","145","302724","0.0-19.0-3.2","63e7ac6bcbc2e035cbeadf8a","bdp_trlrn","Tue Mar 14 2023 12:57:38 GMT-0400 (Eastern Daylight Time)","594513","Untrustworthy,Trustworthy","","null","","","","feedback","","<div class='trialDiv'><img src='trustrating_stim/white_mw056.bmp'><br><font class='baseline'><strong>Ryan</strong><p>Received: <strong>4</strong></font> &nbsp; &nbsp; &nbsp; &nbsp; &nbsp; &nbsp;<font class='negOutcome'>Shared back: <strong>0</strong></font></font><div class='respPicDiv'><img src='img/responseButtonOffersNo0_wht.png' class='respPic'></div></div>","null","1","Ryan","7","Kept","0.35,0.65","14","0.35","trustrating_stim/white_mw056.bmp","3.5","8","3"
"html-keyboard-response","146","305384","0.0-19.0-1.3","63e7ac6bcbc2e035cbeadf8a","bdp_trlrn","Tue Mar 14 2023 12:57:38 GMT-0400 (Eastern Daylight Time)","594513","Untrustworthy,Trustworthy","","2660","","","","decision","","<div class='trialDiv'><img src='trustrating_stim/white_00109_931230_fa_edt.bmp'><br><font class='baseline'><strong>Lucas</strong><p>Choose number of points to send.</font><div class='respPicDiv'><img src='img/responseButtonOffersNo0L.png' class='respPic'></div></div>","1","2","Lucas","10","Shared","0.8,0.35","13","0.8","trustrating_stim/white_00109_931230_fa_edt.bmp","7","13","4"
"html-keyboard-response","147","305636","0.0-19.0-2.3","63e7ac6bcbc2e035cbeadf8a","bdp_trlrn","Tue Mar 14 2023 12:57:38 GMT-0400 (Eastern Daylight Time)","594513","Untrustworthy,Trustworthy","","null","","","","decisionFB","","<div class='trialDiv'><img src='trustrating_stim/white_00109_931230_fa_edt.bmp'><br><font class='baseline'><strong>Lucas</strong><p>Choose number of points to send.</font><div class='respPicDiv'><img src='img/responseButtonOffersNo0L1.png' class='respPic'></div></div>","null","2","Lucas","10","Shared","0.8,0.35","13","0.8","trustrating_stim/white_00109_931230_fa_edt.bmp","7","12","4"
"html-keyboard-response","148","306637","0.0-19.0-3.3","63e7ac6bcbc2e035cbeadf8a","bdp_trlrn","Tue Mar 14 2023 12:57:38 GMT-0400 (Eastern Daylight Time)","594513","Untrustworthy,Trustworthy","","null","","","","feedback","","<div class='trialDiv'><img src='trustrating_stim/white_00109_931230_fa_edt.bmp'><br><font class='baseline'><strong>Lucas</strong><p>Received: <strong>4</strong></font> &nbsp; &nbsp; &nbsp; &nbsp; &nbsp; &nbsp;<font class='posOutcome'>Shared back: <strong>2</strong></font></font><div class='respPicDiv'><img src='img/responseButtonOffersNo0_wht.png' class='respPic'></div></div>","null","2","Lucas","10","Shared","0.8,0.35","13","0.8","trustrating_stim/white_00109_931230_fa_edt.bmp","7","14","4"
"html-keyboard-response","149","309062","0.0-19.0-1.4","63e7ac6bcbc2e035cbeadf8a","bdp_trlrn","Tue Mar 14 2023 12:57:38 GMT-0400 (Eastern Daylight Time)","594513","Untrustworthy,Trustworthy","","2423","","","","decision","","<div class='trialDiv'><img src='trustrating_stim/white_mw056.bmp'><br><font class='baseline'><strong>Ryan</strong><p>Choose number of points to send.</font><div class='respPicDiv'><img src='img/responseButtonOffersNo0L.png' class='respPic'></div></div>","2","2","Ryan","7","Kept","0.35,0.65","14","0.35","trustrating_stim/white_mw056.bmp","3.5","19","5"
"html-keyboard-response","150","309313","0.0-19.0-2.4","63e7ac6bcbc2e035cbeadf8a","bdp_trlrn","Tue Mar 14 2023 12:57:38 GMT-0400 (Eastern Daylight Time)","594513","Untrustworthy,Trustworthy","","null","","","","decisionFB","","<div class='trialDiv'><img src='trustrating_stim/white_mw056.bmp'><br><font class='baseline'><strong>Ryan</strong><p>Choose number of points to send.</font><div class='respPicDiv'><img src='img/responseButtonOffersNo0L2.png' class='respPic'></div></div>","null","2","Ryan","7","Kept","0.35,0.65","14","0.35","trustrating_stim/white_mw056.bmp","3.5","17","5"
"html-keyboard-response","151","310314","0.0-19.0-3.4","63e7ac6bcbc2e035cbeadf8a","bdp_trlrn","Tue Mar 14 2023 12:57:38 GMT-0400 (Eastern Daylight Time)","594513","Untrustworthy,Trustworthy","","null","","","","feedback","","<div class='trialDiv'><img src='trustrating_stim/white_mw056.bmp'><br><font class='baseline'><strong>Ryan</strong><p>Received: <strong>8</strong></font> &nbsp; &nbsp; &nbsp; &nbsp; &nbsp; &nbsp;<font class='negOutcome'>Shared back: <strong>0</strong></font></font><div class='respPicDiv'><img src='img/responseButtonOffersNo0_wht.png' class='respPic'></div></div>","null","2","Ryan","7","Kept","0.35,0.65","14","0.35","trustrating_stim/white_mw056.bmp","3.5","17","5"
"html-keyboard-response","152","311024","0.0-19.0-1.5","63e7ac6bcbc2e035cbeadf8a","bdp_trlrn","Tue Mar 14 2023 12:57:38 GMT-0400 (Eastern Daylight Time)","594513","Untrustworthy,Trustworthy","","710","","","","decision","","<div class='trialDiv'><img src='trustrating_stim/white_00757_941201_fa_edt.bmp'><br><font class='baseline'><strong>James</strong><p>Choose number of points to send.</font><div class='respPicDiv'><img src='img/responseButtonOffersNo0L.png' class='respPic'></div></div>","1","2","James","1","Kept","0.2,0.65","8","0.2","trustrating_stim/white_00757_941201_fa_edt.bmp","1","22","6"
"html-keyboard-response","153","311275","0.0-19.0-2.5","63e7ac6bcbc2e035cbeadf8a","bdp_trlrn","Tue Mar 14 2023 12:57:38 GMT-0400 (Eastern Daylight Time)","594513","Untrustworthy,Trustworthy","","null","","","","decisionFB","","<div class='trialDiv'><img src='trustrating_stim/white_00757_941201_fa_edt.bmp'><br><font class='baseline'><strong>James</strong><p>Choose number of points to send.</font><div class='respPicDiv'><img src='img/responseButtonOffersNo0L1.png' class='respPic'></div></div>","null","2","James","1","Kept","0.2,0.65","8","0.2","trustrating_stim/white_00757_941201_fa_edt.bmp","1","21","6"
"html-keyboard-response","154","312276","0.0-19.0-3.5","63e7ac6bcbc2e035cbeadf8a","bdp_trlrn","Tue Mar 14 2023 12:57:38 GMT-0400 (Eastern Daylight Time)","594513","Untrustworthy,Trustworthy","","null","","","","feedback","","<div class='trialDiv'><img src='trustrating_stim/white_00757_941201_fa_edt.bmp'><br><font class='baseline'><strong>James</strong><p>Received: <strong>4</strong></font> &nbsp; &nbsp; &nbsp; &nbsp; &nbsp; &nbsp;<font class='negOutcome'>Shared back: <strong>0</strong></font></font><div class='respPicDiv'><img src='img/responseButtonOffersNo0_wht.png' class='respPic'></div></div>","null","2","James","1","Kept","0.2,0.65","8","0.2","trustrating_stim/white_00757_941201_fa_edt.bmp","1","21","6"
"html-keyboard-response","155","312566","0.0-19.0-1.6","63e7ac6bcbc2e035cbeadf8a","bdp_trlrn","Tue Mar 14 2023 12:57:38 GMT-0400 (Eastern Daylight Time)","594513","Untrustworthy,Trustworthy","","290","","","","decision","","<div class='trialDiv'><img src='trustrating_stim/white_00109_931230_fa_edt.bmp'><br><font class='baseline'><strong>Lucas</strong><p>Choose number of points to send.</font><div class='respPicDiv'><img src='img/responseButtonOffersNo0L.png' class='respPic'></div></div>","1","3","Lucas","10","Shared","0.8,0.35","13","0.8","trustrating_stim/white_00109_931230_fa_edt.bmp","7","26","7"
"html-keyboard-response","156","312817","0.0-19.0-2.6","63e7ac6bcbc2e035cbeadf8a","bdp_trlrn","Tue Mar 14 2023 12:57:38 GMT-0400 (Eastern Daylight Time)","594513","Untrustworthy,Trustworthy","","null","","","","decisionFB","","<div class='trialDiv'><img src='trustrating_stim/white_00109_931230_fa_edt.bmp'><br><font class='baseline'><strong>Lucas</strong><p>Choose number of points to send.</font><div class='respPicDiv'><img src='img/responseButtonOffersNo0L1.png' class='respPic'></div></div>","null","3","Lucas","10","Shared","0.8,0.35","13","0.8","trustrating_stim/white_00109_931230_fa_edt.bmp","7","25","7"
"html-keyboard-response","157","313818","0.0-19.0-3.6","63e7ac6bcbc2e035cbeadf8a","bdp_trlrn","Tue Mar 14 2023 12:57:38 GMT-0400 (Eastern Daylight Time)","594513","Untrustworthy,Trustworthy","","null","","","","feedback","","<div class='trialDiv'><img src='trustrating_stim/white_00109_931230_fa_edt.bmp'><br><font class='baseline'><strong>Lucas</strong><p>Received: <strong>4</strong></font> &nbsp; &nbsp; &nbsp; &nbsp; &nbsp; &nbsp;<font class='posOutcome'>Shared back: <strong>2</strong></font></font><div class='respPicDiv'><img src='img/responseButtonOffersNo0_wht.png' class='respPic'></div></div>","null","3","Lucas","10","Shared","0.8,0.35","13","0.8","trustrating_stim/white_00109_931230_fa_edt.bmp","7","27","7"
"html-keyboard-response","158","314895","0.0-19.0-1.7","63e7ac6bcbc2e035cbeadf8a","bdp_trlrn","Tue Mar 14 2023 12:57:38 GMT-0400 (Eastern Daylight Time)","594513","Untrustworthy,Trustworthy","","1076","","","","decision","","<div class='trialDiv'><img src='trustrating_stim/white_00757_941201_fa_edt.bmp'><br><font class='baseline'><strong>James</strong><p>Choose number of points to send.</font><div class='respPicDiv'><img src='img/responseButtonOffersNo0L.png' class='respPic'></div></div>","1","3","James","1","Kept","0.2,0.65","8","0.2","trustrating_stim/white_00757_941201_fa_edt.bmp","1","32","8"
"html-keyboard-response","159","315146","0.0-19.0-2.7","63e7ac6bcbc2e035cbeadf8a","bdp_trlrn","Tue Mar 14 2023 12:57:38 GMT-0400 (Eastern Daylight Time)","594513","Untrustworthy,Trustworthy","","null","","","","decisionFB","","<div class='trialDiv'><img src='trustrating_stim/white_00757_941201_fa_edt.bmp'><br><font class='baseline'><strong>James</strong><p>Choose number of points to send.</font><div class='respPicDiv'><img src='img/responseButtonOffersNo0L1.png' class='respPic'></div></div>","null","3","James","1","Kept","0.2,0.65","8","0.2","trustrating_stim/white_00757_941201_fa_edt.bmp","1","31","8"
"html-keyboard-response","160","316148","0.0-19.0-3.7","63e7ac6bcbc2e035cbeadf8a","bdp_trlrn","Tue Mar 14 2023 12:57:38 GMT-0400 (Eastern Daylight Time)","594513","Untrustworthy,Trustworthy","","null","","","","feedback","","<div class='trialDiv'><img src='trustrating_stim/white_00757_941201_fa_edt.bmp'><br><font class='baseline'><strong>James</strong><p>Received: <strong>4</strong></font> &nbsp; &nbsp; &nbsp; &nbsp; &nbsp; &nbsp;<font class='negOutcome'>Shared back: <strong>0</strong></font></font><div class='respPicDiv'><img src='img/responseButtonOffersNo0_wht.png' class='respPic'></div></div>","null","3","James","1","Kept","0.2,0.65","8","0.2","trustrating_stim/white_00757_941201_fa_edt.bmp","1","31","8"
"html-keyboard-response","161","316681","0.0-19.0-1.8","63e7ac6bcbc2e035cbeadf8a","bdp_trlrn","Tue Mar 14 2023 12:57:38 GMT-0400 (Eastern Daylight Time)","594513","Untrustworthy,Trustworthy","","533","","","","decision","","<div class='trialDiv'><img src='trustrating_stim/white_mw056.bmp'><br><font class='baseline'><strong>Ryan</strong><p>Choose number of points to send.</font><div class='respPicDiv'><img src='img/responseButtonOffersNo0L.png' class='respPic'></div></div>","1","3","Ryan","7","Kept","0.35,0.65","14","0.35","trustrating_stim/white_mw056.bmp","3.5","36","9"
"html-keyboard-response","162","316932","0.0-19.0-2.8","63e7ac6bcbc2e035cbeadf8a","bdp_trlrn","Tue Mar 14 2023 12:57:38 GMT-0400 (Eastern Daylight Time)","594513","Untrustworthy,Trustworthy","","null","","","","decisionFB","","<div class='trialDiv'><img src='trustrating_stim/white_mw056.bmp'><br><font class='baseline'><strong>Ryan</strong><p>Choose number of points to send.</font><div class='respPicDiv'><img src='img/responseButtonOffersNo0L1.png' class='respPic'></div></div>","null","3","Ryan","7","Kept","0.35,0.65","14","0.35","trustrating_stim/white_mw056.bmp","3.5","35","9"
"html-keyboard-response","163","317933","0.0-19.0-3.8","63e7ac6bcbc2e035cbeadf8a","bdp_trlrn","Tue Mar 14 2023 12:57:38 GMT-0400 (Eastern Daylight Time)","594513","Untrustworthy,Trustworthy","","null","","","","feedback","","<div class='trialDiv'><img src='trustrating_stim/white_mw056.bmp'><br><font class='baseline'><strong>Ryan</strong><p>Received: <strong>4</strong></font> &nbsp; &nbsp; &nbsp; &nbsp; &nbsp; &nbsp;<font class='negOutcome'>Shared back: <strong>0</strong></font></font><div class='respPicDiv'><img src='img/responseButtonOffersNo0_wht.png' class='respPic'></div></div>","null","3","Ryan","7","Kept","0.35,0.65","14","0.35","trustrating_stim/white_mw056.bmp","3.5","35","9"
"html-keyboard-response","164","319299","0.0-19.0-1.9","63e7ac6bcbc2e035cbeadf8a","bdp_trlrn","Tue Mar 14 2023 12:57:38 GMT-0400 (Eastern Daylight Time)","594513","Untrustworthy,Trustworthy","","1365","","","","decision","","<div class='trialDiv'><img src='trustrating_stim/white_00109_931230_fa_edt.bmp'><br><font class='baseline'><strong>Lucas</strong><p>Choose number of points to send.</font><div class='respPicDiv'><img src='img/responseButtonOffersNo0L.png' class='respPic'></div></div>","5","4","Lucas","10","Shared","0.8,0.35","13","0.8","trustrating_stim/white_00109_931230_fa_edt.bmp","7","40","10"
"html-keyboard-response","165","319550","0.0-19.0-2.9","63e7ac6bcbc2e035cbeadf8a","bdp_trlrn","Tue Mar 14 2023 12:57:38 GMT-0400 (Eastern Daylight Time)","594513","Untrustworthy,Trustworthy","","null","","","","decisionFB","","<div class='trialDiv'><img src='trustrating_stim/white_00109_931230_fa_edt.bmp'><br><font class='baseline'><strong>Lucas</strong><p>Choose number of points to send.</font><div class='respPicDiv'><img src='img/responseButtonOffersNo0L5.png' class='respPic'></div></div>","null","4","Lucas","10","Shared","0.8,0.35","13","0.8","trustrating_stim/white_00109_931230_fa_edt.bmp","7","35","10"
"html-keyboard-response","166","320551","0.0-19.0-3.9","63e7ac6bcbc2e035cbeadf8a","bdp_trlrn","Tue Mar 14 2023 12:57:38 GMT-0400 (Eastern Daylight Time)","594513","Untrustworthy,Trustworthy","","null","","","","feedback","","<div class='trialDiv'><img src='trustrating_stim/white_00109_931230_fa_edt.bmp'><br><font class='baseline'><strong>Lucas</strong><p>Received: <strong>20</strong></font> &nbsp; &nbsp; &nbsp; &nbsp; &nbsp; &nbsp;<font class='posOutcome'>Shared back: <strong>10</strong></font></font><div class='respPicDiv'><img src='img/responseButtonOffersNo0_wht.png' class='respPic'></div></div>","null","4","Lucas","10","Shared","0.8,0.35","13","0.8","trustrating_stim/white_00109_931230_fa_edt.bmp","7","45","10"
"html-keyboard-response","167","321327","0.0-19.0-1.10","63e7ac6bcbc2e035cbeadf8a","bdp_trlrn","Tue Mar 14 2023 12:57:38 GMT-0400 (Eastern Daylight Time)","594513","Untrustworthy,Trustworthy","","776","","","","decision","","<div class='trialDiv'><img src='trustrating_stim/white_mw056.bmp'><br><font class='baseline'><strong>Ryan</strong><p>Choose number of points to send.</font><div class='respPicDiv'><img src='img/responseButtonOffersNo0L.png' class='respPic'></div></div>","1","4","Ryan","7","Kept","0.35,0.65","14","0.35","trustrating_stim/white_mw056.bmp","3.5","50","11"
"html-keyboard-response","168","321578","0.0-19.0-2.10","63e7ac6bcbc2e035cbeadf8a","bdp_trlrn","Tue Mar 14 2023 12:57:38 GMT-0400 (Eastern Daylight Time)","594513","Untrustworthy,Trustworthy","","null","","","","decisionFB","","<div class='trialDiv'><img src='trustrating_stim/white_mw056.bmp'><br><font class='baseline'><strong>Ryan</strong><p>Choose number of points to send.</font><div class='respPicDiv'><img src='img/responseButtonOffersNo0L1.png' class='respPic'></div></div>","null","4","Ryan","7","Kept","0.35,0.65","14","0.35","trustrating_stim/white_mw056.bmp","3.5","49","11"
"html-keyboard-response","169","322578","0.0-19.0-3.10","63e7ac6bcbc2e035cbeadf8a","bdp_trlrn","Tue Mar 14 2023 12:57:38 GMT-0400 (Eastern Daylight Time)","594513","Untrustworthy,Trustworthy","","null","","","","feedback","","<div class='trialDiv'><img src='trustrating_stim/white_mw056.bmp'><br><font class='baseline'><strong>Ryan</strong><p>Received: <strong>4</strong></font> &nbsp; &nbsp; &nbsp; &nbsp; &nbsp; &nbsp;<font class='negOutcome'>Shared back: <strong>0</strong></font></font><div class='respPicDiv'><img src='img/responseButtonOffersNo0_wht.png' class='respPic'></div></div>","null","4","Ryan","7","Kept","0.35,0.65","14","0.35","trustrating_stim/white_mw056.bmp","3.5","49","11"
"html-keyboard-response","170","323524","0.0-19.0-1.11","63e7ac6bcbc2e035cbeadf8a","bdp_trlrn","Tue Mar 14 2023 12:57:38 GMT-0400 (Eastern Daylight Time)","594513","Untrustworthy,Trustworthy","","945","","","","decision","","<div class='trialDiv'><img src='trustrating_stim/white_00757_941201_fa_edt.bmp'><br><font class='baseline'><strong>James</strong><p>Choose number of points to send.</font><div class='respPicDiv'><img src='img/responseButtonOffersNo0L.png' class='respPic'></div></div>","1","4","James","1","Kept","0.2,0.65","8","0.2","trustrating_stim/white_00757_941201_fa_edt.bmp","1","54","12"
"html-keyboard-response","171","323775","0.0-19.0-2.11","63e7ac6bcbc2e035cbeadf8a","bdp_trlrn","Tue Mar 14 2023 12:57:38 GMT-0400 (Eastern Daylight Time)","594513","Untrustworthy,Trustworthy","","null","","","","decisionFB","","<div class='trialDiv'><img src='trustrating_stim/white_00757_941201_fa_edt.bmp'><br><font class='baseline'><strong>James</strong><p>Choose number of points to send.</font><div class='respPicDiv'><img src='img/responseButtonOffersNo0L1.png' class='respPic'></div></div>","null","4","James","1","Kept","0.2,0.65","8","0.2","trustrating_stim/white_00757_941201_fa_edt.bmp","1","53","12"
"html-keyboard-response","172","324776","0.0-19.0-3.11","63e7ac6bcbc2e035cbeadf8a","bdp_trlrn","Tue Mar 14 2023 12:57:38 GMT-0400 (Eastern Daylight Time)","594513","Untrustworthy,Trustworthy","","null","","","","feedback","","<div class='trialDiv'><img src='trustrating_stim/white_00757_941201_fa_edt.bmp'><br><font class='baseline'><strong>James</strong><p>Received: <strong>4</strong></font> &nbsp; &nbsp; &nbsp; &nbsp; &nbsp; &nbsp;<font class='negOutcome'>Shared back: <strong>0</strong></font></font><div class='respPicDiv'><img src='img/responseButtonOffersNo0_wht.png' class='respPic'></div></div>","null","4","James","1","Kept","0.2,0.65","8","0.2","trustrating_stim/white_00757_941201_fa_edt.bmp","1","53","12"
"html-keyboard-response","173","325906","0.0-19.0-1.12","63e7ac6bcbc2e035cbeadf8a","bdp_trlrn","Tue Mar 14 2023 12:57:38 GMT-0400 (Eastern Daylight Time)","594513","Untrustworthy,Trustworthy","","1130","","","","decision","","<div class='trialDiv'><img src='trustrating_stim/white_00109_931230_fa_edt.bmp'><br><font class='baseline'><strong>Lucas</strong><p>Choose number of points to send.</font><div class='respPicDiv'><img src='img/responseButtonOffersNo0L.png' class='respPic'></div></div>","5","5","Lucas","10","Shared","0.8,0.35","13","0.8","trustrating_stim/white_00109_931230_fa_edt.bmp","7","58","13"
"html-keyboard-response","174","326157","0.0-19.0-2.12","63e7ac6bcbc2e035cbeadf8a","bdp_trlrn","Tue Mar 14 2023 12:57:38 GMT-0400 (Eastern Daylight Time)","594513","Untrustworthy,Trustworthy","","null","","","","decisionFB","","<div class='trialDiv'><img src='trustrating_stim/white_00109_931230_fa_edt.bmp'><br><font class='baseline'><strong>Lucas</strong><p>Choose number of points to send.</font><div class='respPicDiv'><img src='img/responseButtonOffersNo0L5.png' class='respPic'></div></div>","null","5","Lucas","10","Shared","0.8,0.35","13","0.8","trustrating_stim/white_00109_931230_fa_edt.bmp","7","53","13"
"html-keyboard-response","175","327158","0.0-19.0-3.12","63e7ac6bcbc2e035cbeadf8a","bdp_trlrn","Tue Mar 14 2023 12:57:38 GMT-0400 (Eastern Daylight Time)","594513","Untrustworthy,Trustworthy","","null","","","","feedback","","<div class='trialDiv'><img src='trustrating_stim/white_00109_931230_fa_edt.bmp'><br><font class='baseline'><strong>Lucas</strong><p>Received: <strong>20</strong></font> &nbsp; &nbsp; &nbsp; &nbsp; &nbsp; &nbsp;<font class='posOutcome'>Shared back: <strong>10</strong></font></font><div class='respPicDiv'><img src='img/responseButtonOffersNo0_wht.png' class='respPic'></div></div>","null","5","Lucas","10","Shared","0.8,0.35","13","0.8","trustrating_stim/white_00109_931230_fa_edt.bmp","7","63","13"
"html-keyboard-response","176","327875","0.0-19.0-1.13","63e7ac6bcbc2e035cbeadf8a","bdp_trlrn","Tue Mar 14 2023 12:57:38 GMT-0400 (Eastern Daylight Time)","594513","Untrustworthy,Trustworthy","","717","","","","decision","","<div class='trialDiv'><img src='trustrating_stim/white_mw056.bmp'><br><font class='baseline'><strong>Ryan</strong><p>Choose number of points to send.</font><div class='respPicDiv'><img src='img/responseButtonOffersNo0L.png' class='respPic'></div></div>","1","5","Ryan","7","Kept","0.35,0.65","14","0.35","trustrating_stim/white_mw056.bmp","3.5","68","14"
"html-keyboard-response","177","328126","0.0-19.0-2.13","63e7ac6bcbc2e035cbeadf8a","bdp_trlrn","Tue Mar 14 2023 12:57:38 GMT-0400 (Eastern Daylight Time)","594513","Untrustworthy,Trustworthy","","null","","","","decisionFB","","<div class='trialDiv'><img src='trustrating_stim/white_mw056.bmp'><br><font class='baseline'><strong>Ryan</strong><p>Choose number of points to send.</font><div class='respPicDiv'><img src='img/responseButtonOffersNo0L1.png' class='respPic'></div></div>","null","5","Ryan","7","Kept","0.35,0.65","14","0.35","trustrating_stim/white_mw056.bmp","3.5","67","14"
"html-keyboard-response","178","329127","0.0-19.0-3.13","63e7ac6bcbc2e035cbeadf8a","bdp_trlrn","Tue Mar 14 2023 12:57:38 GMT-0400 (Eastern Daylight Time)","594513","Untrustworthy,Trustworthy","","null","","","","feedback","","<div class='trialDiv'><img src='trustrating_stim/white_mw056.bmp'><br><font class='baseline'><strong>Ryan</strong><p>Received: <strong>4</strong></font> &nbsp; &nbsp; &nbsp; &nbsp; &nbsp; &nbsp;<font class='negOutcome'>Shared back: <strong>0</strong></font></font><div class='respPicDiv'><img src='img/responseButtonOffersNo0_wht.png' class='respPic'></div></div>","null","5","Ryan","7","Kept","0.35,0.65","14","0.35","trustrating_stim/white_mw056.bmp","3.5","67","14"
"html-keyboard-response","179","329993","0.0-19.0-1.14","63e7ac6bcbc2e035cbeadf8a","bdp_trlrn","Tue Mar 14 2023 12:57:38 GMT-0400 (Eastern Daylight Time)","594513","Untrustworthy,Trustworthy","","865","","","","decision","","<div class='trialDiv'><img src='trustrating_stim/white_00757_941201_fa_edt.bmp'><br><font class='baseline'><strong>James</strong><p>Choose number of points to send.</font><div class='respPicDiv'><img src='img/responseButtonOffersNo0L.png' class='respPic'></div></div>","1","5","James","1","Kept","0.2,0.65","8","0.2","trustrating_stim/white_00757_941201_fa_edt.bmp","1","72","15"
"html-keyboard-response","180","330245","0.0-19.0-2.14","63e7ac6bcbc2e035cbeadf8a","bdp_trlrn","Tue Mar 14 2023 12:57:38 GMT-0400 (Eastern Daylight Time)","594513","Untrustworthy,Trustworthy","","null","","","","decisionFB","","<div class='trialDiv'><img src='trustrating_stim/white_00757_941201_fa_edt.bmp'><br><font class='baseline'><strong>James</strong><p>Choose number of points to send.</font><div class='respPicDiv'><img src='img/responseButtonOffersNo0L1.png' class='respPic'></div></div>","null","5","James","1","Kept","0.2,0.65","8","0.2","trustrating_stim/white_00757_941201_fa_edt.bmp","1","71","15"
"html-keyboard-response","181","331245","0.0-19.0-3.14","63e7ac6bcbc2e035cbeadf8a","bdp_trlrn","Tue Mar 14 2023 12:57:38 GMT-0400 (Eastern Daylight Time)","594513","Untrustworthy,Trustworthy","","null","","","","feedback","","<div class='trialDiv'><img src='trustrating_stim/white_00757_941201_fa_edt.bmp'><br><font class='baseline'><strong>James</strong><p>Received: <strong>4</strong></font> &nbsp; &nbsp; &nbsp; &nbsp; &nbsp; &nbsp;<font class='negOutcome'>Shared back: <strong>0</strong></font></font><div class='respPicDiv'><img src='img/responseButtonOffersNo0_wht.png' class='respPic'></div></div>","null","5","James","1","Kept","0.2,0.65","8","0.2","trustrating_stim/white_00757_941201_fa_edt.bmp","1","71","15"
"html-keyboard-response","182","331919","0.0-19.0-1.15","63e7ac6bcbc2e035cbeadf8a","bdp_trlrn","Tue Mar 14 2023 12:57:38 GMT-0400 (Eastern Daylight Time)","594513","Untrustworthy,Trustworthy","","673","","","","decision","","<div class='trialDiv'><img src='trustrating_stim/white_mw056.bmp'><br><font class='baseline'><strong>Ryan</strong><p>Choose number of points to send.</font><div class='respPicDiv'><img src='img/responseButtonOffersNo0L.png' class='respPic'></div></div>","1","6","Ryan","7","Kept","0.35,0.65","14","0.35","trustrating_stim/white_mw056.bmp","3.5","76","16"
"html-keyboard-response","183","332170","0.0-19.0-2.15","63e7ac6bcbc2e035cbeadf8a","bdp_trlrn","Tue Mar 14 2023 12:57:38 GMT-0400 (Eastern Daylight Time)","594513","Untrustworthy,Trustworthy","","null","","","","decisionFB","","<div class='trialDiv'><img src='trustrating_stim/white_mw056.bmp'><br><font class='baseline'><strong>Ryan</strong><p>Choose number of points to send.</font><div class='respPicDiv'><img src='img/responseButtonOffersNo0L1.png' class='respPic'></div></div>","null","6","Ryan","7","Kept","0.35,0.65","14","0.35","trustrating_stim/white_mw056.bmp","3.5","75","16"
"html-keyboard-response","184","333171","0.0-19.0-3.15","63e7ac6bcbc2e035cbeadf8a","bdp_trlrn","Tue Mar 14 2023 12:57:38 GMT-0400 (Eastern Daylight Time)","594513","Untrustworthy,Trustworthy","","null","","","","feedback","","<div class='trialDiv'><img src='trustrating_stim/white_mw056.bmp'><br><font class='baseline'><strong>Ryan</strong><p>Received: <strong>4</strong></font> &nbsp; &nbsp; &nbsp; &nbsp; &nbsp; &nbsp;<font class='negOutcome'>Shared back: <strong>0</strong></font></font><div class='respPicDiv'><img src='img/responseButtonOffersNo0_wht.png' class='respPic'></div></div>","null","6","Ryan","7","Kept","0.35,0.65","14","0.35","trustrating_stim/white_mw056.bmp","3.5","75","16"
"html-keyboard-response","185","333889","0.0-19.0-1.16","63e7ac6bcbc2e035cbeadf8a","bdp_trlrn","Tue Mar 14 2023 12:57:38 GMT-0400 (Eastern Daylight Time)","594513","Untrustworthy,Trustworthy","","718","","","","decision","","<div class='trialDiv'><img src='trustrating_stim/white_00757_941201_fa_edt.bmp'><br><font class='baseline'><strong>James</strong><p>Choose number of points to send.</font><div class='respPicDiv'><img src='img/responseButtonOffersNo0L.png' class='respPic'></div></div>","1","6","James","1","Kept","0.2,0.65","8","0.2","trustrating_stim/white_00757_941201_fa_edt.bmp","1","80","17"
"html-keyboard-response","186","334141","0.0-19.0-2.16","63e7ac6bcbc2e035cbeadf8a","bdp_trlrn","Tue Mar 14 2023 12:57:38 GMT-0400 (Eastern Daylight Time)","594513","Untrustworthy,Trustworthy","","null","","","","decisionFB","","<div class='trialDiv'><img src='trustrating_stim/white_00757_941201_fa_edt.bmp'><br><font class='baseline'><strong>James</strong><p>Choose number of points to send.</font><div class='respPicDiv'><img src='img/responseButtonOffersNo0L1.png' class='respPic'></div></div>","null","6","James","1","Kept","0.2,0.65","8","0.2","trustrating_stim/white_00757_941201_fa_edt.bmp","1","79","17"
"html-keyboard-response","187","335142","0.0-19.0-3.16","63e7ac6bcbc2e035cbeadf8a","bdp_trlrn","Tue Mar 14 2023 12:57:38 GMT-0400 (Eastern Daylight Time)","594513","Untrustworthy,Trustworthy","","null","","","","feedback","","<div class='trialDiv'><img src='trustrating_stim/white_00757_941201_fa_edt.bmp'><br><font class='baseline'><strong>James</strong><p>Received: <strong>4</strong></font> &nbsp; &nbsp; &nbsp; &nbsp; &nbsp; &nbsp;<font class='negOutcome'>Shared back: <strong>0</strong></font></font><div class='respPicDiv'><img src='img/responseButtonOffersNo0_wht.png' class='respPic'></div></div>","null","6","James","1","Kept","0.2,0.65","8","0.2","trustrating_stim/white_00757_941201_fa_edt.bmp","1","79","17"
"html-keyboard-response","188","336187","0.0-19.0-1.17","63e7ac6bcbc2e035cbeadf8a","bdp_trlrn","Tue Mar 14 2023 12:57:38 GMT-0400 (Eastern Daylight Time)","594513","Untrustworthy,Trustworthy","","1045","","","","decision","","<div class='trialDiv'><img src='trustrating_stim/white_00109_931230_fa_edt.bmp'><br><font class='baseline'><strong>Lucas</strong><p>Choose number of points to send.</font><div class='respPicDiv'><img src='img/responseButtonOffersNo0L.png' class='respPic'></div></div>","5","6","Lucas","10","Shared","0.8,0.35","13","0.8","trustrating_stim/white_00109_931230_fa_edt.bmp","7","84","18"
"html-keyboard-response","189","336439","0.0-19.0-2.17","63e7ac6bcbc2e035cbeadf8a","bdp_trlrn","Tue Mar 14 2023 12:57:38 GMT-0400 (Eastern Daylight Time)","594513","Untrustworthy,Trustworthy","","null","","","","decisionFB","","<div class='trialDiv'><img src='trustrating_stim/white_00109_931230_fa_edt.bmp'><br><font class='baseline'><strong>Lucas</strong><p>Choose number of points to send.</font><div class='respPicDiv'><img src='img/responseButtonOffersNo0L5.png' class='respPic'></div></div>","null","6","Lucas","10","Shared","0.8,0.35","13","0.8","trustrating_stim/white_00109_931230_fa_edt.bmp","7","79","18"
"html-keyboard-response","190","337439","0.0-19.0-3.17","63e7ac6bcbc2e035cbeadf8a","bdp_trlrn","Tue Mar 14 2023 12:57:38 GMT-0400 (Eastern Daylight Time)","594513","Untrustworthy,Trustworthy","","null","","","","feedback","","<div class='trialDiv'><img src='trustrating_stim/white_00109_931230_fa_edt.bmp'><br><font class='baseline'><strong>Lucas</strong><p>Received: <strong>20</strong></font> &nbsp; &nbsp; &nbsp; &nbsp; &nbsp; &nbsp;<font class='posOutcome'>Shared back: <strong>10</strong></font></font><div class='respPicDiv'><img src='img/responseButtonOffersNo0_wht.png' class='respPic'></div></div>","null","6","Lucas","10","Shared","0.8,0.35","13","0.8","trustrating_stim/white_00109_931230_fa_edt.bmp","7","89","18"
"html-keyboard-response","191","338188","0.0-19.0-1.18","63e7ac6bcbc2e035cbeadf8a","bdp_trlrn","Tue Mar 14 2023 12:57:38 GMT-0400 (Eastern Daylight Time)","594513","Untrustworthy,Trustworthy","","748","","","","decision","","<div class='trialDiv'><img src='trustrating_stim/white_mw056.bmp'><br><font class='baseline'><strong>Ryan</strong><p>Choose number of points to send.</font><div class='respPicDiv'><img src='img/responseButtonOffersNo0L.png' class='respPic'></div></div>","1","7","Ryan","7","Kept","0.35,0.65","14","0.35","trustrating_stim/white_mw056.bmp","3.5","94","19"
"html-keyboard-response","192","338440","0.0-19.0-2.18","63e7ac6bcbc2e035cbeadf8a","bdp_trlrn","Tue Mar 14 2023 12:57:38 GMT-0400 (Eastern Daylight Time)","594513","Untrustworthy,Trustworthy","","null","","","","decisionFB","","<div class='trialDiv'><img src='trustrating_stim/white_mw056.bmp'><br><font class='baseline'><strong>Ryan</strong><p>Choose number of points to send.</font><div class='respPicDiv'><img src='img/responseButtonOffersNo0L1.png' class='respPic'></div></div>","null","7","Ryan","7","Kept","0.35,0.65","14","0.35","trustrating_stim/white_mw056.bmp","3.5","93","19"
"html-keyboard-response","193","339441","0.0-19.0-3.18","63e7ac6bcbc2e035cbeadf8a","bdp_trlrn","Tue Mar 14 2023 12:57:38 GMT-0400 (Eastern Daylight Time)","594513","Untrustworthy,Trustworthy","","null","","","","feedback","","<div class='trialDiv'><img src='trustrating_stim/white_mw056.bmp'><br><font class='baseline'><strong>Ryan</strong><p>Received: <strong>4</strong></font> &nbsp; &nbsp; &nbsp; &nbsp; &nbsp; &nbsp;<font class='negOutcome'>Shared back: <strong>0</strong></font></font><div class='respPicDiv'><img src='img/responseButtonOffersNo0_wht.png' class='respPic'></div></div>","null","7","Ryan","7","Kept","0.35,0.65","14","0.35","trustrating_stim/white_mw056.bmp","3.5","93","19"
"html-keyboard-response","194","340079","0.0-19.0-1.19","63e7ac6bcbc2e035cbeadf8a","bdp_trlrn","Tue Mar 14 2023 12:57:38 GMT-0400 (Eastern Daylight Time)","594513","Untrustworthy,Trustworthy","","638","","","","decision","","<div class='trialDiv'><img src='trustrating_stim/white_00109_931230_fa_edt.bmp'><br><font class='baseline'><strong>Lucas</strong><p>Choose number of points to send.</font><div class='respPicDiv'><img src='img/responseButtonOffersNo0L.png' class='respPic'></div></div>","5","7","Lucas","10","Shared","0.8,0.35","13","0.8","trustrating_stim/white_00109_931230_fa_edt.bmp","7","98","20"
"html-keyboard-response","195","340331","0.0-19.0-2.19","63e7ac6bcbc2e035cbeadf8a","bdp_trlrn","Tue Mar 14 2023 12:57:38 GMT-0400 (Eastern Daylight Time)","594513","Untrustworthy,Trustworthy","","null","","","","decisionFB","","<div class='trialDiv'><img src='trustrating_stim/white_00109_931230_fa_edt.bmp'><br><font class='baseline'><strong>Lucas</strong><p>Choose number of points to send.</font><div class='respPicDiv'><img src='img/responseButtonOffersNo0L5.png' class='respPic'></div></div>","null","7","Lucas","10","Shared","0.8,0.35","13","0.8","trustrating_stim/white_00109_931230_fa_edt.bmp","7","93","20"
"html-keyboard-response","196","341331","0.0-19.0-3.19","63e7ac6bcbc2e035cbeadf8a","bdp_trlrn","Tue Mar 14 2023 12:57:38 GMT-0400 (Eastern Daylight Time)","594513","Untrustworthy,Trustworthy","","null","","","","feedback","","<div class='trialDiv'><img src='trustrating_stim/white_00109_931230_fa_edt.bmp'><br><font class='baseline'><strong>Lucas</strong><p>Received: <strong>20</strong></font> &nbsp; &nbsp; &nbsp; &nbsp; &nbsp; &nbsp;<font class='posOutcome'>Shared back: <strong>10</strong></font></font><div class='respPicDiv'><img src='img/responseButtonOffersNo0_wht.png' class='respPic'></div></div>","null","7","Lucas","10","Shared","0.8,0.35","13","0.8","trustrating_stim/white_00109_931230_fa_edt.bmp","7","103","20"
"html-keyboard-response","197","341868","0.0-19.0-1.20","63e7ac6bcbc2e035cbeadf8a","bdp_trlrn","Tue Mar 14 2023 12:57:38 GMT-0400 (Eastern Daylight Time)","594513","Untrustworthy,Trustworthy","","536","","","","decision","","<div class='trialDiv'><img src='trustrating_stim/white_00757_941201_fa_edt.bmp'><br><font class='baseline'><strong>James</strong><p>Choose number of points to send.</font><div class='respPicDiv'><img src='img/responseButtonOffersNo0L.png' class='respPic'></div></div>","1","7","James","1","Kept","0.2,0.65","8","0.2","trustrating_stim/white_00757_941201_fa_edt.bmp","1","108","21"
"html-keyboard-response","198","342119","0.0-19.0-2.20","63e7ac6bcbc2e035cbeadf8a","bdp_trlrn","Tue Mar 14 2023 12:57:38 GMT-0400 (Eastern Daylight Time)","594513","Untrustworthy,Trustworthy","","null","","","","decisionFB","","<div class='trialDiv'><img src='trustrating_stim/white_00757_941201_fa_edt.bmp'><br><font class='baseline'><strong>James</strong><p>Choose number of points to send.</font><div class='respPicDiv'><img src='img/responseButtonOffersNo0L1.png' class='respPic'></div></div>","null","7","James","1","Kept","0.2,0.65","8","0.2","trustrating_stim/white_00757_941201_fa_edt.bmp","1","107","21"
"html-keyboard-response","199","343120","0.0-19.0-3.20","63e7ac6bcbc2e035cbeadf8a","bdp_trlrn","Tue Mar 14 2023 12:57:38 GMT-0400 (Eastern Daylight Time)","594513","Untrustworthy,Trustworthy","","null","","","","feedback","","<div class='trialDiv'><img src='trustrating_stim/white_00757_941201_fa_edt.bmp'><br><font class='baseline'><strong>James</strong><p>Received: <strong>4</strong></font> &nbsp; &nbsp; &nbsp; &nbsp; &nbsp; &nbsp;<font class='negOutcome'>Shared back: <strong>0</strong></font></font><div class='respPicDiv'><img src='img/responseButtonOffersNo0_wht.png' class='respPic'></div></div>","null","7","James","1","Kept","0.2,0.65","8","0.2","trustrating_stim/white_00757_941201_fa_edt.bmp","1","107","21"
"html-keyboard-response","200","343791","0.0-19.0-1.21","63e7ac6bcbc2e035cbeadf8a","bdp_trlrn","Tue Mar 14 2023 12:57:38 GMT-0400 (Eastern Daylight Time)","594513","Untrustworthy,Trustworthy","","671","","","","decision","","<div class='trialDiv'><img src='trustrating_stim/white_mw056.bmp'><br><font class='baseline'><strong>Ryan</strong><p>Choose number of points to send.</font><div class='respPicDiv'><img src='img/responseButtonOffersNo0L.png' class='respPic'></div></div>","1","8","Ryan","7","Shared","0.35,0.65","14","0.35","trustrating_stim/white_mw056.bmp","3.5","112","22"
"html-keyboard-response","201","344042","0.0-19.0-2.21","63e7ac6bcbc2e035cbeadf8a","bdp_trlrn","Tue Mar 14 2023 12:57:38 GMT-0400 (Eastern Daylight Time)","594513","Untrustworthy,Trustworthy","","null","","","","decisionFB","","<div class='trialDiv'><img src='trustrating_stim/white_mw056.bmp'><br><font class='baseline'><strong>Ryan</strong><p>Choose number of points to send.</font><div class='respPicDiv'><img src='img/responseButtonOffersNo0L1.png' class='respPic'></div></div>","null","8","Ryan","7","Shared","0.35,0.65","14","0.35","trustrating_stim/white_mw056.bmp","3.5","111","22"
"html-keyboard-response","202","345042","0.0-19.0-3.21","63e7ac6bcbc2e035cbeadf8a","bdp_trlrn","Tue Mar 14 2023 12:57:38 GMT-0400 (Eastern Daylight Time)","594513","Untrustworthy,Trustworthy","","null","","","","feedback","","<div class='trialDiv'><img src='trustrating_stim/white_mw056.bmp'><br><font class='baseline'><strong>Ryan</strong><p>Received: <strong>4</strong></font> &nbsp; &nbsp; &nbsp; &nbsp; &nbsp; &nbsp;<font class='posOutcome'>Shared back: <strong>2</strong></font></font><div class='respPicDiv'><img src='img/responseButtonOffersNo0_wht.png' class='respPic'></div></div>","null","8","Ryan","7","Shared","0.35,0.65","14","0.35","trustrating_stim/white_mw056.bmp","3.5","113","22"
"html-keyboard-response","203","345988","0.0-19.0-1.22","63e7ac6bcbc2e035cbeadf8a","bdp_trlrn","Tue Mar 14 2023 12:57:38 GMT-0400 (Eastern Daylight Time)","594513","Untrustworthy,Trustworthy","","945","","","","decision","","<div class='trialDiv'><img src='trustrating_stim/white_00757_941201_fa_edt.bmp'><br><font class='baseline'><strong>James</strong><p>Choose number of points to send.</font><div class='respPicDiv'><img src='img/responseButtonOffersNo0L.png' class='respPic'></div></div>","1","8","James","1","Kept","0.2,0.65","8","0.2","trustrating_stim/white_00757_941201_fa_edt.bmp","1","118","23"
"html-keyboard-response","204","346239","0.0-19.0-2.22","63e7ac6bcbc2e035cbeadf8a","bdp_trlrn","Tue Mar 14 2023 12:57:38 GMT-0400 (Eastern Daylight Time)","594513","Untrustworthy,Trustworthy","","null","","","","decisionFB","","<div class='trialDiv'><img src='trustrating_stim/white_00757_941201_fa_edt.bmp'><br><font class='baseline'><strong>James</strong><p>Choose number of points to send.</font><div class='respPicDiv'><img src='img/responseButtonOffersNo0L1.png' class='respPic'></div></div>","null","8","James","1","Kept","0.2,0.65","8","0.2","trustrating_stim/white_00757_941201_fa_edt.bmp","1","117","23"
"html-keyboard-response","205","347241","0.0-19.0-3.22","63e7ac6bcbc2e035cbeadf8a","bdp_trlrn","Tue Mar 14 2023 12:57:38 GMT-0400 (Eastern Daylight Time)","594513","Untrustworthy,Trustworthy","","null","","","","feedback","","<div class='trialDiv'><img src='trustrating_stim/white_00757_941201_fa_edt.bmp'><br><font class='baseline'><strong>James</strong><p>Received: <strong>4</strong></font> &nbsp; &nbsp; &nbsp; &nbsp; &nbsp; &nbsp;<font class='negOutcome'>Shared back: <strong>0</strong></font></font><div class='respPicDiv'><img src='img/responseButtonOffersNo0_wht.png' class='respPic'></div></div>","null","8","James","1","Kept","0.2,0.65","8","0.2","trustrating_stim/white_00757_941201_fa_edt.bmp","1","117","23"
"html-keyboard-response","206","348011","0.0-19.0-1.23","63e7ac6bcbc2e035cbeadf8a","bdp_trlrn","Tue Mar 14 2023 12:57:38 GMT-0400 (Eastern Daylight Time)","594513","Untrustworthy,Trustworthy","","770","","","","decision","","<div class='trialDiv'><img src='trustrating_stim/white_00109_931230_fa_edt.bmp'><br><font class='baseline'><strong>Lucas</strong><p>Choose number of points to send.</font><div class='respPicDiv'><img src='img/responseButtonOffersNo0L.png' class='respPic'></div></div>","5","8","Lucas","10","Shared","0.8,0.35","13","0.8","trustrating_stim/white_00109_931230_fa_edt.bmp","7","122","24"
"html-keyboard-response","207","348262","0.0-19.0-2.23","63e7ac6bcbc2e035cbeadf8a","bdp_trlrn","Tue Mar 14 2023 12:57:38 GMT-0400 (Eastern Daylight Time)","594513","Untrustworthy,Trustworthy","","null","","","","decisionFB","","<div class='trialDiv'><img src='trustrating_stim/white_00109_931230_fa_edt.bmp'><br><font class='baseline'><strong>Lucas</strong><p>Choose number of points to send.</font><div class='respPicDiv'><img src='img/responseButtonOffersNo0L5.png' class='respPic'></div></div>","null","8","Lucas","10","Shared","0.8,0.35","13","0.8","trustrating_stim/white_00109_931230_fa_edt.bmp","7","117","24"
"html-keyboard-response","208","349264","0.0-19.0-3.23","63e7ac6bcbc2e035cbeadf8a","bdp_trlrn","Tue Mar 14 2023 12:57:38 GMT-0400 (Eastern Daylight Time)","594513","Untrustworthy,Trustworthy","","null","","","","feedback","","<div class='trialDiv'><img src='trustrating_stim/white_00109_931230_fa_edt.bmp'><br><font class='baseline'><strong>Lucas</strong><p>Received: <strong>20</strong></font> &nbsp; &nbsp; &nbsp; &nbsp; &nbsp; &nbsp;<font class='posOutcome'>Shared back: <strong>10</strong></font></font><div class='respPicDiv'><img src='img/responseButtonOffersNo0_wht.png' class='respPic'></div></div>","null","8","Lucas","10","Shared","0.8,0.35","13","0.8","trustrating_stim/white_00109_931230_fa_edt.bmp","7","127","24"
"html-keyboard-response","209","351213","0.0-19.0-1.24","63e7ac6bcbc2e035cbeadf8a","bdp_trlrn","Tue Mar 14 2023 12:57:38 GMT-0400 (Eastern Daylight Time)","594513","Untrustworthy,Trustworthy","","1949","","","","decision","","<div class='trialDiv'><img src='trustrating_stim/white_mw056.bmp'><br><font class='baseline'><strong>Ryan</strong><p>Choose number of points to send.</font><div class='respPicDiv'><img src='img/responseButtonOffersNo0L.png' class='respPic'></div></div>","3","9","Ryan","7","Shared","0.35,0.65","14","0.35","trustrating_stim/white_mw056.bmp","3.5","132","25"
"html-keyboard-response","210","351464","0.0-19.0-2.24","63e7ac6bcbc2e035cbeadf8a","bdp_trlrn","Tue Mar 14 2023 12:57:38 GMT-0400 (Eastern Daylight Time)","594513","Untrustworthy,Trustworthy","","null","","","","decisionFB","","<div class='trialDiv'><img src='trustrating_stim/white_mw056.bmp'><br><font class='baseline'><strong>Ryan</strong><p>Choose number of points to send.</font><div class='respPicDiv'><img src='img/responseButtonOffersNo0L3.png' class='respPic'></div></div>","null","9","Ryan","7","Shared","0.35,0.65","14","0.35","trustrating_stim/white_mw056.bmp","3.5","129","25"
"html-keyboard-response","211","352465","0.0-19.0-3.24","63e7ac6bcbc2e035cbeadf8a","bdp_trlrn","Tue Mar 14 2023 12:57:38 GMT-0400 (Eastern Daylight Time)","594513","Untrustworthy,Trustworthy","","null","","","","feedback","","<div class='trialDiv'><img src='trustrating_stim/white_mw056.bmp'><br><font class='baseline'><strong>Ryan</strong><p>Received: <strong>12</strong></font> &nbsp; &nbsp; &nbsp; &nbsp; &nbsp; &nbsp;<font class='posOutcome'>Shared back: <strong>6</strong></font></font><div class='respPicDiv'><img src='img/responseButtonOffersNo0_wht.png' class='respPic'></div></div>","null","9","Ryan","7","Shared","0.35,0.65","14","0.35","trustrating_stim/white_mw056.bmp","3.5","135","25"
"html-keyboard-response","212","353621","0.0-19.0-1.25","63e7ac6bcbc2e035cbeadf8a","bdp_trlrn","Tue Mar 14 2023 12:57:38 GMT-0400 (Eastern Daylight Time)","594513","Untrustworthy,Trustworthy","","1156","","","","decision","","<div class='trialDiv'><img src='trustrating_stim/white_00757_941201_fa_edt.bmp'><br><font class='baseline'><strong>James</strong><p>Choose number of points to send.</font><div class='respPicDiv'><img src='img/responseButtonOffersNo0L.png' class='respPic'></div></div>","1","9","James","1","Shared","0.2,0.65","8","0.2","trustrating_stim/white_00757_941201_fa_edt.bmp","1","140","26"
"html-keyboard-response","213","353872","0.0-19.0-2.25","63e7ac6bcbc2e035cbeadf8a","bdp_trlrn","Tue Mar 14 2023 12:57:38 GMT-0400 (Eastern Daylight Time)","594513","Untrustworthy,Trustworthy","","null","","","","decisionFB","","<div class='trialDiv'><img src='trustrating_stim/white_00757_941201_fa_edt.bmp'><br><font class='baseline'><strong>James</strong><p>Choose number of points to send.</font><div class='respPicDiv'><img src='img/responseButtonOffersNo0L1.png' class='respPic'></div></div>","null","9","James","1","Shared","0.2,0.65","8","0.2","trustrating_stim/white_00757_941201_fa_edt.bmp","1","139","26"
"html-keyboard-response","214","354873","0.0-19.0-3.25","63e7ac6bcbc2e035cbeadf8a","bdp_trlrn","Tue Mar 14 2023 12:57:38 GMT-0400 (Eastern Daylight Time)","594513","Untrustworthy,Trustworthy","","null","","","","feedback","","<div class='trialDiv'><img src='trustrating_stim/white_00757_941201_fa_edt.bmp'><br><font class='baseline'><strong>James</strong><p>Received: <strong>4</strong></font> &nbsp; &nbsp; &nbsp; &nbsp; &nbsp; &nbsp;<font class='posOutcome'>Shared back: <strong>2</strong></font></font><div class='respPicDiv'><img src='img/responseButtonOffersNo0_wht.png' class='respPic'></div></div>","null","9","James","1","Shared","0.2,0.65","8","0.2","trustrating_stim/white_00757_941201_fa_edt.bmp","1","141","26"
"html-keyboard-response","215","356134","0.0-19.0-1.26","63e7ac6bcbc2e035cbeadf8a","bdp_trlrn","Tue Mar 14 2023 12:57:38 GMT-0400 (Eastern Daylight Time)","594513","Untrustworthy,Trustworthy","","1260","","","","decision","","<div class='trialDiv'><img src='trustrating_stim/white_00109_931230_fa_edt.bmp'><br><font class='baseline'><strong>Lucas</strong><p>Choose number of points to send.</font><div class='respPicDiv'><img src='img/responseButtonOffersNo0L.png' class='respPic'></div></div>","5","9","Lucas","10","Shared","0.8,0.35","13","0.8","trustrating_stim/white_00109_931230_fa_edt.bmp","7","146","27"
"html-keyboard-response","216","356384","0.0-19.0-2.26","63e7ac6bcbc2e035cbeadf8a","bdp_trlrn","Tue Mar 14 2023 12:57:38 GMT-0400 (Eastern Daylight Time)","594513","Untrustworthy,Trustworthy","","null","","","","decisionFB","","<div class='trialDiv'><img src='trustrating_stim/white_00109_931230_fa_edt.bmp'><br><font class='baseline'><strong>Lucas</strong><p>Choose number of points to send.</font><div class='respPicDiv'><img src='img/responseButtonOffersNo0L5.png' class='respPic'></div></div>","null","9","Lucas","10","Shared","0.8,0.35","13","0.8","trustrating_stim/white_00109_931230_fa_edt.bmp","7","141","27"
"html-keyboard-response","217","357386","0.0-19.0-3.26","63e7ac6bcbc2e035cbeadf8a","bdp_trlrn","Tue Mar 14 2023 12:57:38 GMT-0400 (Eastern Daylight Time)","594513","Untrustworthy,Trustworthy","","null","","","","feedback","","<div class='trialDiv'><img src='trustrating_stim/white_00109_931230_fa_edt.bmp'><br><font class='baseline'><strong>Lucas</strong><p>Received: <strong>20</strong></font> &nbsp; &nbsp; &nbsp; &nbsp; &nbsp; &nbsp;<font class='posOutcome'>Shared back: <strong>10</strong></font></font><div class='respPicDiv'><img src='img/responseButtonOffersNo0_wht.png' class='respPic'></div></div>","null","9","Lucas","10","Shared","0.8,0.35","13","0.8","trustrating_stim/white_00109_931230_fa_edt.bmp","7","151","27"
"html-keyboard-response","218","358254","0.0-19.0-1.27","63e7ac6bcbc2e035cbeadf8a","bdp_trlrn","Tue Mar 14 2023 12:57:38 GMT-0400 (Eastern Daylight Time)","594513","Untrustworthy,Trustworthy","","868","","","","decision","","<div class='trialDiv'><img src='trustrating_stim/white_00757_941201_fa_edt.bmp'><br><font class='baseline'><strong>James</strong><p>Choose number of points to send.</font><div class='respPicDiv'><img src='img/responseButtonOffersNo0L.png' class='respPic'></div></div>","1","10","James","1","Kept","0.2,0.65","8","0.2","trustrating_stim/white_00757_941201_fa_edt.bmp","1","156","28"
"html-keyboard-response","219","358505","0.0-19.0-2.27","63e7ac6bcbc2e035cbeadf8a","bdp_trlrn","Tue Mar 14 2023 12:57:38 GMT-0400 (Eastern Daylight Time)","594513","Untrustworthy,Trustworthy","","null","","","","decisionFB","","<div class='trialDiv'><img src='trustrating_stim/white_00757_941201_fa_edt.bmp'><br><font class='baseline'><strong>James</strong><p>Choose number of points to send.</font><div class='respPicDiv'><img src='img/responseButtonOffersNo0L1.png' class='respPic'></div></div>","null","10","James","1","Kept","0.2,0.65","8","0.2","trustrating_stim/white_00757_941201_fa_edt.bmp","1","155","28"
"html-keyboard-response","220","359506","0.0-19.0-3.27","63e7ac6bcbc2e035cbeadf8a","bdp_trlrn","Tue Mar 14 2023 12:57:38 GMT-0400 (Eastern Daylight Time)","594513","Untrustworthy,Trustworthy","","null","","","","feedback","","<div class='trialDiv'><img src='trustrating_stim/white_00757_941201_fa_edt.bmp'><br><font class='baseline'><strong>James</strong><p>Received: <strong>4</strong></font> &nbsp; &nbsp; &nbsp; &nbsp; &nbsp; &nbsp;<font class='negOutcome'>Shared back: <strong>0</strong></font></font><div class='respPicDiv'><img src='img/responseButtonOffersNo0_wht.png' class='respPic'></div></div>","null","10","James","1","Kept","0.2,0.65","8","0.2","trustrating_stim/white_00757_941201_fa_edt.bmp","1","155","28"
