"trial_type","trial_index","time_elapsed","internal_node_id","subject_id","task","startTime","totalTime","labels","view_history","rt","event","trial","time","trialtype","success","stimulus","key_press","aground","name","faceID","outcome","agenttype","agentswpt","agentcurrpshare","face","avgRating","point_total","round"
"pavlovia","0","6","0.0-0.0","61006f43a84b82fb439d7cba","bdp_trlrn","Wed Mar 15 2023 13:05:42 GMT-0600 (Mountain Daylight Time)","747986","Trustworthy,Untrustworthy","","","","","","","","","","","","","","","","","","","",""
"instructions","1","2275","0.0-1.0","61006f43a84b82fb439d7cba","bdp_trlrn","Wed Mar 15 2023 13:05:42 GMT-0600 (Mountain Daylight Time)","747986","Trustworthy,Untrustworthy","[{""page_index"":0,""viewing_time"":2267}]","2268","","","","","","","","","","","","","","","","","",""
"","","","","61006f43a84b82fb439d7cba","bdp_trlrn","Wed Mar 15 2023 13:05:42 GMT-0600 (Mountain Daylight Time)","747986","Trustworthy,Untrustworthy","","","fullscreenenter","2","4895","fullscreenenter","","","","","","","","","","","","","",""
"fullscreen","2","5812","0.0-2.0","61006f43a84b82fb439d7cba","bdp_trlrn","Wed Mar 15 2023 13:05:42 GMT-0600 (Mountain Daylight Time)","747986","Trustworthy,Untrustworthy","","","","","","","true","","","","","","","","","","","","",""
"instructions","3","20064","0.0-4.0","61006f43a84b82fb439d7cba","bdp_trlrn","Wed Mar 15 2023 13:05:42 GMT-0600 (Mountain Daylight Time)","747986","Trustworthy,Untrustworthy","[{""page_index"":0,""viewing_time"":6066},{""page_index"":1,""viewing_time"":8185}]","14251","","","","","","","","","","","","","","","","","",""
"instructions","4","23074","0.0-5.0","61006f43a84b82fb439d7cba","bdp_trlrn","Wed Mar 15 2023 13:05:42 GMT-0600 (Mountain Daylight Time)","747986","Trustworthy,Untrustworthy","[{""page_index"":0,""viewing_time"":3009}]","3009","","","","","","","","","","","","","","","","","",""
"image-keyboard-response","5","30064","0.0-6.0-1.0","61006f43a84b82fb439d7cba","bdp_trlrn","Wed Mar 15 2023 13:05:42 GMT-0600 (Mountain Daylight Time)","747986","Trustworthy,Untrustworthy","","6886","","","","rating","","trustrating_stim/white_00577_940928_fa_edt.bmp","5","","","","","","","","","","",""
"image-keyboard-response","6","30266","0.0-6.0-2.0","61006f43a84b82fb439d7cba","bdp_trlrn","Wed Mar 15 2023 13:05:42 GMT-0600 (Mountain Daylight Time)","747986","Trustworthy,Untrustworthy","","null","","","","ratingFB","","trustrating_stim/white_00577_940928_fa_edt.bmp","null","","","","","","","","","","",""
"image-keyboard-response","7","34342","0.0-6.0-1.1","61006f43a84b82fb439d7cba","bdp_trlrn","Wed Mar 15 2023 13:05:42 GMT-0600 (Mountain Daylight Time)","747986","Trustworthy,Untrustworthy","","3974","","","","rating","","trustrating_stim/white_00602_940928_fb_edt.bmp","4","","","","","","","","","","",""
"image-keyboard-response","8","34543","0.0-6.0-2.1","61006f43a84b82fb439d7cba","bdp_trlrn","Wed Mar 15 2023 13:05:42 GMT-0600 (Mountain Daylight Time)","747986","Trustworthy,Untrustworthy","","null","","","","ratingFB","","trustrating_stim/white_00602_940928_fb_edt.bmp","null","","","","","","","","","","",""
"image-keyboard-response","9","37248","0.0-6.0-1.2","61006f43a84b82fb439d7cba","bdp_trlrn","Wed Mar 15 2023 13:05:42 GMT-0600 (Mountain Daylight Time)","747986","Trustworthy,Untrustworthy","","2602","","","","rating","","trustrating_stim/white_mw071.bmp","5","","","","","","","","","","",""
"image-keyboard-response","10","37450","0.0-6.0-2.2","61006f43a84b82fb439d7cba","bdp_trlrn","Wed Mar 15 2023 13:05:42 GMT-0600 (Mountain Daylight Time)","747986","Trustworthy,Untrustworthy","","null","","","","ratingFB","","trustrating_stim/white_mw071.bmp","null","","","","","","","","","","",""
"image-keyboard-response","11","40899","0.0-6.0-1.3","61006f43a84b82fb439d7cba","bdp_trlrn","Wed Mar 15 2023 13:05:42 GMT-0600 (Mountain Daylight Time)","747986","Trustworthy,Untrustworthy","","3348","","","","rating","","trustrating_stim/white_00785_941205_fb_edt.bmp","6","","","","","","","","","","",""
"image-keyboard-response","12","41100","0.0-6.0-2.3","61006f43a84b82fb439d7cba","bdp_trlrn","Wed Mar 15 2023 13:05:42 GMT-0600 (Mountain Daylight Time)","747986","Trustworthy,Untrustworthy","","null","","","","ratingFB","","trustrating_stim/white_00785_941205_fb_edt.bmp","null","","","","","","","","","","",""
"image-keyboard-response","13","44097","0.0-6.0-1.4","61006f43a84b82fb439d7cba","bdp_trlrn","Wed Mar 15 2023 13:05:42 GMT-0600 (Mountain Daylight Time)","747986","Trustworthy,Untrustworthy","","2895","","","","rating","","trustrating_stim/white_mw099.bmp","6","","","","","","","","","","",""
"image-keyboard-response","14","44302","0.0-6.0-2.4","61006f43a84b82fb439d7cba","bdp_trlrn","Wed Mar 15 2023 13:05:42 GMT-0600 (Mountain Daylight Time)","747986","Trustworthy,Untrustworthy","","null","","","","ratingFB","","trustrating_stim/white_mw099.bmp","null","","","","","","","","","","",""
"image-keyboard-response","15","46033","0.0-6.0-1.5","61006f43a84b82fb439d7cba","bdp_trlrn","Wed Mar 15 2023 13:05:42 GMT-0600 (Mountain Daylight Time)","747986","Trustworthy,Untrustworthy","","1629","","","","rating","","trustrating_stim/white_00807_941205_fb_edt.bmp","5","","","","","","","","","","",""
"image-keyboard-response","16","46236","0.0-6.0-2.5","61006f43a84b82fb439d7cba","bdp_trlrn","Wed Mar 15 2023 13:05:42 GMT-0600 (Mountain Daylight Time)","747986","Trustworthy,Untrustworthy","","null","","","","ratingFB","","trustrating_stim/white_00807_941205_fb_edt.bmp","null","","","","","","","","","","",""
"image-keyboard-response","17","48478","0.0-6.0-1.6","61006f43a84b82fb439d7cba","bdp_trlrn","Wed Mar 15 2023 13:05:42 GMT-0600 (Mountain Daylight Time)","747986","Trustworthy,Untrustworthy","","2140","","","","rating","","trustrating_stim/white_mw049.bmp","4","","","","","","","","","","",""
"image-keyboard-response","18","48680","0.0-6.0-2.6","61006f43a84b82fb439d7cba","bdp_trlrn","Wed Mar 15 2023 13:05:42 GMT-0600 (Mountain Daylight Time)","747986","Trustworthy,Untrustworthy","","null","","","","ratingFB","","trustrating_stim/white_mw049.bmp","null","","","","","","","","","","",""
"image-keyboard-response","19","51886","0.0-6.0-1.7","61006f43a84b82fb439d7cba","bdp_trlrn","Wed Mar 15 2023 13:05:42 GMT-0600 (Mountain Daylight Time)","747986","Trustworthy,Untrustworthy","","3105","","","","rating","","trustrating_stim/white_mw063.bmp","6","","","","","","","","","","",""
"image-keyboard-response","20","52088","0.0-6.0-2.7","61006f43a84b82fb439d7cba","bdp_trlrn","Wed Mar 15 2023 13:05:42 GMT-0600 (Mountain Daylight Time)","747986","Trustworthy,Untrustworthy","","null","","","","ratingFB","","trustrating_stim/white_mw063.bmp","null","","","","","","","","","","",""
"image-keyboard-response","21","54647","0.0-6.0-1.8","61006f43a84b82fb439d7cba","bdp_trlrn","Wed Mar 15 2023 13:05:42 GMT-0600 (Mountain Daylight Time)","747986","Trustworthy,Untrustworthy","","2458","","","","rating","","trustrating_stim/white_mw053.bmp","4","","","","","","","","","","",""
"image-keyboard-response","22","54848","0.0-6.0-2.8","61006f43a84b82fb439d7cba","bdp_trlrn","Wed Mar 15 2023 13:05:42 GMT-0600 (Mountain Daylight Time)","747986","Trustworthy,Untrustworthy","","null","","","","ratingFB","","trustrating_stim/white_mw053.bmp","null","","","","","","","","","","",""
"image-keyboard-response","23","59123","0.0-6.0-1.9","61006f43a84b82fb439d7cba","bdp_trlrn","Wed Mar 15 2023 13:05:42 GMT-0600 (Mountain Daylight Time)","747986","Trustworthy,Untrustworthy","","4172","","","","rating","","trustrating_stim/white_mw066.bmp","6","","","","","","","","","","",""
"image-keyboard-response","24","59324","0.0-6.0-2.9","61006f43a84b82fb439d7cba","bdp_trlrn","Wed Mar 15 2023 13:05:42 GMT-0600 (Mountain Daylight Time)","747986","Trustworthy,Untrustworthy","","null","","","","ratingFB","","trustrating_stim/white_mw066.bmp","null","","","","","","","","","","",""
"image-keyboard-response","25","61661","0.0-6.0-1.10","61006f43a84b82fb439d7cba","bdp_trlrn","Wed Mar 15 2023 13:05:42 GMT-0600 (Mountain Daylight Time)","747986","Trustworthy,Untrustworthy","","2235","","","","rating","","trustrating_stim/white_mw089.bmp","6","","","","","","","","","","",""
"image-keyboard-response","26","61862","0.0-6.0-2.10","61006f43a84b82fb439d7cba","bdp_trlrn","Wed Mar 15 2023 13:05:42 GMT-0600 (Mountain Daylight Time)","747986","Trustworthy,Untrustworthy","","null","","","","ratingFB","","trustrating_stim/white_mw089.bmp","null","","","","","","","","","","",""
"image-keyboard-response","27","63186","0.0-6.0-1.11","61006f43a84b82fb439d7cba","bdp_trlrn","Wed Mar 15 2023 13:05:42 GMT-0600 (Mountain Daylight Time)","747986","Trustworthy,Untrustworthy","","1221","","","","rating","","trustrating_stim/white_mw035.bmp","5","","","","","","","","","","",""
"image-keyboard-response","28","63388","0.0-6.0-2.11","61006f43a84b82fb439d7cba","bdp_trlrn","Wed Mar 15 2023 13:05:42 GMT-0600 (Mountain Daylight Time)","747986","Trustworthy,Untrustworthy","","null","","","","ratingFB","","trustrating_stim/white_mw035.bmp","null","","","","","","","","","","",""
"image-keyboard-response","29","67685","0.0-6.0-1.12","61006f43a84b82fb439d7cba","bdp_trlrn","Wed Mar 15 2023 13:05:42 GMT-0600 (Mountain Daylight Time)","747986","Trustworthy,Untrustworthy","","4195","","","","rating","","trustrating_stim/white_00120_931230_fa_edt.bmp","5","","","","","","","","","","",""
"image-keyboard-response","30","67890","0.0-6.0-2.12","61006f43a84b82fb439d7cba","bdp_trlrn","Wed Mar 15 2023 13:05:42 GMT-0600 (Mountain Daylight Time)","747986","Trustworthy,Untrustworthy","","null","","","","ratingFB","","trustrating_stim/white_00120_931230_fa_edt.bmp","null","","","","","","","","","","",""
"image-keyboard-response","31","69225","0.0-6.0-1.13","61006f43a84b82fb439d7cba","bdp_trlrn","Wed Mar 15 2023 13:05:42 GMT-0600 (Mountain Daylight Time)","747986","Trustworthy,Untrustworthy","","1231","","","","rating","","trustrating_stim/white_00761_941201_fb_edt.bmp","7","","","","","","","","","","",""
"image-keyboard-response","32","69428","0.0-6.0-2.13","61006f43a84b82fb439d7cba","bdp_trlrn","Wed Mar 15 2023 13:05:42 GMT-0600 (Mountain Daylight Time)","747986","Trustworthy,Untrustworthy","","null","","","","ratingFB","","trustrating_stim/white_00761_941201_fb_edt.bmp","null","","","","","","","","","","",""
"image-keyboard-response","33","70932","0.0-6.0-1.14","61006f43a84b82fb439d7cba","bdp_trlrn","Wed Mar 15 2023 13:05:42 GMT-0600 (Mountain Daylight Time)","747986","Trustworthy,Untrustworthy","","1402","","","","rating","","trustrating_stim/white_mw046.bmp","6","","","","","","","","","","",""
"image-keyboard-response","34","71134","0.0-6.0-2.14","61006f43a84b82fb439d7cba","bdp_trlrn","Wed Mar 15 2023 13:05:42 GMT-0600 (Mountain Daylight Time)","747986","Trustworthy,Untrustworthy","","null","","","","ratingFB","","trustrating_stim/white_mw046.bmp","null","","","","","","","","","","",""
"image-keyboard-response","35","74464","0.0-6.0-1.15","61006f43a84b82fb439d7cba","bdp_trlrn","Wed Mar 15 2023 13:05:42 GMT-0600 (Mountain Daylight Time)","747986","Trustworthy,Untrustworthy","","3228","","","","rating","","trustrating_stim/white_mw056.bmp","5","","","","","","","","","","",""
"image-keyboard-response","36","74666","0.0-6.0-2.15","61006f43a84b82fb439d7cba","bdp_trlrn","Wed Mar 15 2023 13:05:42 GMT-0600 (Mountain Daylight Time)","747986","Trustworthy,Untrustworthy","","null","","","","ratingFB","","trustrating_stim/white_mw056.bmp","null","","","","","","","","","","",""
"image-keyboard-response","37","77058","0.0-6.0-1.16","61006f43a84b82fb439d7cba","bdp_trlrn","Wed Mar 15 2023 13:05:42 GMT-0600 (Mountain Daylight Time)","747986","Trustworthy,Untrustworthy","","2290","","","","rating","","trustrating_stim/white_00340_940422_fa_edt.bmp","7","","","","","","","","","","",""
"image-keyboard-response","38","77260","0.0-6.0-2.16","61006f43a84b82fb439d7cba","bdp_trlrn","Wed Mar 15 2023 13:05:42 GMT-0600 (Mountain Daylight Time)","747986","Trustworthy,Untrustworthy","","null","","","","ratingFB","","trustrating_stim/white_00340_940422_fa_edt.bmp","null","","","","","","","","","","",""
"image-keyboard-response","39","79140","0.0-6.0-1.17","61006f43a84b82fb439d7cba","bdp_trlrn","Wed Mar 15 2023 13:05:42 GMT-0600 (Mountain Daylight Time)","747986","Trustworthy,Untrustworthy","","1778","","","","rating","","trustrating_stim/white_mw084.bmp","6","","","","","","","","","","",""
"image-keyboard-response","40","79342","0.0-6.0-2.17","61006f43a84b82fb439d7cba","bdp_trlrn","Wed Mar 15 2023 13:05:42 GMT-0600 (Mountain Daylight Time)","747986","Trustworthy,Untrustworthy","","null","","","","ratingFB","","trustrating_stim/white_mw084.bmp","null","","","","","","","","","","",""
"image-keyboard-response","41","81692","0.0-6.0-1.18","61006f43a84b82fb439d7cba","bdp_trlrn","Wed Mar 15 2023 13:05:42 GMT-0600 (Mountain Daylight Time)","747986","Trustworthy,Untrustworthy","","2247","","","","rating","","trustrating_stim/white_00299_940422_fa_edt.bmp","6","","","","","","","","","","",""
"image-keyboard-response","42","81893","0.0-6.0-2.18","61006f43a84b82fb439d7cba","bdp_trlrn","Wed Mar 15 2023 13:05:42 GMT-0600 (Mountain Daylight Time)","747986","Trustworthy,Untrustworthy","","null","","","","ratingFB","","trustrating_stim/white_00299_940422_fa_edt.bmp","null","","","","","","","","","","",""
"image-keyboard-response","43","86795","0.0-6.0-1.19","61006f43a84b82fb439d7cba","bdp_trlrn","Wed Mar 15 2023 13:05:42 GMT-0600 (Mountain Daylight Time)","747986","Trustworthy,Untrustworthy","","4798","","","","rating","","trustrating_stim/white_00757_941201_fa_edt.bmp","6","","","","","","","","","","",""
"image-keyboard-response","44","87000","0.0-6.0-2.19","61006f43a84b82fb439d7cba","bdp_trlrn","Wed Mar 15 2023 13:05:42 GMT-0600 (Mountain Daylight Time)","747986","Trustworthy,Untrustworthy","","null","","","","ratingFB","","trustrating_stim/white_00757_941201_fa_edt.bmp","null","","","","","","","","","","",""
"image-keyboard-response","45","88644","0.0-6.0-1.20","61006f43a84b82fb439d7cba","bdp_trlrn","Wed Mar 15 2023 13:05:42 GMT-0600 (Mountain Daylight Time)","747986","Trustworthy,Untrustworthy","","1541","","","","rating","","trustrating_stim/white_00898_960530_fa_edt.bmp","5","","","","","","","","","","",""
"image-keyboard-response","46","88846","0.0-6.0-2.20","61006f43a84b82fb439d7cba","bdp_trlrn","Wed Mar 15 2023 13:05:42 GMT-0600 (Mountain Daylight Time)","747986","Trustworthy,Untrustworthy","","null","","","","ratingFB","","trustrating_stim/white_00898_960530_fa_edt.bmp","null","","","","","","","","","","",""
"image-keyboard-response","47","90696","0.0-6.0-1.21","61006f43a84b82fb439d7cba","bdp_trlrn","Wed Mar 15 2023 13:05:42 GMT-0600 (Mountain Daylight Time)","747986","Trustworthy,Untrustworthy","","1748","","","","rating","","trustrating_stim/white_00129_931230_fb_edt.bmp","4","","","","","","","","","","",""
"image-keyboard-response","48","90898","0.0-6.0-2.21","61006f43a84b82fb439d7cba","bdp_trlrn","Wed Mar 15 2023 13:05:42 GMT-0600 (Mountain Daylight Time)","747986","Trustworthy,Untrustworthy","","null","","","","ratingFB","","trustrating_stim/white_00129_931230_fb_edt.bmp","null","","","","","","","","","","",""
"image-keyboard-response","49","92937","0.0-6.0-1.22","61006f43a84b82fb439d7cba","bdp_trlrn","Wed Mar 15 2023 13:05:42 GMT-0600 (Mountain Daylight Time)","747986","Trustworthy,Untrustworthy","","1935","","","","rating","","trustrating_stim/white_00109_931230_fa_edt.bmp","5","","","","","","","","","","",""
"image-keyboard-response","50","93139","0.0-6.0-2.22","61006f43a84b82fb439d7cba","bdp_trlrn","Wed Mar 15 2023 13:05:42 GMT-0600 (Mountain Daylight Time)","747986","Trustworthy,Untrustworthy","","null","","","","ratingFB","","trustrating_stim/white_00109_931230_fa_edt.bmp","null","","","","","","","","","","",""
"image-keyboard-response","51","98455","0.0-6.0-1.23","61006f43a84b82fb439d7cba","bdp_trlrn","Wed Mar 15 2023 13:05:42 GMT-0600 (Mountain Daylight Time)","747986","Trustworthy,Untrustworthy","","5215","","","","rating","","trustrating_stim/white_mw097.bmp","6","","","","","","","","","","",""
"image-keyboard-response","52","98660","0.0-6.0-2.23","61006f43a84b82fb439d7cba","bdp_trlrn","Wed Mar 15 2023 13:05:42 GMT-0600 (Mountain Daylight Time)","747986","Trustworthy,Untrustworthy","","null","","","","ratingFB","","trustrating_stim/white_mw097.bmp","null","","","","","","","","","","",""
"image-keyboard-response","53","100374","0.0-6.0-1.24","61006f43a84b82fb439d7cba","bdp_trlrn","Wed Mar 15 2023 13:05:42 GMT-0600 (Mountain Daylight Time)","747986","Trustworthy,Untrustworthy","","1612","","","","rating","","trustrating_stim/white_00659_941121_fa_edt.bmp","5","","","","","","","","","","",""
"image-keyboard-response","54","100576","0.0-6.0-2.24","61006f43a84b82fb439d7cba","bdp_trlrn","Wed Mar 15 2023 13:05:42 GMT-0600 (Mountain Daylight Time)","747986","Trustworthy,Untrustworthy","","null","","","","ratingFB","","trustrating_stim/white_00659_941121_fa_edt.bmp","null","","","","","","","","","","",""
"image-keyboard-response","55","101939","0.0-6.0-1.25","61006f43a84b82fb439d7cba","bdp_trlrn","Wed Mar 15 2023 13:05:42 GMT-0600 (Mountain Daylight Time)","747986","Trustworthy,Untrustworthy","","1261","","","","rating","","trustrating_stim/white_00223_940128_fb_edt.bmp","4","","","","","","","","","","",""
"image-keyboard-response","56","102140","0.0-6.0-2.25","61006f43a84b82fb439d7cba","bdp_trlrn","Wed Mar 15 2023 13:05:42 GMT-0600 (Mountain Daylight Time)","747986","Trustworthy,Untrustworthy","","null","","","","ratingFB","","trustrating_stim/white_00223_940128_fb_edt.bmp","null","","","","","","","","","","",""
"image-keyboard-response","57","108574","0.0-6.0-1.26","61006f43a84b82fb439d7cba","bdp_trlrn","Wed Mar 15 2023 13:05:42 GMT-0600 (Mountain Daylight Time)","747986","Trustworthy,Untrustworthy","","6332","","","","rating","","trustrating_stim/white_mw060.bmp","5","","","","","","","","","","",""
"image-keyboard-response","58","108779","0.0-6.0-2.26","61006f43a84b82fb439d7cba","bdp_trlrn","Wed Mar 15 2023 13:05:42 GMT-0600 (Mountain Daylight Time)","747986","Trustworthy,Untrustworthy","","null","","","","ratingFB","","trustrating_stim/white_mw060.bmp","null","","","","","","","","","","",""
"image-keyboard-response","59","111343","0.0-6.0-1.27","61006f43a84b82fb439d7cba","bdp_trlrn","Wed Mar 15 2023 13:05:42 GMT-0600 (Mountain Daylight Time)","747986","Trustworthy,Untrustworthy","","2461","","","","rating","","trustrating_stim/white_mw048.bmp","6","","","","","","","","","","",""
"image-keyboard-response","60","111545","0.0-6.0-2.27","61006f43a84b82fb439d7cba","bdp_trlrn","Wed Mar 15 2023 13:05:42 GMT-0600 (Mountain Daylight Time)","747986","Trustworthy,Untrustworthy","","null","","","","ratingFB","","trustrating_stim/white_mw048.bmp","null","","","","","","","","","","",""
"image-keyboard-response","61","112872","0.0-6.0-1.28","61006f43a84b82fb439d7cba","bdp_trlrn","Wed Mar 15 2023 13:05:42 GMT-0600 (Mountain Daylight Time)","747986","Trustworthy,Untrustworthy","","1224","","","","rating","","trustrating_stim/white_00519_940519_fb_edt.bmp","5","","","","","","","","","","",""
"image-keyboard-response","62","113074","0.0-6.0-2.28","61006f43a84b82fb439d7cba","bdp_trlrn","Wed Mar 15 2023 13:05:42 GMT-0600 (Mountain Daylight Time)","747986","Trustworthy,Untrustworthy","","null","","","","ratingFB","","trustrating_stim/white_00519_940519_fb_edt.bmp","null","","","","","","","","","","",""
"image-keyboard-response","63","115166","0.0-6.0-1.29","61006f43a84b82fb439d7cba","bdp_trlrn","Wed Mar 15 2023 13:05:42 GMT-0600 (Mountain Daylight Time)","747986","Trustworthy,Untrustworthy","","1989","","","","rating","","trustrating_stim/white_mw033.bmp","5","","","","","","","","","","",""
"image-keyboard-response","64","115367","0.0-6.0-2.29","61006f43a84b82fb439d7cba","bdp_trlrn","Wed Mar 15 2023 13:05:42 GMT-0600 (Mountain Daylight Time)","747986","Trustworthy,Untrustworthy","","null","","","","ratingFB","","trustrating_stim/white_mw033.bmp","null","","","","","","","","","","",""
"image-keyboard-response","65","117331","0.0-6.0-1.30","61006f43a84b82fb439d7cba","bdp_trlrn","Wed Mar 15 2023 13:05:42 GMT-0600 (Mountain Daylight Time)","747986","Trustworthy,Untrustworthy","","1861","","","","rating","","trustrating_stim/white_mw063.bmp","5","","","","","","","","","","",""
"image-keyboard-response","66","117532","0.0-6.0-2.30","61006f43a84b82fb439d7cba","bdp_trlrn","Wed Mar 15 2023 13:05:42 GMT-0600 (Mountain Daylight Time)","747986","Trustworthy,Untrustworthy","","null","","","","ratingFB","","trustrating_stim/white_mw063.bmp","null","","","","","","","","","","",""
"image-keyboard-response","67","119132","0.0-6.0-1.31","61006f43a84b82fb439d7cba","bdp_trlrn","Wed Mar 15 2023 13:05:42 GMT-0600 (Mountain Daylight Time)","747986","Trustworthy,Untrustworthy","","1497","","","","rating","","trustrating_stim/white_mw053.bmp","4","","","","","","","","","","",""
"image-keyboard-response","68","119334","0.0-6.0-2.31","61006f43a84b82fb439d7cba","bdp_trlrn","Wed Mar 15 2023 13:05:42 GMT-0600 (Mountain Daylight Time)","747986","Trustworthy,Untrustworthy","","null","","","","ratingFB","","trustrating_stim/white_mw053.bmp","null","","","","","","","","","","",""
"image-keyboard-response","69","121678","0.0-6.0-1.32","61006f43a84b82fb439d7cba","bdp_trlrn","Wed Mar 15 2023 13:05:42 GMT-0600 (Mountain Daylight Time)","747986","Trustworthy,Untrustworthy","","2241","","","","rating","","trustrating_stim/white_00129_931230_fb_edt.bmp","5","","","","","","","","","","",""
"image-keyboard-response","70","121883","0.0-6.0-2.32","61006f43a84b82fb439d7cba","bdp_trlrn","Wed Mar 15 2023 13:05:42 GMT-0600 (Mountain Daylight Time)","747986","Trustworthy,Untrustworthy","","null","","","","ratingFB","","trustrating_stim/white_00129_931230_fb_edt.bmp","null","","","","","","","","","","",""
"image-keyboard-response","71","124759","0.0-6.0-1.33","61006f43a84b82fb439d7cba","bdp_trlrn","Wed Mar 15 2023 13:05:42 GMT-0600 (Mountain Daylight Time)","747986","Trustworthy,Untrustworthy","","2772","","","","rating","","trustrating_stim/white_00602_940928_fb_edt.bmp","5","","","","","","","","","","",""
"image-keyboard-response","72","124961","0.0-6.0-2.33","61006f43a84b82fb439d7cba","bdp_trlrn","Wed Mar 15 2023 13:05:42 GMT-0600 (Mountain Daylight Time)","747986","Trustworthy,Untrustworthy","","null","","","","ratingFB","","trustrating_stim/white_00602_940928_fb_edt.bmp","null","","","","","","","","","","",""
"image-keyboard-response","73","126689","0.0-6.0-1.34","61006f43a84b82fb439d7cba","bdp_trlrn","Wed Mar 15 2023 13:05:42 GMT-0600 (Mountain Daylight Time)","747986","Trustworthy,Untrustworthy","","1625","","","","rating","","trustrating_stim/white_00340_940422_fa_edt.bmp","6","","","","","","","","","","",""
"image-keyboard-response","74","126890","0.0-6.0-2.34","61006f43a84b82fb439d7cba","bdp_trlrn","Wed Mar 15 2023 13:05:42 GMT-0600 (Mountain Daylight Time)","747986","Trustworthy,Untrustworthy","","null","","","","ratingFB","","trustrating_stim/white_00340_940422_fa_edt.bmp","null","","","","","","","","","","",""
"image-keyboard-response","75","128356","0.0-6.0-1.35","61006f43a84b82fb439d7cba","bdp_trlrn","Wed Mar 15 2023 13:05:42 GMT-0600 (Mountain Daylight Time)","747986","Trustworthy,Untrustworthy","","1363","","","","rating","","trustrating_stim/white_mw049.bmp","5","","","","","","","","","","",""
"image-keyboard-response","76","128559","0.0-6.0-2.35","61006f43a84b82fb439d7cba","bdp_trlrn","Wed Mar 15 2023 13:05:42 GMT-0600 (Mountain Daylight Time)","747986","Trustworthy,Untrustworthy","","null","","","","ratingFB","","trustrating_stim/white_mw049.bmp","null","","","","","","","","","","",""
"image-keyboard-response","77","129850","0.0-6.0-1.36","61006f43a84b82fb439d7cba","bdp_trlrn","Wed Mar 15 2023 13:05:42 GMT-0600 (Mountain Daylight Time)","747986","Trustworthy,Untrustworthy","","1188","","","","rating","","trustrating_stim/white_mw089.bmp","6","","","","","","","","","","",""
"image-keyboard-response","78","130051","0.0-6.0-2.36","61006f43a84b82fb439d7cba","bdp_trlrn","Wed Mar 15 2023 13:05:42 GMT-0600 (Mountain Daylight Time)","747986","Trustworthy,Untrustworthy","","null","","","","ratingFB","","trustrating_stim/white_mw089.bmp","null","","","","","","","","","","",""
"image-keyboard-response","79","133083","0.0-6.0-1.37","61006f43a84b82fb439d7cba","bdp_trlrn","Wed Mar 15 2023 13:05:42 GMT-0600 (Mountain Daylight Time)","747986","Trustworthy,Untrustworthy","","2928","","","","rating","","trustrating_stim/white_mw056.bmp","5","","","","","","","","","","",""
"image-keyboard-response","80","133284","0.0-6.0-2.37","61006f43a84b82fb439d7cba","bdp_trlrn","Wed Mar 15 2023 13:05:42 GMT-0600 (Mountain Daylight Time)","747986","Trustworthy,Untrustworthy","","null","","","","ratingFB","","trustrating_stim/white_mw056.bmp","null","","","","","","","","","","",""
"image-keyboard-response","81","136141","0.0-6.0-1.38","61006f43a84b82fb439d7cba","bdp_trlrn","Wed Mar 15 2023 13:05:42 GMT-0600 (Mountain Daylight Time)","747986","Trustworthy,Untrustworthy","","2754","","","","rating","","trustrating_stim/white_00223_940128_fb_edt.bmp","5","","","","","","","","","","",""
"image-keyboard-response","82","136342","0.0-6.0-2.38","61006f43a84b82fb439d7cba","bdp_trlrn","Wed Mar 15 2023 13:05:42 GMT-0600 (Mountain Daylight Time)","747986","Trustworthy,Untrustworthy","","null","","","","ratingFB","","trustrating_stim/white_00223_940128_fb_edt.bmp","null","","","","","","","","","","",""
"image-keyboard-response","83","141439","0.0-6.0-1.39","61006f43a84b82fb439d7cba","bdp_trlrn","Wed Mar 15 2023 13:05:42 GMT-0600 (Mountain Daylight Time)","747986","Trustworthy,Untrustworthy","","4996","","","","rating","","trustrating_stim/white_00898_960530_fa_edt.bmp","5","","","","","","","","","","",""
"image-keyboard-response","84","141640","0.0-6.0-2.39","61006f43a84b82fb439d7cba","bdp_trlrn","Wed Mar 15 2023 13:05:42 GMT-0600 (Mountain Daylight Time)","747986","Trustworthy,Untrustworthy","","null","","","","ratingFB","","trustrating_stim/white_00898_960530_fa_edt.bmp","null","","","","","","","","","","",""
"image-keyboard-response","85","145870","0.0-6.0-1.40","61006f43a84b82fb439d7cba","bdp_trlrn","Wed Mar 15 2023 13:05:42 GMT-0600 (Mountain Daylight Time)","747986","Trustworthy,Untrustworthy","","4124","","","","rating","","trustrating_stim/white_mw048.bmp","5","","","","","","","","","","",""
"image-keyboard-response","86","146072","0.0-6.0-2.40","61006f43a84b82fb439d7cba","bdp_trlrn","Wed Mar 15 2023 13:05:42 GMT-0600 (Mountain Daylight Time)","747986","Trustworthy,Untrustworthy","","null","","","","ratingFB","","trustrating_stim/white_mw048.bmp","null","","","","","","","","","","",""
"image-keyboard-response","87","149700","0.0-6.0-1.41","61006f43a84b82fb439d7cba","bdp_trlrn","Wed Mar 15 2023 13:05:42 GMT-0600 (Mountain Daylight Time)","747986","Trustworthy,Untrustworthy","","3524","","","","rating","","trustrating_stim/white_mw071.bmp","4","","","","","","","","","","",""
"image-keyboard-response","88","149902","0.0-6.0-2.41","61006f43a84b82fb439d7cba","bdp_trlrn","Wed Mar 15 2023 13:05:42 GMT-0600 (Mountain Daylight Time)","747986","Trustworthy,Untrustworthy","","null","","","","ratingFB","","trustrating_stim/white_mw071.bmp","null","","","","","","","","","","",""
"image-keyboard-response","89","152345","0.0-6.0-1.42","61006f43a84b82fb439d7cba","bdp_trlrn","Wed Mar 15 2023 13:05:42 GMT-0600 (Mountain Daylight Time)","747986","Trustworthy,Untrustworthy","","2340","","","","rating","","trustrating_stim/white_00757_941201_fa_edt.bmp","6","","","","","","","","","","",""
"image-keyboard-response","90","152546","0.0-6.0-2.42","61006f43a84b82fb439d7cba","bdp_trlrn","Wed Mar 15 2023 13:05:42 GMT-0600 (Mountain Daylight Time)","747986","Trustworthy,Untrustworthy","","null","","","","ratingFB","","trustrating_stim/white_00757_941201_fa_edt.bmp","null","","","","","","","","","","",""
"image-keyboard-response","91","154285","0.0-6.0-1.43","61006f43a84b82fb439d7cba","bdp_trlrn","Wed Mar 15 2023 13:05:42 GMT-0600 (Mountain Daylight Time)","747986","Trustworthy,Untrustworthy","","1636","","","","rating","","trustrating_stim/white_mw084.bmp","5","","","","","","","","","","",""
"image-keyboard-response","92","154488","0.0-6.0-2.43","61006f43a84b82fb439d7cba","bdp_trlrn","Wed Mar 15 2023 13:05:42 GMT-0600 (Mountain Daylight Time)","747986","Trustworthy,Untrustworthy","","null","","","","ratingFB","","trustrating_stim/white_mw084.bmp","null","","","","","","","","","","",""
"image-keyboard-response","93","156896","0.0-6.0-1.44","61006f43a84b82fb439d7cba","bdp_trlrn","Wed Mar 15 2023 13:05:42 GMT-0600 (Mountain Daylight Time)","747986","Trustworthy,Untrustworthy","","2305","","","","rating","","trustrating_stim/white_00659_941121_fa_edt.bmp","5","","","","","","","","","","",""
"image-keyboard-response","94","157097","0.0-6.0-2.44","61006f43a84b82fb439d7cba","bdp_trlrn","Wed Mar 15 2023 13:05:42 GMT-0600 (Mountain Daylight Time)","747986","Trustworthy,Untrustworthy","","null","","","","ratingFB","","trustrating_stim/white_00659_941121_fa_edt.bmp","null","","","","","","","","","","",""
"image-keyboard-response","95","158997","0.0-6.0-1.45","61006f43a84b82fb439d7cba","bdp_trlrn","Wed Mar 15 2023 13:05:42 GMT-0600 (Mountain Daylight Time)","747986","Trustworthy,Untrustworthy","","1797","","","","rating","","trustrating_stim/white_00299_940422_fa_edt.bmp","4","","","","","","","","","","",""
"image-keyboard-response","96","159199","0.0-6.0-2.45","61006f43a84b82fb439d7cba","bdp_trlrn","Wed Mar 15 2023 13:05:42 GMT-0600 (Mountain Daylight Time)","747986","Trustworthy,Untrustworthy","","null","","","","ratingFB","","trustrating_stim/white_00299_940422_fa_edt.bmp","null","","","","","","","","","","",""
"image-keyboard-response","97","161519","0.0-6.0-1.46","61006f43a84b82fb439d7cba","bdp_trlrn","Wed Mar 15 2023 13:05:42 GMT-0600 (Mountain Daylight Time)","747986","Trustworthy,Untrustworthy","","2217","","","","rating","","trustrating_stim/white_00807_941205_fb_edt.bmp","5","","","","","","","","","","",""
"image-keyboard-response","98","161724","0.0-6.0-2.46","61006f43a84b82fb439d7cba","bdp_trlrn","Wed Mar 15 2023 13:05:42 GMT-0600 (Mountain Daylight Time)","747986","Trustworthy,Untrustworthy","","null","","","","ratingFB","","trustrating_stim/white_00807_941205_fb_edt.bmp","null","","","","","","","","","","",""
"image-keyboard-response","99","163361","0.0-6.0-1.47","61006f43a84b82fb439d7cba","bdp_trlrn","Wed Mar 15 2023 13:05:42 GMT-0600 (Mountain Daylight Time)","747986","Trustworthy,Untrustworthy","","1535","","","","rating","","trustrating_stim/white_mw046.bmp","6","","","","","","","","","","",""
"image-keyboard-response","100","163563","0.0-6.0-2.47","61006f43a84b82fb439d7cba","bdp_trlrn","Wed Mar 15 2023 13:05:42 GMT-0600 (Mountain Daylight Time)","747986","Trustworthy,Untrustworthy","","null","","","","ratingFB","","trustrating_stim/white_mw046.bmp","null","","","","","","","","","","",""
"image-keyboard-response","101","167993","0.0-6.0-1.48","61006f43a84b82fb439d7cba","bdp_trlrn","Wed Mar 15 2023 13:05:42 GMT-0600 (Mountain Daylight Time)","747986","Trustworthy,Untrustworthy","","4326","","","","rating","","trustrating_stim/white_00120_931230_fa_edt.bmp","5","","","","","","","","","","",""
"image-keyboard-response","102","168194","0.0-6.0-2.48","61006f43a84b82fb439d7cba","bdp_trlrn","Wed Mar 15 2023 13:05:42 GMT-0600 (Mountain Daylight Time)","747986","Trustworthy,Untrustworthy","","null","","","","ratingFB","","trustrating_stim/white_00120_931230_fa_edt.bmp","null","","","","","","","","","","",""
"image-keyboard-response","103","169159","0.0-6.0-1.49","61006f43a84b82fb439d7cba","bdp_trlrn","Wed Mar 15 2023 13:05:42 GMT-0600 (Mountain Daylight Time)","747986","Trustworthy,Untrustworthy","","862","","","","rating","","trustrating_stim/white_00761_941201_fb_edt.bmp","6","","","","","","","","","","",""
"image-keyboard-response","104","169363","0.0-6.0-2.49","61006f43a84b82fb439d7cba","bdp_trlrn","Wed Mar 15 2023 13:05:42 GMT-0600 (Mountain Daylight Time)","747986","Trustworthy,Untrustworthy","","null","","","","ratingFB","","trustrating_stim/white_00761_941201_fb_edt.bmp","null","","","","","","","","","","",""
"image-keyboard-response","105","171071","0.0-6.0-1.50","61006f43a84b82fb439d7cba","bdp_trlrn","Wed Mar 15 2023 13:05:42 GMT-0600 (Mountain Daylight Time)","747986","Trustworthy,Untrustworthy","","1605","","","","rating","","trustrating_stim/white_mw066.bmp","5","","","","","","","","","","",""
"image-keyboard-response","106","171273","0.0-6.0-2.50","61006f43a84b82fb439d7cba","bdp_trlrn","Wed Mar 15 2023 13:05:42 GMT-0600 (Mountain Daylight Time)","747986","Trustworthy,Untrustworthy","","null","","","","ratingFB","","trustrating_stim/white_mw066.bmp","null","","","","","","","","","","",""
"image-keyboard-response","107","172587","0.0-6.0-1.51","61006f43a84b82fb439d7cba","bdp_trlrn","Wed Mar 15 2023 13:05:42 GMT-0600 (Mountain Daylight Time)","747986","Trustworthy,Untrustworthy","","1211","","","","rating","","trustrating_stim/white_00519_940519_fb_edt.bmp","5","","","","","","","","","","",""
"image-keyboard-response","108","172789","0.0-6.0-2.51","61006f43a84b82fb439d7cba","bdp_trlrn","Wed Mar 15 2023 13:05:42 GMT-0600 (Mountain Daylight Time)","747986","Trustworthy,Untrustworthy","","null","","","","ratingFB","","trustrating_stim/white_00519_940519_fb_edt.bmp","null","","","","","","","","","","",""
"image-keyboard-response","109","175142","0.0-6.0-1.52","61006f43a84b82fb439d7cba","bdp_trlrn","Wed Mar 15 2023 13:05:42 GMT-0600 (Mountain Daylight Time)","747986","Trustworthy,Untrustworthy","","2250","","","","rating","","trustrating_stim/white_00577_940928_fa_edt.bmp","5","","","","","","","","","","",""
"image-keyboard-response","110","175343","0.0-6.0-2.52","61006f43a84b82fb439d7cba","bdp_trlrn","Wed Mar 15 2023 13:05:42 GMT-0600 (Mountain Daylight Time)","747986","Trustworthy,Untrustworthy","","null","","","","ratingFB","","trustrating_stim/white_00577_940928_fa_edt.bmp","null","","","","","","","","","","",""
"image-keyboard-response","111","180352","0.0-6.0-1.53","61006f43a84b82fb439d7cba","bdp_trlrn","Wed Mar 15 2023 13:05:42 GMT-0600 (Mountain Daylight Time)","747986","Trustworthy,Untrustworthy","","4906","","","","rating","","trustrating_stim/white_00109_931230_fa_edt.bmp","5","","","","","","","","","","",""
"image-keyboard-response","112","180553","0.0-6.0-2.53","61006f43a84b82fb439d7cba","bdp_trlrn","Wed Mar 15 2023 13:05:42 GMT-0600 (Mountain Daylight Time)","747986","Trustworthy,Untrustworthy","","null","","","","ratingFB","","trustrating_stim/white_00109_931230_fa_edt.bmp","null","","","","","","","","","","",""
"image-keyboard-response","113","181680","0.0-6.0-1.54","61006f43a84b82fb439d7cba","bdp_trlrn","Wed Mar 15 2023 13:05:42 GMT-0600 (Mountain Daylight Time)","747986","Trustworthy,Untrustworthy","","1021","","","","rating","","trustrating_stim/white_mw099.bmp","4","","","","","","","","","","",""
"image-keyboard-response","114","181883","0.0-6.0-2.54","61006f43a84b82fb439d7cba","bdp_trlrn","Wed Mar 15 2023 13:05:42 GMT-0600 (Mountain Daylight Time)","747986","Trustworthy,Untrustworthy","","null","","","","ratingFB","","trustrating_stim/white_mw099.bmp","null","","","","","","","","","","",""
"image-keyboard-response","115","183313","0.0-6.0-1.55","61006f43a84b82fb439d7cba","bdp_trlrn","Wed Mar 15 2023 13:05:42 GMT-0600 (Mountain Daylight Time)","747986","Trustworthy,Untrustworthy","","1328","","","","rating","","trustrating_stim/white_mw033.bmp","4","","","","","","","","","","",""
"image-keyboard-response","116","183515","0.0-6.0-2.55","61006f43a84b82fb439d7cba","bdp_trlrn","Wed Mar 15 2023 13:05:42 GMT-0600 (Mountain Daylight Time)","747986","Trustworthy,Untrustworthy","","null","","","","ratingFB","","trustrating_stim/white_mw033.bmp","null","","","","","","","","","","",""
"image-keyboard-response","117","184762","0.0-6.0-1.56","61006f43a84b82fb439d7cba","bdp_trlrn","Wed Mar 15 2023 13:05:42 GMT-0600 (Mountain Daylight Time)","747986","Trustworthy,Untrustworthy","","1145","","","","rating","","trustrating_stim/white_mw097.bmp","6","","","","","","","","","","",""
"image-keyboard-response","118","184965","0.0-6.0-2.56","61006f43a84b82fb439d7cba","bdp_trlrn","Wed Mar 15 2023 13:05:42 GMT-0600 (Mountain Daylight Time)","747986","Trustworthy,Untrustworthy","","null","","","","ratingFB","","trustrating_stim/white_mw097.bmp","null","","","","","","","","","","",""
"image-keyboard-response","119","187111","0.0-6.0-1.57","61006f43a84b82fb439d7cba","bdp_trlrn","Wed Mar 15 2023 13:05:42 GMT-0600 (Mountain Daylight Time)","747986","Trustworthy,Untrustworthy","","2042","","","","rating","","trustrating_stim/white_00785_941205_fb_edt.bmp","6","","","","","","","","","","",""
"image-keyboard-response","120","187312","0.0-6.0-2.57","61006f43a84b82fb439d7cba","bdp_trlrn","Wed Mar 15 2023 13:05:42 GMT-0600 (Mountain Daylight Time)","747986","Trustworthy,Untrustworthy","","null","","","","ratingFB","","trustrating_stim/white_00785_941205_fb_edt.bmp","null","","","","","","","","","","",""
"image-keyboard-response","121","190417","0.0-6.0-1.58","61006f43a84b82fb439d7cba","bdp_trlrn","Wed Mar 15 2023 13:05:42 GMT-0600 (Mountain Daylight Time)","747986","Trustworthy,Untrustworthy","","3003","","","","rating","","trustrating_stim/white_mw035.bmp","5","","","","","","","","","","",""
"image-keyboard-response","122","190619","0.0-6.0-2.58","61006f43a84b82fb439d7cba","bdp_trlrn","Wed Mar 15 2023 13:05:42 GMT-0600 (Mountain Daylight Time)","747986","Trustworthy,Untrustworthy","","null","","","","ratingFB","","trustrating_stim/white_mw035.bmp","null","","","","","","","","","","",""
"image-keyboard-response","123","194412","0.0-6.0-1.59","61006f43a84b82fb439d7cba","bdp_trlrn","Wed Mar 15 2023 13:05:42 GMT-0600 (Mountain Daylight Time)","747986","Trustworthy,Untrustworthy","","3689","","","","rating","","trustrating_stim/white_mw060.bmp","6","","","","","","","","","","",""
"image-keyboard-response","124","194614","0.0-6.0-2.59","61006f43a84b82fb439d7cba","bdp_trlrn","Wed Mar 15 2023 13:05:42 GMT-0600 (Mountain Daylight Time)","747986","Trustworthy,Untrustworthy","","null","","","","ratingFB","","trustrating_stim/white_mw060.bmp","null","","","","","","","","","","",""
"instructions","125","195993","0.0-7.0","61006f43a84b82fb439d7cba","bdp_trlrn","Wed Mar 15 2023 13:05:42 GMT-0600 (Mountain Daylight Time)","747986","Trustworthy,Untrustworthy","[{""page_index"":0,""viewing_time"":1277}]","1277","","","","","","","","","","","","","","","","","",""
"instructions","126","308937","0.0-8.0","61006f43a84b82fb439d7cba","bdp_trlrn","Wed Mar 15 2023 13:05:42 GMT-0600 (Mountain Daylight Time)","747986","Trustworthy,Untrustworthy","[{""page_index"":0,""viewing_time"":20460},{""page_index"":1,""viewing_time"":11618},{""page_index"":2,""viewing_time"":13253},{""page_index"":3,""viewing_time"":11312},{""page_index"":4,""viewing_time"":12833},{""page_index"":5,""viewing_time"":15196},{""page_index"":6,""viewing_time"":19884},{""page_index"":7,""viewing_time"":8286}]","112842","","","","","","","","","","","","","","","","","",""
"html-keyboard-response","127","316013","0.0-9.0","61006f43a84b82fb439d7cba","bdp_trlrn","Wed Mar 15 2023 13:05:42 GMT-0600 (Mountain Daylight Time)","747986","Trustworthy,Untrustworthy","","7075","","","","","","<div class='header' style='text-align:left; position: absolute; top: 5%; left: 5%;'><small>Task 2 of 5</small></div><div class='instruxDiv'><p><strong>1) What is the minimum number of points you can choose to send to your partner?</strong></p><p>a) 0</p><p>b) 1</p><p>c) 5</p>","A","","","","","","","","","","",""
"html-keyboard-response","128","320261","0.0-10.0","61006f43a84b82fb439d7cba","bdp_trlrn","Wed Mar 15 2023 13:05:42 GMT-0600 (Mountain Daylight Time)","747986","Trustworthy,Untrustworthy","","4147","","","","","","<div class='header' style='text-align:left; position: absolute; top: 5%; left: 5%;'><small>Task 2 of 5</small></div><div class='instruxDiv'><p><strong>1) What is the minimum number of points you can choose to send to your partner?</strong></p><p style='color:#FF0000'>a) 0</p><p>b) 1</p><p>c) 5</p><h3 style='color:#FF0000'>Incorrect!</h3><h3 class='center-content'>The correct response is b).</h3><h3 class='center-content'>The minimum number of points you can choose to send to your partner is 1 point.</h3><p><em>Press SPACEBAR to continue</em></p></div>"," ","","","","","","","","","","",""
"html-keyboard-response","129","322584","0.0-11.0","61006f43a84b82fb439d7cba","bdp_trlrn","Wed Mar 15 2023 13:05:42 GMT-0600 (Mountain Daylight Time)","747986","Trustworthy,Untrustworthy","","2222","","","","","","<div class='header' style='text-align:left; position: absolute; top: 5%; left: 5%;'><small>Task 2 of 5</small></div><div class='instruxDiv'><p><strong>2) What is the maximum number of points you can choose to send to your partner?</strong></p><p>a) 8</p><p>b) 5</p><p>c) 3</p>","B","","","","","","","","","","",""
"html-keyboard-response","130","324019","0.0-12.0","61006f43a84b82fb439d7cba","bdp_trlrn","Wed Mar 15 2023 13:05:42 GMT-0600 (Mountain Daylight Time)","747986","Trustworthy,Untrustworthy","","1334","","","","","","<div class='header' style='text-align:left; position: absolute; top: 5%; left: 5%;'><small>Task 2 of 5</small></div><div class='instruxDiv'><p><strong>2) What is the maximum number of points you can choose to send to your partner?</strong></p><p>a) 8</p><p style='color:#00FF00'>b) 5</p><p>c) 3</p><h3 style='color:#00FF00'>Correct!</h3><h3 class='center-content'>The correct response is b).</h3><h3 class='center-content'>The maximum number of points you can choose to send to your partner is 5 points.</h3><p><em>Press SPACEBAR to continue</em></p></div>"," ","","","","","","","","","","",""
"html-keyboard-response","131","327039","0.0-13.0","61006f43a84b82fb439d7cba","bdp_trlrn","Wed Mar 15 2023 13:05:42 GMT-0600 (Mountain Daylight Time)","747986","Trustworthy,Untrustworthy","","2919","","","","","","<div class='header' style='text-align:left; position: absolute; top: 5%; left: 5%;'><small>Task 2 of 5</small></div><div class='instruxDiv'><p><strong>3) What happens to the amount of points you send to your partner?</strong></p><p>a) Nothing</p><p>b) It doubles</p><p>c) It quadruples</p>","C","","","","","","","","","","",""
"html-keyboard-response","132","328314","0.0-14.0","61006f43a84b82fb439d7cba","bdp_trlrn","Wed Mar 15 2023 13:05:42 GMT-0600 (Mountain Daylight Time)","747986","Trustworthy,Untrustworthy","","1173","","","","","","<div class='header' style='text-align:left; position: absolute; top: 5%; left: 5%;'><small>Task 2 of 5</small></div><div class='instruxDiv'><p><strong>3) What happens to the amount of points you send to your partner?</strong></p><p>a) Nothing</p><p>b) It doubles</p><p style='color:#00FF00'>c) It quadruples</p><h3 style='color:#00FF00'>Correct!</h3><h3 class='center-content'>The correct response is c).</h3><h3 class='center-content'>The amount of points you send to your partner quadruples.</h3><p><em>Press SPACEBAR to continue</em></p></div>"," ","","","","","","","","","","",""
"html-keyboard-response","133","332428","0.0-15.0","61006f43a84b82fb439d7cba","bdp_trlrn","Wed Mar 15 2023 13:05:42 GMT-0600 (Mountain Daylight Time)","747986","Trustworthy,Untrustworthy","","4012","","","","","","<div class='header' style='text-align:left; position: absolute; top: 5%; left: 5%;'><small>Task 2 of 5</small></div><div class='instruxDiv'><p><strong>4) If you decided to share 4 out of 5 points with your partner, and they decided to share half of the amount they received with you, how many points would you receive back from them on this round?</strong></p><p>a) 16</p><p>b) 0</p><p>c) 8</p>","A","","","","","","","","","","",""
"html-keyboard-response","134","336794","0.0-16.0","61006f43a84b82fb439d7cba","bdp_trlrn","Wed Mar 15 2023 13:05:42 GMT-0600 (Mountain Daylight Time)","747986","Trustworthy,Untrustworthy","","4265","","","","","","<div class='header' style='text-align:left; position: absolute; top: 5%; left: 5%;'><small>Task 2 of 5</small></div><div class='instruxDiv'><p><strong>4) If you decided to share 4 out of 5 points with your partner, and they decided to share half of the amount they received with you, how many points would you receive back from them on this round?</strong></p><p style='color:#FF0000'>a) 16</p><p>b) 0</p><p>c) 8</p><h3 style='color:#FF0000'>Incorrect!</h3><h3 class='center-content'>The correct response is c).</h3><h3 class='center-content'>If you shared 4 out of 5 points with your partner and they decided to share half of the amount they received with you, you would receive 8 points back (i.e. (4 x 4)/2 = 8).</h3><p><em>Press SPACEBAR to continue</em></p></div>"," ","","","","","","","","","","",""
"html-keyboard-response","135","341898","0.0-17.0","61006f43a84b82fb439d7cba","bdp_trlrn","Wed Mar 15 2023 13:05:42 GMT-0600 (Mountain Daylight Time)","747986","Trustworthy,Untrustworthy","","null","","","","","","<div class='header' style='text-align:left; position: absolute; top: 5%; left: 5%;'><small>Task 2 of 5</small></div><div class='instruxDiv'><p>Thank you for completing the quiz<p>These are the actual partners you will be interacting with in the next block:<p><div class='tc' align='center'><img class='introPic' src='trustrating_stim/white_00129_931230_fb_edt.bmp'><br><strong>Matthew</strong></div><div class='bl' align='center'><img class='introPic' src='trustrating_stim/white_00519_940519_fb_edt.bmp'><br><strong>Gavin</strong></div><div class='br' align='center'><img class='introPic' src='trustrating_stim/white_mw046.bmp'><br><strong>Daniel</strong></div></div><p>Across <strong>66 rounds</strong> you will interact with each partner <strong>22 times</strong> (in random order).<p style='align:center; color:white'><font <em>Press SPACEBAR to continue</em></p>","null","","","","","","","","","","",""
"instructions","136","347724","0.0-18.0","61006f43a84b82fb439d7cba","bdp_trlrn","Wed Mar 15 2023 13:05:42 GMT-0600 (Mountain Daylight Time)","747986","Trustworthy,Untrustworthy","[{""page_index"":0,""viewing_time"":2663},{""page_index"":1,""viewing_time"":3162}]","5825","","","","","","","","","","","","","","","","","",""
"html-keyboard-response","137","350404","0.0-19.0-1.0","61006f43a84b82fb439d7cba","bdp_trlrn","Wed Mar 15 2023 13:05:42 GMT-0600 (Mountain Daylight Time)","747986","Trustworthy,Untrustworthy","","2579","","","","decision","","<div class='trialDiv'><img src='trustrating_stim/white_00129_931230_fb_edt.bmp'><br><font class='baseline'><strong>Matthew</strong><p>Choose number of points to send.</font><div class='respPicDiv'><img src='img/responseButtonOffersNo0L.png' class='respPic'></div></div>","3","1","Matthew","2","Kept","0.35,0.65","11","0.35","trustrating_stim/white_00129_931230_fb_edt.bmp","4.5","5","1"
"html-keyboard-response","138","350656","0.0-19.0-2.0","61006f43a84b82fb439d7cba","bdp_trlrn","Wed Mar 15 2023 13:05:42 GMT-0600 (Mountain Daylight Time)","747986","Trustworthy,Untrustworthy","","null","","","","decisionFB","","<div class='trialDiv'><img src='trustrating_stim/white_00129_931230_fb_edt.bmp'><br><font class='baseline'><strong>Matthew</strong><p>Choose number of points to send.</font><div class='respPicDiv'><img src='img/responseButtonOffersNo0L3.png' class='respPic'></div></div>","null","1","Matthew","2","Kept","0.35,0.65","11","0.35","trustrating_stim/white_00129_931230_fb_edt.bmp","4.5","2","1"
"html-keyboard-response","139","351662","0.0-19.0-3.0","61006f43a84b82fb439d7cba","bdp_trlrn","Wed Mar 15 2023 13:05:42 GMT-0600 (Mountain Daylight Time)","747986","Trustworthy,Untrustworthy","","null","","","","feedback","","<div class='trialDiv'><img src='trustrating_stim/white_00129_931230_fb_edt.bmp'><br><font class='baseline'><strong>Matthew</strong><p>Received: <strong>12</strong></font> &nbsp; &nbsp; &nbsp; &nbsp; &nbsp; &nbsp;<font class='negOutcome'>Shared back: <strong>0</strong></font></font><div class='respPicDiv'><img src='img/responseButtonOffersNo0_wht.png' class='respPic'></div></div>","null","1","Matthew","2","Kept","0.35,0.65","11","0.35","trustrating_stim/white_00129_931230_fb_edt.bmp","4.5","2","1"
"html-keyboard-response","140","353691","0.0-19.0-1.1","61006f43a84b82fb439d7cba","bdp_trlrn","Wed Mar 15 2023 13:05:42 GMT-0600 (Mountain Daylight Time)","747986","Trustworthy,Untrustworthy","","2027","","","","decision","","<div class='trialDiv'><img src='trustrating_stim/white_00519_940519_fb_edt.bmp'><br><font class='baseline'><strong>Gavin</strong><p>Choose number of points to send.</font><div class='respPicDiv'><img src='img/responseButtonOffersNo0L.png' class='respPic'></div></div>","3","1","Gavin","4","Kept","0.35,0.8","14","0.35","trustrating_stim/white_00519_940519_fb_edt.bmp","5","7","2"
"html-keyboard-response","141","353943","0.0-19.0-2.1","61006f43a84b82fb439d7cba","bdp_trlrn","Wed Mar 15 2023 13:05:42 GMT-0600 (Mountain Daylight Time)","747986","Trustworthy,Untrustworthy","","null","","","","decisionFB","","<div class='trialDiv'><img src='trustrating_stim/white_00519_940519_fb_edt.bmp'><br><font class='baseline'><strong>Gavin</strong><p>Choose number of points to send.</font><div class='respPicDiv'><img src='img/responseButtonOffersNo0L3.png' class='respPic'></div></div>","null","1","Gavin","4","Kept","0.35,0.8","14","0.35","trustrating_stim/white_00519_940519_fb_edt.bmp","5","4","2"
"html-keyboard-response","142","354944","0.0-19.0-3.1","61006f43a84b82fb439d7cba","bdp_trlrn","Wed Mar 15 2023 13:05:42 GMT-0600 (Mountain Daylight Time)","747986","Trustworthy,Untrustworthy","","null","","","","feedback","","<div class='trialDiv'><img src='trustrating_stim/white_00519_940519_fb_edt.bmp'><br><font class='baseline'><strong>Gavin</strong><p>Received: <strong>12</strong></font> &nbsp; &nbsp; &nbsp; &nbsp; &nbsp; &nbsp;<font class='negOutcome'>Shared back: <strong>0</strong></font></font><div class='respPicDiv'><img src='img/responseButtonOffersNo0_wht.png' class='respPic'></div></div>","null","1","Gavin","4","Kept","0.35,0.8","14","0.35","trustrating_stim/white_00519_940519_fb_edt.bmp","5","4","2"
"html-keyboard-response","143","355935","0.0-19.0-1.2","61006f43a84b82fb439d7cba","bdp_trlrn","Wed Mar 15 2023 13:05:42 GMT-0600 (Mountain Daylight Time)","747986","Trustworthy,Untrustworthy","","989","","","","decision","","<div class='trialDiv'><img src='trustrating_stim/white_mw046.bmp'><br><font class='baseline'><strong>Daniel</strong><p>Choose number of points to send.</font><div class='respPicDiv'><img src='img/responseButtonOffersNo0L.png' class='respPic'></div></div>","3","1","Daniel","8","Shared","0.65,0.2","12","0.65","trustrating_stim/white_mw046.bmp","6","9","3"
"html-keyboard-response","144","356188","0.0-19.0-2.2","61006f43a84b82fb439d7cba","bdp_trlrn","Wed Mar 15 2023 13:05:42 GMT-0600 (Mountain Daylight Time)","747986","Trustworthy,Untrustworthy","","null","","","","decisionFB","","<div class='trialDiv'><img src='trustrating_stim/white_mw046.bmp'><br><font class='baseline'><strong>Daniel</strong><p>Choose number of points to send.</font><div class='respPicDiv'><img src='img/responseButtonOffersNo0L3.png' class='respPic'></div></div>","null","1","Daniel","8","Shared","0.65,0.2","12","0.65","trustrating_stim/white_mw046.bmp","6","6","3"
"html-keyboard-response","145","357190","0.0-19.0-3.2","61006f43a84b82fb439d7cba","bdp_trlrn","Wed Mar 15 2023 13:05:42 GMT-0600 (Mountain Daylight Time)","747986","Trustworthy,Untrustworthy","","null","","","","feedback","","<div class='trialDiv'><img src='trustrating_stim/white_mw046.bmp'><br><font class='baseline'><strong>Daniel</strong><p>Received: <strong>12</strong></font> &nbsp; &nbsp; &nbsp; &nbsp; &nbsp; &nbsp;<font class='posOutcome'>Shared back: <strong>6</strong></font></font><div class='respPicDiv'><img src='img/responseButtonOffersNo0_wht.png' class='respPic'></div></div>","null","1","Daniel","8","Shared","0.65,0.2","12","0.65","trustrating_stim/white_mw046.bmp","6","12","3"
"html-keyboard-response","146","358764","0.0-19.0-1.3","61006f43a84b82fb439d7cba","bdp_trlrn","Wed Mar 15 2023 13:05:42 GMT-0600 (Mountain Daylight Time)","747986","Trustworthy,Untrustworthy","","1573","","","","decision","","<div class='trialDiv'><img src='trustrating_stim/white_00519_940519_fb_edt.bmp'><br><font class='baseline'><strong>Gavin</strong><p>Choose number of points to send.</font><div class='respPicDiv'><img src='img/responseButtonOffersNo0L.png' class='respPic'></div></div>","2","2","Gavin","4","Kept","0.35,0.8","14","0.35","trustrating_stim/white_00519_940519_fb_edt.bmp","5","17","4"
"html-keyboard-response","147","359016","0.0-19.0-2.3","61006f43a84b82fb439d7cba","bdp_trlrn","Wed Mar 15 2023 13:05:42 GMT-0600 (Mountain Daylight Time)","747986","Trustworthy,Untrustworthy","","null","","","","decisionFB","","<div class='trialDiv'><img src='trustrating_stim/white_00519_940519_fb_edt.bmp'><br><font class='baseline'><strong>Gavin</strong><p>Choose number of points to send.</font><div class='respPicDiv'><img src='img/responseButtonOffersNo0L2.png' class='respPic'></div></div>","null","2","Gavin","4","Kept","0.35,0.8","14","0.35","trustrating_stim/white_00519_940519_fb_edt.bmp","5","15","4"
"html-keyboard-response","148","360017","0.0-19.0-3.3","61006f43a84b82fb439d7cba","bdp_trlrn","Wed Mar 15 2023 13:05:42 GMT-0600 (Mountain Daylight Time)","747986","Trustworthy,Untrustworthy","","null","","","","feedback","","<div class='trialDiv'><img src='trustrating_stim/white_00519_940519_fb_edt.bmp'><br><font class='baseline'><strong>Gavin</strong><p>Received: <strong>8</strong></font> &nbsp; &nbsp; &nbsp; &nbsp; &nbsp; &nbsp;<font class='negOutcome'>Shared back: <strong>0</strong></font></font><div class='respPicDiv'><img src='img/responseButtonOffersNo0_wht.png' class='respPic'></div></div>","null","2","Gavin","4","Kept","0.35,0.8","14","0.35","trustrating_stim/white_00519_940519_fb_edt.bmp","5","15","4"
"html-keyboard-response","149","361409","0.0-19.0-1.4","61006f43a84b82fb439d7cba","bdp_trlrn","Wed Mar 15 2023 13:05:42 GMT-0600 (Mountain Daylight Time)","747986","Trustworthy,Untrustworthy","","1391","","","","decision","","<div class='trialDiv'><img src='trustrating_stim/white_00129_931230_fb_edt.bmp'><br><font class='baseline'><strong>Matthew</strong><p>Choose number of points to send.</font><div class='respPicDiv'><img src='img/responseButtonOffersNo0L.png' class='respPic'></div></div>","2","2","Matthew","2","Shared","0.35,0.65","11","0.35","trustrating_stim/white_00129_931230_fb_edt.bmp","4.5","20","5"
"html-keyboard-response","150","361662","0.0-19.0-2.4","61006f43a84b82fb439d7cba","bdp_trlrn","Wed Mar 15 2023 13:05:42 GMT-0600 (Mountain Daylight Time)","747986","Trustworthy,Untrustworthy","","null","","","","decisionFB","","<div class='trialDiv'><img src='trustrating_stim/white_00129_931230_fb_edt.bmp'><br><font class='baseline'><strong>Matthew</strong><p>Choose number of points to send.</font><div class='respPicDiv'><img src='img/responseButtonOffersNo0L2.png' class='respPic'></div></div>","null","2","Matthew","2","Shared","0.35,0.65","11","0.35","trustrating_stim/white_00129_931230_fb_edt.bmp","4.5","18","5"
"html-keyboard-response","151","362663","0.0-19.0-3.4","61006f43a84b82fb439d7cba","bdp_trlrn","Wed Mar 15 2023 13:05:42 GMT-0600 (Mountain Daylight Time)","747986","Trustworthy,Untrustworthy","","null","","","","feedback","","<div class='trialDiv'><img src='trustrating_stim/white_00129_931230_fb_edt.bmp'><br><font class='baseline'><strong>Matthew</strong><p>Received: <strong>8</strong></font> &nbsp; &nbsp; &nbsp; &nbsp; &nbsp; &nbsp;<font class='posOutcome'>Shared back: <strong>4</strong></font></font><div class='respPicDiv'><img src='img/responseButtonOffersNo0_wht.png' class='respPic'></div></div>","null","2","Matthew","2","Shared","0.35,0.65","11","0.35","trustrating_stim/white_00129_931230_fb_edt.bmp","4.5","22","5"
"html-keyboard-response","152","364751","0.0-19.0-1.5","61006f43a84b82fb439d7cba","bdp_trlrn","Wed Mar 15 2023 13:05:42 GMT-0600 (Mountain Daylight Time)","747986","Trustworthy,Untrustworthy","","2087","","","","decision","","<div class='trialDiv'><img src='trustrating_stim/white_mw046.bmp'><br><font class='baseline'><strong>Daniel</strong><p>Choose number of points to send.</font><div class='respPicDiv'><img src='img/responseButtonOffersNo0L.png' class='respPic'></div></div>","3","2","Daniel","8","Kept","0.65,0.2","12","0.65","trustrating_stim/white_mw046.bmp","6","27","6"
"html-keyboard-response","153","365003","0.0-19.0-2.5","61006f43a84b82fb439d7cba","bdp_trlrn","Wed Mar 15 2023 13:05:42 GMT-0600 (Mountain Daylight Time)","747986","Trustworthy,Untrustworthy","","null","","","","decisionFB","","<div class='trialDiv'><img src='trustrating_stim/white_mw046.bmp'><br><font class='baseline'><strong>Daniel</strong><p>Choose number of points to send.</font><div class='respPicDiv'><img src='img/responseButtonOffersNo0L3.png' class='respPic'></div></div>","null","2","Daniel","8","Kept","0.65,0.2","12","0.65","trustrating_stim/white_mw046.bmp","6","24","6"
"html-keyboard-response","154","366004","0.0-19.0-3.5","61006f43a84b82fb439d7cba","bdp_trlrn","Wed Mar 15 2023 13:05:42 GMT-0600 (Mountain Daylight Time)","747986","Trustworthy,Untrustworthy","","null","","","","feedback","","<div class='trialDiv'><img src='trustrating_stim/white_mw046.bmp'><br><font class='baseline'><strong>Daniel</strong><p>Received: <strong>12</strong></font> &nbsp; &nbsp; &nbsp; &nbsp; &nbsp; &nbsp;<font class='negOutcome'>Shared back: <strong>0</strong></font></font><div class='respPicDiv'><img src='img/responseButtonOffersNo0_wht.png' class='respPic'></div></div>","null","2","Daniel","8","Kept","0.65,0.2","12","0.65","trustrating_stim/white_mw046.bmp","6","24","6"
"html-keyboard-response","155","367488","0.0-19.0-1.6","61006f43a84b82fb439d7cba","bdp_trlrn","Wed Mar 15 2023 13:05:42 GMT-0600 (Mountain Daylight Time)","747986","Trustworthy,Untrustworthy","","1483","","","","decision","","<div class='trialDiv'><img src='trustrating_stim/white_00519_940519_fb_edt.bmp'><br><font class='baseline'><strong>Gavin</strong><p>Choose number of points to send.</font><div class='respPicDiv'><img src='img/responseButtonOffersNo0L.png' class='respPic'></div></div>","2","3","Gavin","4","Kept","0.35,0.8","14","0.35","trustrating_stim/white_00519_940519_fb_edt.bmp","5","29","7"
"html-keyboard-response","156","367740","0.0-19.0-2.6","61006f43a84b82fb439d7cba","bdp_trlrn","Wed Mar 15 2023 13:05:42 GMT-0600 (Mountain Daylight Time)","747986","Trustworthy,Untrustworthy","","null","","","","decisionFB","","<div class='trialDiv'><img src='trustrating_stim/white_00519_940519_fb_edt.bmp'><br><font class='baseline'><strong>Gavin</strong><p>Choose number of points to send.</font><div class='respPicDiv'><img src='img/responseButtonOffersNo0L2.png' class='respPic'></div></div>","null","3","Gavin","4","Kept","0.35,0.8","14","0.35","trustrating_stim/white_00519_940519_fb_edt.bmp","5","27","7"
"html-keyboard-response","157","368743","0.0-19.0-3.6","61006f43a84b82fb439d7cba","bdp_trlrn","Wed Mar 15 2023 13:05:42 GMT-0600 (Mountain Daylight Time)","747986","Trustworthy,Untrustworthy","","null","","","","feedback","","<div class='trialDiv'><img src='trustrating_stim/white_00519_940519_fb_edt.bmp'><br><font class='baseline'><strong>Gavin</strong><p>Received: <strong>8</strong></font> &nbsp; &nbsp; &nbsp; &nbsp; &nbsp; &nbsp;<font class='negOutcome'>Shared back: <strong>0</strong></font></font><div class='respPicDiv'><img src='img/responseButtonOffersNo0_wht.png' class='respPic'></div></div>","null","3","Gavin","4","Kept","0.35,0.8","14","0.35","trustrating_stim/white_00519_940519_fb_edt.bmp","5","27","7"
"html-keyboard-response","158","370104","0.0-19.0-1.7","61006f43a84b82fb439d7cba","bdp_trlrn","Wed Mar 15 2023 13:05:42 GMT-0600 (Mountain Daylight Time)","747986","Trustworthy,Untrustworthy","","1358","","","","decision","","<div class='trialDiv'><img src='trustrating_stim/white_mw046.bmp'><br><font class='baseline'><strong>Daniel</strong><p>Choose number of points to send.</font><div class='respPicDiv'><img src='img/responseButtonOffersNo0L.png' class='respPic'></div></div>","4","3","Daniel","8","Kept","0.65,0.2","12","0.65","trustrating_stim/white_mw046.bmp","6","32","8"
"html-keyboard-response","159","370355","0.0-19.0-2.7","61006f43a84b82fb439d7cba","bdp_trlrn","Wed Mar 15 2023 13:05:42 GMT-0600 (Mountain Daylight Time)","747986","Trustworthy,Untrustworthy","","null","","","","decisionFB","","<div class='trialDiv'><img src='trustrating_stim/white_mw046.bmp'><br><font class='baseline'><strong>Daniel</strong><p>Choose number of points to send.</font><div class='respPicDiv'><img src='img/responseButtonOffersNo0L4.png' class='respPic'></div></div>","null","3","Daniel","8","Kept","0.65,0.2","12","0.65","trustrating_stim/white_mw046.bmp","6","28","8"
"html-keyboard-response","160","371356","0.0-19.0-3.7","61006f43a84b82fb439d7cba","bdp_trlrn","Wed Mar 15 2023 13:05:42 GMT-0600 (Mountain Daylight Time)","747986","Trustworthy,Untrustworthy","","null","","","","feedback","","<div class='trialDiv'><img src='trustrating_stim/white_mw046.bmp'><br><font class='baseline'><strong>Daniel</strong><p>Received: <strong>16</strong></font> &nbsp; &nbsp; &nbsp; &nbsp; &nbsp; &nbsp;<font class='negOutcome'>Shared back: <strong>0</strong></font></font><div class='respPicDiv'><img src='img/responseButtonOffersNo0_wht.png' class='respPic'></div></div>","null","3","Daniel","8","Kept","0.65,0.2","12","0.65","trustrating_stim/white_mw046.bmp","6","28","8"
"html-keyboard-response","161","373077","0.0-19.0-1.8","61006f43a84b82fb439d7cba","bdp_trlrn","Wed Mar 15 2023 13:05:42 GMT-0600 (Mountain Daylight Time)","747986","Trustworthy,Untrustworthy","","1719","","","","decision","","<div class='trialDiv'><img src='trustrating_stim/white_00129_931230_fb_edt.bmp'><br><font class='baseline'><strong>Matthew</strong><p>Choose number of points to send.</font><div class='respPicDiv'><img src='img/responseButtonOffersNo0L.png' class='respPic'></div></div>","4","3","Matthew","2","Kept","0.35,0.65","11","0.35","trustrating_stim/white_00129_931230_fb_edt.bmp","4.5","33","9"
"html-keyboard-response","162","373328","0.0-19.0-2.8","61006f43a84b82fb439d7cba","bdp_trlrn","Wed Mar 15 2023 13:05:42 GMT-0600 (Mountain Daylight Time)","747986","Trustworthy,Untrustworthy","","null","","","","decisionFB","","<div class='trialDiv'><img src='trustrating_stim/white_00129_931230_fb_edt.bmp'><br><font class='baseline'><strong>Matthew</strong><p>Choose number of points to send.</font><div class='respPicDiv'><img src='img/responseButtonOffersNo0L4.png' class='respPic'></div></div>","null","3","Matthew","2","Kept","0.35,0.65","11","0.35","trustrating_stim/white_00129_931230_fb_edt.bmp","4.5","29","9"
"html-keyboard-response","163","374330","0.0-19.0-3.8","61006f43a84b82fb439d7cba","bdp_trlrn","Wed Mar 15 2023 13:05:42 GMT-0600 (Mountain Daylight Time)","747986","Trustworthy,Untrustworthy","","null","","","","feedback","","<div class='trialDiv'><img src='trustrating_stim/white_00129_931230_fb_edt.bmp'><br><font class='baseline'><strong>Matthew</strong><p>Received: <strong>16</strong></font> &nbsp; &nbsp; &nbsp; &nbsp; &nbsp; &nbsp;<font class='negOutcome'>Shared back: <strong>0</strong></font></font><div class='respPicDiv'><img src='img/responseButtonOffersNo0_wht.png' class='respPic'></div></div>","null","3","Matthew","2","Kept","0.35,0.65","11","0.35","trustrating_stim/white_00129_931230_fb_edt.bmp","4.5","29","9"
"html-keyboard-response","164","375425","0.0-19.0-1.9","61006f43a84b82fb439d7cba","bdp_trlrn","Wed Mar 15 2023 13:05:42 GMT-0600 (Mountain Daylight Time)","747986","Trustworthy,Untrustworthy","","1094","","","","decision","","<div class='trialDiv'><img src='trustrating_stim/white_mw046.bmp'><br><font class='baseline'><strong>Daniel</strong><p>Choose number of points to send.</font><div class='respPicDiv'><img src='img/responseButtonOffersNo0L.png' class='respPic'></div></div>","3","4","Daniel","8","Kept","0.65,0.2","12","0.65","trustrating_stim/white_mw046.bmp","6","34","10"
"html-keyboard-response","165","375677","0.0-19.0-2.9","61006f43a84b82fb439d7cba","bdp_trlrn","Wed Mar 15 2023 13:05:42 GMT-0600 (Mountain Daylight Time)","747986","Trustworthy,Untrustworthy","","null","","","","decisionFB","","<div class='trialDiv'><img src='trustrating_stim/white_mw046.bmp'><br><font class='baseline'><strong>Daniel</strong><p>Choose number of points to send.</font><div class='respPicDiv'><img src='img/responseButtonOffersNo0L3.png' class='respPic'></div></div>","null","4","Daniel","8","Kept","0.65,0.2","12","0.65","trustrating_stim/white_mw046.bmp","6","31","10"
"html-keyboard-response","166","376678","0.0-19.0-3.9","61006f43a84b82fb439d7cba","bdp_trlrn","Wed Mar 15 2023 13:05:42 GMT-0600 (Mountain Daylight Time)","747986","Trustworthy,Untrustworthy","","null","","","","feedback","","<div class='trialDiv'><img src='trustrating_stim/white_mw046.bmp'><br><font class='baseline'><strong>Daniel</strong><p>Received: <strong>12</strong></font> &nbsp; &nbsp; &nbsp; &nbsp; &nbsp; &nbsp;<font class='negOutcome'>Shared back: <strong>0</strong></font></font><div class='respPicDiv'><img src='img/responseButtonOffersNo0_wht.png' class='respPic'></div></div>","null","4","Daniel","8","Kept","0.65,0.2","12","0.65","trustrating_stim/white_mw046.bmp","6","31","10"
"html-keyboard-response","167","378701","0.0-19.0-1.10","61006f43a84b82fb439d7cba","bdp_trlrn","Wed Mar 15 2023 13:05:42 GMT-0600 (Mountain Daylight Time)","747986","Trustworthy,Untrustworthy","","2021","","","","decision","","<div class='trialDiv'><img src='trustrating_stim/white_00129_931230_fb_edt.bmp'><br><font class='baseline'><strong>Matthew</strong><p>Choose number of points to send.</font><div class='respPicDiv'><img src='img/responseButtonOffersNo0L.png' class='respPic'></div></div>","3","4","Matthew","2","Shared","0.35,0.65","11","0.35","trustrating_stim/white_00129_931230_fb_edt.bmp","4.5","36","11"
"html-keyboard-response","168","378952","0.0-19.0-2.10","61006f43a84b82fb439d7cba","bdp_trlrn","Wed Mar 15 2023 13:05:42 GMT-0600 (Mountain Daylight Time)","747986","Trustworthy,Untrustworthy","","null","","","","decisionFB","","<div class='trialDiv'><img src='trustrating_stim/white_00129_931230_fb_edt.bmp'><br><font class='baseline'><strong>Matthew</strong><p>Choose number of points to send.</font><div class='respPicDiv'><img src='img/responseButtonOffersNo0L3.png' class='respPic'></div></div>","null","4","Matthew","2","Shared","0.35,0.65","11","0.35","trustrating_stim/white_00129_931230_fb_edt.bmp","4.5","33","11"
"html-keyboard-response","169","379953","0.0-19.0-3.10","61006f43a84b82fb439d7cba","bdp_trlrn","Wed Mar 15 2023 13:05:42 GMT-0600 (Mountain Daylight Time)","747986","Trustworthy,Untrustworthy","","null","","","","feedback","","<div class='trialDiv'><img src='trustrating_stim/white_00129_931230_fb_edt.bmp'><br><font class='baseline'><strong>Matthew</strong><p>Received: <strong>12</strong></font> &nbsp; &nbsp; &nbsp; &nbsp; &nbsp; &nbsp;<font class='posOutcome'>Shared back: <strong>6</strong></font></font><div class='respPicDiv'><img src='img/responseButtonOffersNo0_wht.png' class='respPic'></div></div>","null","4","Matthew","2","Shared","0.35,0.65","11","0.35","trustrating_stim/white_00129_931230_fb_edt.bmp","4.5","39","11"
"html-keyboard-response","170","381492","0.0-19.0-1.11","61006f43a84b82fb439d7cba","bdp_trlrn","Wed Mar 15 2023 13:05:42 GMT-0600 (Mountain Daylight Time)","747986","Trustworthy,Untrustworthy","","1538","","","","decision","","<div class='trialDiv'><img src='trustrating_stim/white_00519_940519_fb_edt.bmp'><br><font class='baseline'><strong>Gavin</strong><p>Choose number of points to send.</font><div class='respPicDiv'><img src='img/responseButtonOffersNo0L.png' class='respPic'></div></div>","2","4","Gavin","4","Kept","0.35,0.8","14","0.35","trustrating_stim/white_00519_940519_fb_edt.bmp","5","44","12"
"html-keyboard-response","171","381743","0.0-19.0-2.11","61006f43a84b82fb439d7cba","bdp_trlrn","Wed Mar 15 2023 13:05:42 GMT-0600 (Mountain Daylight Time)","747986","Trustworthy,Untrustworthy","","null","","","","decisionFB","","<div class='trialDiv'><img src='trustrating_stim/white_00519_940519_fb_edt.bmp'><br><font class='baseline'><strong>Gavin</strong><p>Choose number of points to send.</font><div class='respPicDiv'><img src='img/responseButtonOffersNo0L2.png' class='respPic'></div></div>","null","4","Gavin","4","Kept","0.35,0.8","14","0.35","trustrating_stim/white_00519_940519_fb_edt.bmp","5","42","12"
"html-keyboard-response","172","382745","0.0-19.0-3.11","61006f43a84b82fb439d7cba","bdp_trlrn","Wed Mar 15 2023 13:05:42 GMT-0600 (Mountain Daylight Time)","747986","Trustworthy,Untrustworthy","","null","","","","feedback","","<div class='trialDiv'><img src='trustrating_stim/white_00519_940519_fb_edt.bmp'><br><font class='baseline'><strong>Gavin</strong><p>Received: <strong>8</strong></font> &nbsp; &nbsp; &nbsp; &nbsp; &nbsp; &nbsp;<font class='negOutcome'>Shared back: <strong>0</strong></font></font><div class='respPicDiv'><img src='img/responseButtonOffersNo0_wht.png' class='respPic'></div></div>","null","4","Gavin","4","Kept","0.35,0.8","14","0.35","trustrating_stim/white_00519_940519_fb_edt.bmp","5","42","12"
"html-keyboard-response","173","385031","0.0-19.0-1.12","61006f43a84b82fb439d7cba","bdp_trlrn","Wed Mar 15 2023 13:05:42 GMT-0600 (Mountain Daylight Time)","747986","Trustworthy,Untrustworthy","","2283","","","","decision","","<div class='trialDiv'><img src='trustrating_stim/white_00129_931230_fb_edt.bmp'><br><font class='baseline'><strong>Matthew</strong><p>Choose number of points to send.</font><div class='respPicDiv'><img src='img/responseButtonOffersNo0L.png' class='respPic'></div></div>","3","5","Matthew","2","Kept","0.35,0.65","11","0.35","trustrating_stim/white_00129_931230_fb_edt.bmp","4.5","47","13"
"html-keyboard-response","174","385283","0.0-19.0-2.12","61006f43a84b82fb439d7cba","bdp_trlrn","Wed Mar 15 2023 13:05:42 GMT-0600 (Mountain Daylight Time)","747986","Trustworthy,Untrustworthy","","null","","","","decisionFB","","<div class='trialDiv'><img src='trustrating_stim/white_00129_931230_fb_edt.bmp'><br><font class='baseline'><strong>Matthew</strong><p>Choose number of points to send.</font><div class='respPicDiv'><img src='img/responseButtonOffersNo0L3.png' class='respPic'></div></div>","null","5","Matthew","2","Kept","0.35,0.65","11","0.35","trustrating_stim/white_00129_931230_fb_edt.bmp","4.5","44","13"
"html-keyboard-response","175","386285","0.0-19.0-3.12","61006f43a84b82fb439d7cba","bdp_trlrn","Wed Mar 15 2023 13:05:42 GMT-0600 (Mountain Daylight Time)","747986","Trustworthy,Untrustworthy","","null","","","","feedback","","<div class='trialDiv'><img src='trustrating_stim/white_00129_931230_fb_edt.bmp'><br><font class='baseline'><strong>Matthew</strong><p>Received: <strong>12</strong></font> &nbsp; &nbsp; &nbsp; &nbsp; &nbsp; &nbsp;<font class='negOutcome'>Shared back: <strong>0</strong></font></font><div class='respPicDiv'><img src='img/responseButtonOffersNo0_wht.png' class='respPic'></div></div>","null","5","Matthew","2","Kept","0.35,0.65","11","0.35","trustrating_stim/white_00129_931230_fb_edt.bmp","4.5","44","13"
"html-keyboard-response","176","387789","0.0-19.0-1.13","61006f43a84b82fb439d7cba","bdp_trlrn","Wed Mar 15 2023 13:05:42 GMT-0600 (Mountain Daylight Time)","747986","Trustworthy,Untrustworthy","","1503","","","","decision","","<div class='trialDiv'><img src='trustrating_stim/white_mw046.bmp'><br><font class='baseline'><strong>Daniel</strong><p>Choose number of points to send.</font><div class='respPicDiv'><img src='img/responseButtonOffersNo0L.png' class='respPic'></div></div>","2","5","Daniel","8","Kept","0.65,0.2","12","0.65","trustrating_stim/white_mw046.bmp","6","49","14"
"html-keyboard-response","177","388041","0.0-19.0-2.13","61006f43a84b82fb439d7cba","bdp_trlrn","Wed Mar 15 2023 13:05:42 GMT-0600 (Mountain Daylight Time)","747986","Trustworthy,Untrustworthy","","null","","","","decisionFB","","<div class='trialDiv'><img src='trustrating_stim/white_mw046.bmp'><br><font class='baseline'><strong>Daniel</strong><p>Choose number of points to send.</font><div class='respPicDiv'><img src='img/responseButtonOffersNo0L2.png' class='respPic'></div></div>","null","5","Daniel","8","Kept","0.65,0.2","12","0.65","trustrating_stim/white_mw046.bmp","6","47","14"
"html-keyboard-response","178","389042","0.0-19.0-3.13","61006f43a84b82fb439d7cba","bdp_trlrn","Wed Mar 15 2023 13:05:42 GMT-0600 (Mountain Daylight Time)","747986","Trustworthy,Untrustworthy","","null","","","","feedback","","<div class='trialDiv'><img src='trustrating_stim/white_mw046.bmp'><br><font class='baseline'><strong>Daniel</strong><p>Received: <strong>8</strong></font> &nbsp; &nbsp; &nbsp; &nbsp; &nbsp; &nbsp;<font class='negOutcome'>Shared back: <strong>0</strong></font></font><div class='respPicDiv'><img src='img/responseButtonOffersNo0_wht.png' class='respPic'></div></div>","null","5","Daniel","8","Kept","0.65,0.2","12","0.65","trustrating_stim/white_mw046.bmp","6","47","14"
"html-keyboard-response","179","389872","0.0-19.0-1.14","61006f43a84b82fb439d7cba","bdp_trlrn","Wed Mar 15 2023 13:05:42 GMT-0600 (Mountain Daylight Time)","747986","Trustworthy,Untrustworthy","","828","","","","decision","","<div class='trialDiv'><img src='trustrating_stim/white_00519_940519_fb_edt.bmp'><br><font class='baseline'><strong>Gavin</strong><p>Choose number of points to send.</font><div class='respPicDiv'><img src='img/responseButtonOffersNo0L.png' class='respPic'></div></div>","1","5","Gavin","4","Kept","0.35,0.8","14","0.35","trustrating_stim/white_00519_940519_fb_edt.bmp","5","52","15"
"html-keyboard-response","180","390123","0.0-19.0-2.14","61006f43a84b82fb439d7cba","bdp_trlrn","Wed Mar 15 2023 13:05:42 GMT-0600 (Mountain Daylight Time)","747986","Trustworthy,Untrustworthy","","null","","","","decisionFB","","<div class='trialDiv'><img src='trustrating_stim/white_00519_940519_fb_edt.bmp'><br><font class='baseline'><strong>Gavin</strong><p>Choose number of points to send.</font><div class='respPicDiv'><img src='img/responseButtonOffersNo0L1.png' class='respPic'></div></div>","null","5","Gavin","4","Kept","0.35,0.8","14","0.35","trustrating_stim/white_00519_940519_fb_edt.bmp","5","51","15"
"html-keyboard-response","181","391125","0.0-19.0-3.14","61006f43a84b82fb439d7cba","bdp_trlrn","Wed Mar 15 2023 13:05:42 GMT-0600 (Mountain Daylight Time)","747986","Trustworthy,Untrustworthy","","null","","","","feedback","","<div class='trialDiv'><img src='trustrating_stim/white_00519_940519_fb_edt.bmp'><br><font class='baseline'><strong>Gavin</strong><p>Received: <strong>4</strong></font> &nbsp; &nbsp; &nbsp; &nbsp; &nbsp; &nbsp;<font class='negOutcome'>Shared back: <strong>0</strong></font></font><div class='respPicDiv'><img src='img/responseButtonOffersNo0_wht.png' class='respPic'></div></div>","null","5","Gavin","4","Kept","0.35,0.8","14","0.35","trustrating_stim/white_00519_940519_fb_edt.bmp","5","51","15"
"html-keyboard-response","182","393091","0.0-19.0-1.15","61006f43a84b82fb439d7cba","bdp_trlrn","Wed Mar 15 2023 13:05:42 GMT-0600 (Mountain Daylight Time)","747986","Trustworthy,Untrustworthy","","1964","","","","decision","","<div class='trialDiv'><img src='trustrating_stim/white_00129_931230_fb_edt.bmp'><br><font class='baseline'><strong>Matthew</strong><p>Choose number of points to send.</font><div class='respPicDiv'><img src='img/responseButtonOffersNo0L.png' class='respPic'></div></div>","3","6","Matthew","2","Kept","0.35,0.65","11","0.35","trustrating_stim/white_00129_931230_fb_edt.bmp","4.5","56","16"
"html-keyboard-response","183","393343","0.0-19.0-2.15","61006f43a84b82fb439d7cba","bdp_trlrn","Wed Mar 15 2023 13:05:42 GMT-0600 (Mountain Daylight Time)","747986","Trustworthy,Untrustworthy","","null","","","","decisionFB","","<div class='trialDiv'><img src='trustrating_stim/white_00129_931230_fb_edt.bmp'><br><font class='baseline'><strong>Matthew</strong><p>Choose number of points to send.</font><div class='respPicDiv'><img src='img/responseButtonOffersNo0L3.png' class='respPic'></div></div>","null","6","Matthew","2","Kept","0.35,0.65","11","0.35","trustrating_stim/white_00129_931230_fb_edt.bmp","4.5","53","16"
"html-keyboard-response","184","394344","0.0-19.0-3.15","61006f43a84b82fb439d7cba","bdp_trlrn","Wed Mar 15 2023 13:05:42 GMT-0600 (Mountain Daylight Time)","747986","Trustworthy,Untrustworthy","","null","","","","feedback","","<div class='trialDiv'><img src='trustrating_stim/white_00129_931230_fb_edt.bmp'><br><font class='baseline'><strong>Matthew</strong><p>Received: <strong>12</strong></font> &nbsp; &nbsp; &nbsp; &nbsp; &nbsp; &nbsp;<font class='negOutcome'>Shared back: <strong>0</strong></font></font><div class='respPicDiv'><img src='img/responseButtonOffersNo0_wht.png' class='respPic'></div></div>","null","6","Matthew","2","Kept","0.35,0.65","11","0.35","trustrating_stim/white_00129_931230_fb_edt.bmp","4.5","53","16"
"html-keyboard-response","185","395162","0.0-19.0-1.16","61006f43a84b82fb439d7cba","bdp_trlrn","Wed Mar 15 2023 13:05:42 GMT-0600 (Mountain Daylight Time)","747986","Trustworthy,Untrustworthy","","817","","","","decision","","<div class='trialDiv'><img src='trustrating_stim/white_00519_940519_fb_edt.bmp'><br><font class='baseline'><strong>Gavin</strong><p>Choose number of points to send.</font><div class='respPicDiv'><img src='img/responseButtonOffersNo0L.png' class='respPic'></div></div>","1","6","Gavin","4","Kept","0.35,0.8","14","0.35","trustrating_stim/white_00519_940519_fb_edt.bmp","5","58","17"
"html-keyboard-response","186","395413","0.0-19.0-2.16","61006f43a84b82fb439d7cba","bdp_trlrn","Wed Mar 15 2023 13:05:42 GMT-0600 (Mountain Daylight Time)","747986","Trustworthy,Untrustworthy","","null","","","","decisionFB","","<div class='trialDiv'><img src='trustrating_stim/white_00519_940519_fb_edt.bmp'><br><font class='baseline'><strong>Gavin</strong><p>Choose number of points to send.</font><div class='respPicDiv'><img src='img/responseButtonOffersNo0L1.png' class='respPic'></div></div>","null","6","Gavin","4","Kept","0.35,0.8","14","0.35","trustrating_stim/white_00519_940519_fb_edt.bmp","5","57","17"
"html-keyboard-response","187","396416","0.0-19.0-3.16","61006f43a84b82fb439d7cba","bdp_trlrn","Wed Mar 15 2023 13:05:42 GMT-0600 (Mountain Daylight Time)","747986","Trustworthy,Untrustworthy","","null","","","","feedback","","<div class='trialDiv'><img src='trustrating_stim/white_00519_940519_fb_edt.bmp'><br><font class='baseline'><strong>Gavin</strong><p>Received: <strong>4</strong></font> &nbsp; &nbsp; &nbsp; &nbsp; &nbsp; &nbsp;<font class='negOutcome'>Shared back: <strong>0</strong></font></font><div class='respPicDiv'><img src='img/responseButtonOffersNo0_wht.png' class='respPic'></div></div>","null","6","Gavin","4","Kept","0.35,0.8","14","0.35","trustrating_stim/white_00519_940519_fb_edt.bmp","5","57","17"
"html-keyboard-response","188","400424","0.0-19.0-1.17","61006f43a84b82fb439d7cba","bdp_trlrn","Wed Mar 15 2023 13:05:42 GMT-0600 (Mountain Daylight Time)","747986","Trustworthy,Untrustworthy","","4007","","","","decision","","<div class='trialDiv'><img src='trustrating_stim/white_mw046.bmp'><br><font class='baseline'><strong>Daniel</strong><p>Choose number of points to send.</font><div class='respPicDiv'><img src='img/responseButtonOffersNo0L.png' class='respPic'></div></div>","4","6","Daniel","8","Shared","0.65,0.2","12","0.65","trustrating_stim/white_mw046.bmp","6","62","18"
"html-keyboard-response","189","400679","0.0-19.0-2.17","61006f43a84b82fb439d7cba","bdp_trlrn","Wed Mar 15 2023 13:05:42 GMT-0600 (Mountain Daylight Time)","747986","Trustworthy,Untrustworthy","","null","","","","decisionFB","","<div class='trialDiv'><img src='trustrating_stim/white_mw046.bmp'><br><font class='baseline'><strong>Daniel</strong><p>Choose number of points to send.</font><div class='respPicDiv'><img src='img/responseButtonOffersNo0L4.png' class='respPic'></div></div>","null","6","Daniel","8","Shared","0.65,0.2","12","0.65","trustrating_stim/white_mw046.bmp","6","58","18"
"html-keyboard-response","190","401681","0.0-19.0-3.17","61006f43a84b82fb439d7cba","bdp_trlrn","Wed Mar 15 2023 13:05:42 GMT-0600 (Mountain Daylight Time)","747986","Trustworthy,Untrustworthy","","null","","","","feedback","","<div class='trialDiv'><img src='trustrating_stim/white_mw046.bmp'><br><font class='baseline'><strong>Daniel</strong><p>Received: <strong>16</strong></font> &nbsp; &nbsp; &nbsp; &nbsp; &nbsp; &nbsp;<font class='posOutcome'>Shared back: <strong>8</strong></font></font><div class='respPicDiv'><img src='img/responseButtonOffersNo0_wht.png' class='respPic'></div></div>","null","6","Daniel","8","Shared","0.65,0.2","12","0.65","trustrating_stim/white_mw046.bmp","6","66","18"
"html-keyboard-response","191","403699","0.0-19.0-1.18","61006f43a84b82fb439d7cba","bdp_trlrn","Wed Mar 15 2023 13:05:42 GMT-0600 (Mountain Daylight Time)","747986","Trustworthy,Untrustworthy","","2016","","","","decision","","<div class='trialDiv'><img src='trustrating_stim/white_00519_940519_fb_edt.bmp'><br><font class='baseline'><strong>Gavin</strong><p>Choose number of points to send.</font><div class='respPicDiv'><img src='img/responseButtonOffersNo0L.png' class='respPic'></div></div>","4","7","Gavin","4","Shared","0.35,0.8","14","0.35","trustrating_stim/white_00519_940519_fb_edt.bmp","5","71","19"
"html-keyboard-response","192","403950","0.0-19.0-2.18","61006f43a84b82fb439d7cba","bdp_trlrn","Wed Mar 15 2023 13:05:42 GMT-0600 (Mountain Daylight Time)","747986","Trustworthy,Untrustworthy","","null","","","","decisionFB","","<div class='trialDiv'><img src='trustrating_stim/white_00519_940519_fb_edt.bmp'><br><font class='baseline'><strong>Gavin</strong><p>Choose number of points to send.</font><div class='respPicDiv'><img src='img/responseButtonOffersNo0L4.png' class='respPic'></div></div>","null","7","Gavin","4","Shared","0.35,0.8","14","0.35","trustrating_stim/white_00519_940519_fb_edt.bmp","5","67","19"
"html-keyboard-response","193","404953","0.0-19.0-3.18","61006f43a84b82fb439d7cba","bdp_trlrn","Wed Mar 15 2023 13:05:42 GMT-0600 (Mountain Daylight Time)","747986","Trustworthy,Untrustworthy","","null","","","","feedback","","<div class='trialDiv'><img src='trustrating_stim/white_00519_940519_fb_edt.bmp'><br><font class='baseline'><strong>Gavin</strong><p>Received: <strong>16</strong></font> &nbsp; &nbsp; &nbsp; &nbsp; &nbsp; &nbsp;<font class='posOutcome'>Shared back: <strong>8</strong></font></font><div class='respPicDiv'><img src='img/responseButtonOffersNo0_wht.png' class='respPic'></div></div>","null","7","Gavin","4","Shared","0.35,0.8","14","0.35","trustrating_stim/white_00519_940519_fb_edt.bmp","5","75","19"
"html-keyboard-response","194","408107","0.0-19.0-1.19","61006f43a84b82fb439d7cba","bdp_trlrn","Wed Mar 15 2023 13:05:42 GMT-0600 (Mountain Daylight Time)","747986","Trustworthy,Untrustworthy","","3152","","","","decision","","<div class='trialDiv'><img src='trustrating_stim/white_mw046.bmp'><br><font class='baseline'><strong>Daniel</strong><p>Choose number of points to send.</font><div class='respPicDiv'><img src='img/responseButtonOffersNo0L.png' class='respPic'></div></div>","5","7","Daniel","8","Kept","0.65,0.2","12","0.65","trustrating_stim/white_mw046.bmp","6","80","20"
"html-keyboard-response","195","408358","0.0-19.0-2.19","61006f43a84b82fb439d7cba","bdp_trlrn","Wed Mar 15 2023 13:05:42 GMT-0600 (Mountain Daylight Time)","747986","Trustworthy,Untrustworthy","","null","","","","decisionFB","","<div class='trialDiv'><img src='trustrating_stim/white_mw046.bmp'><br><font class='baseline'><strong>Daniel</strong><p>Choose number of points to send.</font><div class='respPicDiv'><img src='img/responseButtonOffersNo0L5.png' class='respPic'></div></div>","null","7","Daniel","8","Kept","0.65,0.2","12","0.65","trustrating_stim/white_mw046.bmp","6","75","20"
"html-keyboard-response","196","409360","0.0-19.0-3.19","61006f43a84b82fb439d7cba","bdp_trlrn","Wed Mar 15 2023 13:05:42 GMT-0600 (Mountain Daylight Time)","747986","Trustworthy,Untrustworthy","","null","","","","feedback","","<div class='trialDiv'><img src='trustrating_stim/white_mw046.bmp'><br><font class='baseline'><strong>Daniel</strong><p>Received: <strong>20</strong></font> &nbsp; &nbsp; &nbsp; &nbsp; &nbsp; &nbsp;<font class='negOutcome'>Shared back: <strong>0</strong></font></font><div class='respPicDiv'><img src='img/responseButtonOffersNo0_wht.png' class='respPic'></div></div>","null","7","Daniel","8","Kept","0.65,0.2","12","0.65","trustrating_stim/white_mw046.bmp","6","75","20"
"html-keyboard-response","197","412362","0.0-19.0-1.20","61006f43a84b82fb439d7cba","bdp_trlrn","Wed Mar 15 2023 13:05:42 GMT-0600 (Mountain Daylight Time)","747986","Trustworthy,Untrustworthy","","3000","","","","decision","","<div class='trialDiv'><img src='trustrating_stim/white_00129_931230_fb_edt.bmp'><br><font class='baseline'><strong>Matthew</strong><p>Choose number of points to send.</font><div class='respPicDiv'><img src='img/responseButtonOffersNo0L.png' class='respPic'></div></div>","4","7","Matthew","2","Shared","0.35,0.65","11","0.35","trustrating_stim/white_00129_931230_fb_edt.bmp","4.5","80","21"
"html-keyboard-response","198","412613","0.0-19.0-2.20","61006f43a84b82fb439d7cba","bdp_trlrn","Wed Mar 15 2023 13:05:42 GMT-0600 (Mountain Daylight Time)","747986","Trustworthy,Untrustworthy","","null","","","","decisionFB","","<div class='trialDiv'><img src='trustrating_stim/white_00129_931230_fb_edt.bmp'><br><font class='baseline'><strong>Matthew</strong><p>Choose number of points to send.</font><div class='respPicDiv'><img src='img/responseButtonOffersNo0L4.png' class='respPic'></div></div>","null","7","Matthew","2","Shared","0.35,0.65","11","0.35","trustrating_stim/white_00129_931230_fb_edt.bmp","4.5","76","21"
"html-keyboard-response","199","413614","0.0-19.0-3.20","61006f43a84b82fb439d7cba","bdp_trlrn","Wed Mar 15 2023 13:05:42 GMT-0600 (Mountain Daylight Time)","747986","Trustworthy,Untrustworthy","","null","","","","feedback","","<div class='trialDiv'><img src='trustrating_stim/white_00129_931230_fb_edt.bmp'><br><font class='baseline'><strong>Matthew</strong><p>Received: <strong>16</strong></font> &nbsp; &nbsp; &nbsp; &nbsp; &nbsp; &nbsp;<font class='posOutcome'>Shared back: <strong>8</strong></font></font><div class='respPicDiv'><img src='img/responseButtonOffersNo0_wht.png' class='respPic'></div></div>","null","7","Matthew","2","Shared","0.35,0.65","11","0.35","trustrating_stim/white_00129_931230_fb_edt.bmp","4.5","84","21"
"html-keyboard-response","200","416066","0.0-19.0-1.21","61006f43a84b82fb439d7cba","bdp_trlrn","Wed Mar 15 2023 13:05:42 GMT-0600 (Mountain Daylight Time)","747986","Trustworthy,Untrustworthy","","2451","","","","decision","","<div class='trialDiv'><img src='trustrating_stim/white_mw046.bmp'><br><font class='baseline'><strong>Daniel</strong><p>Choose number of points to send.</font><div class='respPicDiv'><img src='img/responseButtonOffersNo0L.png' class='respPic'></div></div>","4","8","Daniel","8","Kept","0.65,0.2","12","0.65","trustrating_stim/white_mw046.bmp","6","89","22"
"html-keyboard-response","201","416319","0.0-19.0-2.21","61006f43a84b82fb439d7cba","bdp_trlrn","Wed Mar 15 2023 13:05:42 GMT-0600 (Mountain Daylight Time)","747986","Trustworthy,Untrustworthy","","null","","","","decisionFB","","<div class='trialDiv'><img src='trustrating_stim/white_mw046.bmp'><br><font class='baseline'><strong>Daniel</strong><p>Choose number of points to send.</font><div class='respPicDiv'><img src='img/responseButtonOffersNo0L4.png' class='respPic'></div></div>","null","8","Daniel","8","Kept","0.65,0.2","12","0.65","trustrating_stim/white_mw046.bmp","6","85","22"
"html-keyboard-response","202","417321","0.0-19.0-3.21","61006f43a84b82fb439d7cba","bdp_trlrn","Wed Mar 15 2023 13:05:42 GMT-0600 (Mountain Daylight Time)","747986","Trustworthy,Untrustworthy","","null","","","","feedback","","<div class='trialDiv'><img src='trustrating_stim/white_mw046.bmp'><br><font class='baseline'><strong>Daniel</strong><p>Received: <strong>16</strong></font> &nbsp; &nbsp; &nbsp; &nbsp; &nbsp; &nbsp;<font class='negOutcome'>Shared back: <strong>0</strong></font></font><div class='respPicDiv'><img src='img/responseButtonOffersNo0_wht.png' class='respPic'></div></div>","null","8","Daniel","8","Kept","0.65,0.2","12","0.65","trustrating_stim/white_mw046.bmp","6","85","22"
"html-keyboard-response","203","419558","0.0-19.0-1.22","61006f43a84b82fb439d7cba","bdp_trlrn","Wed Mar 15 2023 13:05:42 GMT-0600 (Mountain Daylight Time)","747986","Trustworthy,Untrustworthy","","2237","","","","decision","","<div class='trialDiv'><img src='trustrating_stim/white_00519_940519_fb_edt.bmp'><br><font class='baseline'><strong>Gavin</strong><p>Choose number of points to send.</font><div class='respPicDiv'><img src='img/responseButtonOffersNo0L.png' class='respPic'></div></div>","5","8","Gavin","4","Shared","0.35,0.8","14","0.35","trustrating_stim/white_00519_940519_fb_edt.bmp","5","90","23"
"html-keyboard-response","204","419812","0.0-19.0-2.22","61006f43a84b82fb439d7cba","bdp_trlrn","Wed Mar 15 2023 13:05:42 GMT-0600 (Mountain Daylight Time)","747986","Trustworthy,Untrustworthy","","null","","","","decisionFB","","<div class='trialDiv'><img src='trustrating_stim/white_00519_940519_fb_edt.bmp'><br><font class='baseline'><strong>Gavin</strong><p>Choose number of points to send.</font><div class='respPicDiv'><img src='img/responseButtonOffersNo0L5.png' class='respPic'></div></div>","null","8","Gavin","4","Shared","0.35,0.8","14","0.35","trustrating_stim/white_00519_940519_fb_edt.bmp","5","85","23"
"html-keyboard-response","205","420815","0.0-19.0-3.22","61006f43a84b82fb439d7cba","bdp_trlrn","Wed Mar 15 2023 13:05:42 GMT-0600 (Mountain Daylight Time)","747986","Trustworthy,Untrustworthy","","null","","","","feedback","","<div class='trialDiv'><img src='trustrating_stim/white_00519_940519_fb_edt.bmp'><br><font class='baseline'><strong>Gavin</strong><p>Received: <strong>20</strong></font> &nbsp; &nbsp; &nbsp; &nbsp; &nbsp; &nbsp;<font class='posOutcome'>Shared back: <strong>10</strong></font></font><div class='respPicDiv'><img src='img/responseButtonOffersNo0_wht.png' class='respPic'></div></div>","null","8","Gavin","4","Shared","0.35,0.8","14","0.35","trustrating_stim/white_00519_940519_fb_edt.bmp","5","95","23"
"html-keyboard-response","206","422067","0.0-19.0-1.23","61006f43a84b82fb439d7cba","bdp_trlrn","Wed Mar 15 2023 13:05:42 GMT-0600 (Mountain Daylight Time)","747986","Trustworthy,Untrustworthy","","1250","","","","decision","","<div class='trialDiv'><img src='trustrating_stim/white_00129_931230_fb_edt.bmp'><br><font class='baseline'><strong>Matthew</strong><p>Choose number of points to send.</font><div class='respPicDiv'><img src='img/responseButtonOffersNo0L.png' class='respPic'></div></div>","5","8","Matthew","2","Kept","0.35,0.65","11","0.35","trustrating_stim/white_00129_931230_fb_edt.bmp","4.5","100","24"
"html-keyboard-response","207","422319","0.0-19.0-2.23","61006f43a84b82fb439d7cba","bdp_trlrn","Wed Mar 15 2023 13:05:42 GMT-0600 (Mountain Daylight Time)","747986","Trustworthy,Untrustworthy","","null","","","","decisionFB","","<div class='trialDiv'><img src='trustrating_stim/white_00129_931230_fb_edt.bmp'><br><font class='baseline'><strong>Matthew</strong><p>Choose number of points to send.</font><div class='respPicDiv'><img src='img/responseButtonOffersNo0L5.png' class='respPic'></div></div>","null","8","Matthew","2","Kept","0.35,0.65","11","0.35","trustrating_stim/white_00129_931230_fb_edt.bmp","4.5","95","24"
"html-keyboard-response","208","423321","0.0-19.0-3.23","61006f43a84b82fb439d7cba","bdp_trlrn","Wed Mar 15 2023 13:05:42 GMT-0600 (Mountain Daylight Time)","747986","Trustworthy,Untrustworthy","","null","","","","feedback","","<div class='trialDiv'><img src='trustrating_stim/white_00129_931230_fb_edt.bmp'><br><font class='baseline'><strong>Matthew</strong><p>Received: <strong>20</strong></font> &nbsp; &nbsp; &nbsp; &nbsp; &nbsp; &nbsp;<font class='negOutcome'>Shared back: <strong>0</strong></font></font><div class='respPicDiv'><img src='img/responseButtonOffersNo0_wht.png' class='respPic'></div></div>","null","8","Matthew","2","Kept","0.35,0.65","11","0.35","trustrating_stim/white_00129_931230_fb_edt.bmp","4.5","95","24"
"html-keyboard-response","209","424224","0.0-19.0-1.24","61006f43a84b82fb439d7cba","bdp_trlrn","Wed Mar 15 2023 13:05:42 GMT-0600 (Mountain Daylight Time)","747986","Trustworthy,Untrustworthy","","901","","","","decision","","<div class='trialDiv'><img src='trustrating_stim/white_00519_940519_fb_edt.bmp'><br><font class='baseline'><strong>Gavin</strong><p>Choose number of points to send.</font><div class='respPicDiv'><img src='img/responseButtonOffersNo0L.png' class='respPic'></div></div>","5","9","Gavin","4","Kept","0.35,0.8","14","0.35","trustrating_stim/white_00519_940519_fb_edt.bmp","5","100","25"
"html-keyboard-response","210","424476","0.0-19.0-2.24","61006f43a84b82fb439d7cba","bdp_trlrn","Wed Mar 15 2023 13:05:42 GMT-0600 (Mountain Daylight Time)","747986","Trustworthy,Untrustworthy","","null","","","","decisionFB","","<div class='trialDiv'><img src='trustrating_stim/white_00519_940519_fb_edt.bmp'><br><font class='baseline'><strong>Gavin</strong><p>Choose number of points to send.</font><div class='respPicDiv'><img src='img/responseButtonOffersNo0L5.png' class='respPic'></div></div>","null","9","Gavin","4","Kept","0.35,0.8","14","0.35","trustrating_stim/white_00519_940519_fb_edt.bmp","5","95","25"
"html-keyboard-response","211","425478","0.0-19.0-3.24","61006f43a84b82fb439d7cba","bdp_trlrn","Wed Mar 15 2023 13:05:42 GMT-0600 (Mountain Daylight Time)","747986","Trustworthy,Untrustworthy","","null","","","","feedback","","<div class='trialDiv'><img src='trustrating_stim/white_00519_940519_fb_edt.bmp'><br><font class='baseline'><strong>Gavin</strong><p>Received: <strong>20</strong></font> &nbsp; &nbsp; &nbsp; &nbsp; &nbsp; &nbsp;<font class='negOutcome'>Shared back: <strong>0</strong></font></font><div class='respPicDiv'><img src='img/responseButtonOffersNo0_wht.png' class='respPic'></div></div>","null","9","Gavin","4","Kept","0.35,0.8","14","0.35","trustrating_stim/white_00519_940519_fb_edt.bmp","5","95","25"
"html-keyboard-response","212","429784","0.0-19.0-1.25","61006f43a84b82fb439d7cba","bdp_trlrn","Wed Mar 15 2023 13:05:42 GMT-0600 (Mountain Daylight Time)","747986","Trustworthy,Untrustworthy","","4305","","","","decision","","<div class='trialDiv'><img src='trustrating_stim/white_00129_931230_fb_edt.bmp'><br><font class='baseline'><strong>Matthew</strong><p>Choose number of points to send.</font><div class='respPicDiv'><img src='img/responseButtonOffersNo0L.png' class='respPic'></div></div>","3","9","Matthew","2","Shared","0.35,0.65","11","0.35","trustrating_stim/white_00129_931230_fb_edt.bmp","4.5","100","26"
"html-keyboard-response","213","430036","0.0-19.0-2.25","61006f43a84b82fb439d7cba","bdp_trlrn","Wed Mar 15 2023 13:05:42 GMT-0600 (Mountain Daylight Time)","747986","Trustworthy,Untrustworthy","","null","","","","decisionFB","","<div class='trialDiv'><img src='trustrating_stim/white_00129_931230_fb_edt.bmp'><br><font class='baseline'><strong>Matthew</strong><p>Choose number of points to send.</font><div class='respPicDiv'><img src='img/responseButtonOffersNo0L3.png' class='respPic'></div></div>","null","9","Matthew","2","Shared","0.35,0.65","11","0.35","trustrating_stim/white_00129_931230_fb_edt.bmp","4.5","97","26"
"html-keyboard-response","214","431037","0.0-19.0-3.25","61006f43a84b82fb439d7cba","bdp_trlrn","Wed Mar 15 2023 13:05:42 GMT-0600 (Mountain Daylight Time)","747986","Trustworthy,Untrustworthy","","null","","","","feedback","","<div class='trialDiv'><img src='trustrating_stim/white_00129_931230_fb_edt.bmp'><br><font class='baseline'><strong>Matthew</strong><p>Received: <strong>12</strong></font> &nbsp; &nbsp; &nbsp; &nbsp; &nbsp; &nbsp;<font class='posOutcome'>Shared back: <strong>6</strong></font></font><div class='respPicDiv'><img src='img/responseButtonOffersNo0_wht.png' class='respPic'></div></div>","null","9","Matthew","2","Shared","0.35,0.65","11","0.35","trustrating_stim/white_00129_931230_fb_edt.bmp","4.5","103","26"
"html-keyboard-response","215","433701","0.0-19.0-1.26","61006f43a84b82fb439d7cba","bdp_trlrn","Wed Mar 15 2023 13:05:42 GMT-0600 (Mountain Daylight Time)","747986","Trustworthy,Untrustworthy","","2663","","","","decision","","<div class='trialDiv'><img src='trustrating_stim/white_mw046.bmp'><br><font class='baseline'><strong>Daniel</strong><p>Choose number of points to send.</font><div class='respPicDiv'><img src='img/responseButtonOffersNo0L.png' class='respPic'></div></div>","4","9","Daniel","8","Shared","0.65,0.2","12","0.65","trustrating_stim/white_mw046.bmp","6","108","27"
"html-keyboard-response","216","433952","0.0-19.0-2.26","61006f43a84b82fb439d7cba","bdp_trlrn","Wed Mar 15 2023 13:05:42 GMT-0600 (Mountain Daylight Time)","747986","Trustworthy,Untrustworthy","","null","","","","decisionFB","","<div class='trialDiv'><img src='trustrating_stim/white_mw046.bmp'><br><font class='baseline'><strong>Daniel</strong><p>Choose number of points to send.</font><div class='respPicDiv'><img src='img/responseButtonOffersNo0L4.png' class='respPic'></div></div>","null","9","Daniel","8","Shared","0.65,0.2","12","0.65","trustrating_stim/white_mw046.bmp","6","104","27"
"html-keyboard-response","217","434954","0.0-19.0-3.26","61006f43a84b82fb439d7cba","bdp_trlrn","Wed Mar 15 2023 13:05:42 GMT-0600 (Mountain Daylight Time)","747986","Trustworthy,Untrustworthy","","null","","","","feedback","","<div class='trialDiv'><img src='trustrating_stim/white_mw046.bmp'><br><font class='baseline'><strong>Daniel</strong><p>Received: <strong>16</strong></font> &nbsp; &nbsp; &nbsp; &nbsp; &nbsp; &nbsp;<font class='posOutcome'>Shared back: <strong>8</strong></font></font><div class='respPicDiv'><img src='img/responseButtonOffersNo0_wht.png' class='respPic'></div></div>","null","9","Daniel","8","Shared","0.65,0.2","12","0.65","trustrating_stim/white_mw046.bmp","6","112","27"
"html-keyboard-response","218","436067","0.0-19.0-1.27","61006f43a84b82fb439d7cba","bdp_trlrn","Wed Mar 15 2023 13:05:42 GMT-0600 (Mountain Daylight Time)","747986","Trustworthy,Untrustworthy","","1111","","","","decision","","<div class='trialDiv'><img src='trustrating_stim/white_00519_940519_fb_edt.bmp'><br><font class='baseline'><strong>Gavin</strong><p>Choose number of points to send.</font><div class='respPicDiv'><img src='img/responseButtonOffersNo0L.png' class='respPic'></div></div>","2","10","Gavin","4","Shared","0.35,0.8","14","0.35","trustrating_stim/white_00519_940519_fb_edt.bmp","5","117","28"
"html-keyboard-response","219","436319","0.0-19.0-2.27","61006f43a84b82fb439d7cba","bdp_trlrn","Wed Mar 15 2023 13:05:42 GMT-0600 (Mountain Daylight Time)","747986","Trustworthy,Untrustworthy","","null","","","","decisionFB","","<div class='trialDiv'><img src='trustrating_stim/white_00519_940519_fb_edt.bmp'><br><font class='baseline'><strong>Gavin</strong><p>Choose number of points to send.</font><div class='respPicDiv'><img src='img/responseButtonOffersNo0L2.png' class='respPic'></div></div>","null","10","Gavin","4","Shared","0.35,0.8","14","0.35","trustrating_stim/white_00519_940519_fb_edt.bmp","5","115","28"
