"event","trial","time","trialtype","subject_id","task","startTime","totalTime","labels","trial_type","trial_index","time_elapsed","internal_node_id","numBlurs","view_history","rt","success","stimulus","key_press","aground","name","faceID","outcome","agenttype","agentswpt","agentcurrpshare","face","avgRating","point_total","round"
"focus","0","0","focusevent","5bb94dea3ea7ed00017cb109","bdp_trlrn","Sun Mar 12 2023 23:58:04 GMT-0400 (Eastern Daylight Time)","673724","Untrustworthy,Trustworthy","","","","","","","","","","","","","","","","","","","","",""
"","","","","5bb94dea3ea7ed00017cb109","bdp_trlrn","Sun Mar 12 2023 23:58:04 GMT-0400 (Eastern Daylight Time)","673724","Untrustworthy,Trustworthy","pavlovia","0","1","0.0-0.0","","","","","","","","","","","","","","","","",""
"blur","1","3370","blurevent","5bb94dea3ea7ed00017cb109","bdp_trlrn","Sun Mar 12 2023 23:58:04 GMT-0400 (Eastern Daylight Time)","673724","Untrustworthy,Trustworthy","","","","","1","","","","","","","","","","","","","","","",""
"focus","1","5022","focusevent","5bb94dea3ea7ed00017cb109","bdp_trlrn","Sun Mar 12 2023 23:58:04 GMT-0400 (Eastern Daylight Time)","673724","Untrustworthy,Trustworthy","","","","","","","","","","","","","","","","","","","","",""
"","","","","5bb94dea3ea7ed00017cb109","bdp_trlrn","Sun Mar 12 2023 23:58:04 GMT-0400 (Eastern Daylight Time)","673724","Untrustworthy,Trustworthy","instructions","1","8916","0.0-1.0","","[{""page_index"":0,""viewing_time"":8915}]","8915","","","","","","","","","","","","","",""
"fullscreenexit","2","11407","fullscreenexit","5bb94dea3ea7ed00017cb109","bdp_trlrn","Sun Mar 12 2023 23:58:04 GMT-0400 (Eastern Daylight Time)","673724","Untrustworthy,Trustworthy","","","","","","","","","","","","","","","","","","","","",""
"","","","","5bb94dea3ea7ed00017cb109","bdp_trlrn","Sun Mar 12 2023 23:58:04 GMT-0400 (Eastern Daylight Time)","673724","Untrustworthy,Trustworthy","fullscreen","2","12211","0.0-2.0","","","","true","","","","","","","","","","","","",""
"","","","fullscreenfail","5bb94dea3ea7ed00017cb109","bdp_trlrn","Sun Mar 12 2023 23:58:04 GMT-0400 (Eastern Daylight Time)","673724","Untrustworthy,Trustworthy","image-keyboard-response","3","13601","0.0-3.0-0.0","","","1389","","","32","","","","","","","","","","",""
"","","","","5bb94dea3ea7ed00017cb109","bdp_trlrn","Sun Mar 12 2023 23:58:04 GMT-0400 (Eastern Daylight Time)","673724","Untrustworthy,Trustworthy","instructions","4","22961","0.0-4.0","","[{""page_index"":0,""viewing_time"":4528},{""page_index"":1,""viewing_time"":4577}]","9105","","","","","","","","","","","","","",""
"","","","","5bb94dea3ea7ed00017cb109","bdp_trlrn","Sun Mar 12 2023 23:58:04 GMT-0400 (Eastern Daylight Time)","673724","Untrustworthy,Trustworthy","instructions","5","29473","0.0-5.0","","[{""page_index"":0,""viewing_time"":6512}]","6512","","","","","","","","","","","","","",""
"","","","rating","5bb94dea3ea7ed00017cb109","bdp_trlrn","Sun Mar 12 2023 23:58:04 GMT-0400 (Eastern Daylight Time)","673724","Untrustworthy,Trustworthy","image-keyboard-response","6","31607","0.0-6.0-1.0","","","2030","","trustrating_stim/white_00807_941205_fb_edt.bmp","4","","","","","","","","","","",""
"","","","ratingFB","5bb94dea3ea7ed00017cb109","bdp_trlrn","Sun Mar 12 2023 23:58:04 GMT-0400 (Eastern Daylight Time)","673724","Untrustworthy,Trustworthy","image-keyboard-response","7","31812","0.0-6.0-2.0","","","null","","trustrating_stim/white_00807_941205_fb_edt.bmp","null","","","","","","","","","","",""
"","","","rating","5bb94dea3ea7ed00017cb109","bdp_trlrn","Sun Mar 12 2023 23:58:04 GMT-0400 (Eastern Daylight Time)","673724","Untrustworthy,Trustworthy","image-keyboard-response","8","34596","0.0-6.0-1.1","","","2675","","trustrating_stim/white_00120_931230_fa_edt.bmp","6","","","","","","","","","","",""
"","","","ratingFB","5bb94dea3ea7ed00017cb109","bdp_trlrn","Sun Mar 12 2023 23:58:04 GMT-0400 (Eastern Daylight Time)","673724","Untrustworthy,Trustworthy","image-keyboard-response","9","34798","0.0-6.0-2.1","","","null","","trustrating_stim/white_00120_931230_fa_edt.bmp","null","","","","","","","","","","",""
"","","","rating","5bb94dea3ea7ed00017cb109","bdp_trlrn","Sun Mar 12 2023 23:58:04 GMT-0400 (Eastern Daylight Time)","673724","Untrustworthy,Trustworthy","image-keyboard-response","10","36773","0.0-6.0-1.2","","","1866","","trustrating_stim/white_mw035.bmp","7","","","","","","","","","","",""
"","","","ratingFB","5bb94dea3ea7ed00017cb109","bdp_trlrn","Sun Mar 12 2023 23:58:04 GMT-0400 (Eastern Daylight Time)","673724","Untrustworthy,Trustworthy","image-keyboard-response","11","36985","0.0-6.0-2.2","","","null","","trustrating_stim/white_mw035.bmp","null","","","","","","","","","","",""
"","","","rating","5bb94dea3ea7ed00017cb109","bdp_trlrn","Sun Mar 12 2023 23:58:04 GMT-0400 (Eastern Daylight Time)","673724","Untrustworthy,Trustworthy","image-keyboard-response","12","38516","0.0-6.0-1.3","","","1423","","trustrating_stim/white_mw099.bmp","4","","","","","","","","","","",""
"","","","ratingFB","5bb94dea3ea7ed00017cb109","bdp_trlrn","Sun Mar 12 2023 23:58:04 GMT-0400 (Eastern Daylight Time)","673724","Untrustworthy,Trustworthy","image-keyboard-response","13","38727","0.0-6.0-2.3","","","null","","trustrating_stim/white_mw099.bmp","null","","","","","","","","","","",""
"","","","rating","5bb94dea3ea7ed00017cb109","bdp_trlrn","Sun Mar 12 2023 23:58:04 GMT-0400 (Eastern Daylight Time)","673724","Untrustworthy,Trustworthy","image-keyboard-response","14","40613","0.0-6.0-1.4","","","1777","","trustrating_stim/white_00785_941205_fb_edt.bmp","5","","","","","","","","","","",""
"","","","ratingFB","5bb94dea3ea7ed00017cb109","bdp_trlrn","Sun Mar 12 2023 23:58:04 GMT-0400 (Eastern Daylight Time)","673724","Untrustworthy,Trustworthy","image-keyboard-response","15","40824","0.0-6.0-2.4","","","null","","trustrating_stim/white_00785_941205_fb_edt.bmp","null","","","","","","","","","","",""
"","","","rating","5bb94dea3ea7ed00017cb109","bdp_trlrn","Sun Mar 12 2023 23:58:04 GMT-0400 (Eastern Daylight Time)","673724","Untrustworthy,Trustworthy","image-keyboard-response","16","43007","0.0-6.0-1.5","","","2076","","trustrating_stim/white_mw060.bmp","5","","","","","","","","","","",""
"","","","ratingFB","5bb94dea3ea7ed00017cb109","bdp_trlrn","Sun Mar 12 2023 23:58:04 GMT-0400 (Eastern Daylight Time)","673724","Untrustworthy,Trustworthy","image-keyboard-response","17","43212","0.0-6.0-2.5","","","null","","trustrating_stim/white_mw060.bmp","null","","","","","","","","","","",""
"","","","rating","5bb94dea3ea7ed00017cb109","bdp_trlrn","Sun Mar 12 2023 23:58:04 GMT-0400 (Eastern Daylight Time)","673724","Untrustworthy,Trustworthy","image-keyboard-response","18","44883","0.0-6.0-1.6","","","1563","","trustrating_stim/white_mw056.bmp","7","","","","","","","","","","",""
"","","","ratingFB","5bb94dea3ea7ed00017cb109","bdp_trlrn","Sun Mar 12 2023 23:58:04 GMT-0400 (Eastern Daylight Time)","673724","Untrustworthy,Trustworthy","image-keyboard-response","19","45092","0.0-6.0-2.6","","","null","","trustrating_stim/white_mw056.bmp","null","","","","","","","","","","",""
"","","","rating","5bb94dea3ea7ed00017cb109","bdp_trlrn","Sun Mar 12 2023 23:58:04 GMT-0400 (Eastern Daylight Time)","673724","Untrustworthy,Trustworthy","image-keyboard-response","20","46524","0.0-6.0-1.7","","","1325","","trustrating_stim/white_00761_941201_fb_edt.bmp","8","","","","","","","","","","",""
"","","","ratingFB","5bb94dea3ea7ed00017cb109","bdp_trlrn","Sun Mar 12 2023 23:58:04 GMT-0400 (Eastern Daylight Time)","673724","Untrustworthy,Trustworthy","image-keyboard-response","21","46725","0.0-6.0-2.7","","","null","","trustrating_stim/white_00761_941201_fb_edt.bmp","null","","","","","","","","","","",""
"","","","rating","5bb94dea3ea7ed00017cb109","bdp_trlrn","Sun Mar 12 2023 23:58:04 GMT-0400 (Eastern Daylight Time)","673724","Untrustworthy,Trustworthy","image-keyboard-response","22","48386","0.0-6.0-1.8","","","1553","","trustrating_stim/white_00340_940422_fa_edt.bmp","4","","","","","","","","","","",""
"","","","ratingFB","5bb94dea3ea7ed00017cb109","bdp_trlrn","Sun Mar 12 2023 23:58:04 GMT-0400 (Eastern Daylight Time)","673724","Untrustworthy,Trustworthy","image-keyboard-response","23","48590","0.0-6.0-2.8","","","null","","trustrating_stim/white_00340_940422_fa_edt.bmp","null","","","","","","","","","","",""
"","","","rating","5bb94dea3ea7ed00017cb109","bdp_trlrn","Sun Mar 12 2023 23:58:04 GMT-0400 (Eastern Daylight Time)","673724","Untrustworthy,Trustworthy","image-keyboard-response","24","50548","0.0-6.0-1.9","","","1850","","trustrating_stim/white_00223_940128_fb_edt.bmp","6","","","","","","","","","","",""
"","","","ratingFB","5bb94dea3ea7ed00017cb109","bdp_trlrn","Sun Mar 12 2023 23:58:04 GMT-0400 (Eastern Daylight Time)","673724","Untrustworthy,Trustworthy","image-keyboard-response","25","50763","0.0-6.0-2.9","","","null","","trustrating_stim/white_00223_940128_fb_edt.bmp","null","","","","","","","","","","",""
"","","","rating","5bb94dea3ea7ed00017cb109","bdp_trlrn","Sun Mar 12 2023 23:58:04 GMT-0400 (Eastern Daylight Time)","673724","Untrustworthy,Trustworthy","image-keyboard-response","26","52260","0.0-6.0-1.10","","","1389","","trustrating_stim/white_00519_940519_fb_edt.bmp","8","","","","","","","","","","",""
"","","","ratingFB","5bb94dea3ea7ed00017cb109","bdp_trlrn","Sun Mar 12 2023 23:58:04 GMT-0400 (Eastern Daylight Time)","673724","Untrustworthy,Trustworthy","image-keyboard-response","27","52474","0.0-6.0-2.10","","","null","","trustrating_stim/white_00519_940519_fb_edt.bmp","null","","","","","","","","","","",""
"","","","rating","5bb94dea3ea7ed00017cb109","bdp_trlrn","Sun Mar 12 2023 23:58:04 GMT-0400 (Eastern Daylight Time)","673724","Untrustworthy,Trustworthy","image-keyboard-response","28","54203","0.0-6.0-1.11","","","1620","","trustrating_stim/white_00577_940928_fa_edt.bmp","4","","","","","","","","","","",""
"","","","ratingFB","5bb94dea3ea7ed00017cb109","bdp_trlrn","Sun Mar 12 2023 23:58:04 GMT-0400 (Eastern Daylight Time)","673724","Untrustworthy,Trustworthy","image-keyboard-response","29","54416","0.0-6.0-2.11","","","null","","trustrating_stim/white_00577_940928_fa_edt.bmp","null","","","","","","","","","","",""
"","","","rating","5bb94dea3ea7ed00017cb109","bdp_trlrn","Sun Mar 12 2023 23:58:04 GMT-0400 (Eastern Daylight Time)","673724","Untrustworthy,Trustworthy","image-keyboard-response","30","56468","0.0-6.0-1.12","","","1943","","trustrating_stim/white_00129_931230_fb_edt.bmp","7","","","","","","","","","","",""
"","","","ratingFB","5bb94dea3ea7ed00017cb109","bdp_trlrn","Sun Mar 12 2023 23:58:04 GMT-0400 (Eastern Daylight Time)","673724","Untrustworthy,Trustworthy","image-keyboard-response","31","56680","0.0-6.0-2.12","","","null","","trustrating_stim/white_00129_931230_fb_edt.bmp","null","","","","","","","","","","",""
"","","","rating","5bb94dea3ea7ed00017cb109","bdp_trlrn","Sun Mar 12 2023 23:58:04 GMT-0400 (Eastern Daylight Time)","673724","Untrustworthy,Trustworthy","image-keyboard-response","32","60182","0.0-6.0-1.13","","","3395","","trustrating_stim/white_00109_931230_fa_edt.bmp","9","","","","","","","","","","",""
"","","","ratingFB","5bb94dea3ea7ed00017cb109","bdp_trlrn","Sun Mar 12 2023 23:58:04 GMT-0400 (Eastern Daylight Time)","673724","Untrustworthy,Trustworthy","image-keyboard-response","33","60396","0.0-6.0-2.13","","","null","","trustrating_stim/white_00109_931230_fa_edt.bmp","null","","","","","","","","","","",""
"","","","rating","5bb94dea3ea7ed00017cb109","bdp_trlrn","Sun Mar 12 2023 23:58:04 GMT-0400 (Eastern Daylight Time)","673724","Untrustworthy,Trustworthy","image-keyboard-response","34","62298","0.0-6.0-1.14","","","1793","","trustrating_stim/white_00299_940422_fa_edt.bmp","7","","","","","","","","","","",""
"","","","ratingFB","5bb94dea3ea7ed00017cb109","bdp_trlrn","Sun Mar 12 2023 23:58:04 GMT-0400 (Eastern Daylight Time)","673724","Untrustworthy,Trustworthy","image-keyboard-response","35","62507","0.0-6.0-2.14","","","null","","trustrating_stim/white_00299_940422_fa_edt.bmp","null","","","","","","","","","","",""
"","","","rating","5bb94dea3ea7ed00017cb109","bdp_trlrn","Sun Mar 12 2023 23:58:04 GMT-0400 (Eastern Daylight Time)","673724","Untrustworthy,Trustworthy","image-keyboard-response","36","64522","0.0-6.0-1.15","","","1908","","trustrating_stim/white_mw063.bmp","6","","","","","","","","","","",""
"","","","ratingFB","5bb94dea3ea7ed00017cb109","bdp_trlrn","Sun Mar 12 2023 23:58:04 GMT-0400 (Eastern Daylight Time)","673724","Untrustworthy,Trustworthy","image-keyboard-response","37","64725","0.0-6.0-2.15","","","null","","trustrating_stim/white_mw063.bmp","null","","","","","","","","","","",""
"","","","rating","5bb94dea3ea7ed00017cb109","bdp_trlrn","Sun Mar 12 2023 23:58:04 GMT-0400 (Eastern Daylight Time)","673724","Untrustworthy,Trustworthy","image-keyboard-response","38","66540","0.0-6.0-1.16","","","1705","","trustrating_stim/white_00602_940928_fb_edt.bmp","8","","","","","","","","","","",""
"","","","ratingFB","5bb94dea3ea7ed00017cb109","bdp_trlrn","Sun Mar 12 2023 23:58:04 GMT-0400 (Eastern Daylight Time)","673724","Untrustworthy,Trustworthy","image-keyboard-response","39","66742","0.0-6.0-2.16","","","null","","trustrating_stim/white_00602_940928_fb_edt.bmp","null","","","","","","","","","","",""
"","","","rating","5bb94dea3ea7ed00017cb109","bdp_trlrn","Sun Mar 12 2023 23:58:04 GMT-0400 (Eastern Daylight Time)","673724","Untrustworthy,Trustworthy","image-keyboard-response","40","68316","0.0-6.0-1.17","","","1467","","trustrating_stim/white_mw049.bmp","8","","","","","","","","","","",""
"","","","ratingFB","5bb94dea3ea7ed00017cb109","bdp_trlrn","Sun Mar 12 2023 23:58:04 GMT-0400 (Eastern Daylight Time)","673724","Untrustworthy,Trustworthy","image-keyboard-response","41","68530","0.0-6.0-2.17","","","null","","trustrating_stim/white_mw049.bmp","null","","","","","","","","","","",""
"","","","rating","5bb94dea3ea7ed00017cb109","bdp_trlrn","Sun Mar 12 2023 23:58:04 GMT-0400 (Eastern Daylight Time)","673724","Untrustworthy,Trustworthy","image-keyboard-response","42","69971","0.0-6.0-1.18","","","1334","","trustrating_stim/white_00659_941121_fa_edt.bmp","3","","","","","","","","","","",""
"","","","ratingFB","5bb94dea3ea7ed00017cb109","bdp_trlrn","Sun Mar 12 2023 23:58:04 GMT-0400 (Eastern Daylight Time)","673724","Untrustworthy,Trustworthy","image-keyboard-response","43","70178","0.0-6.0-2.18","","","null","","trustrating_stim/white_00659_941121_fa_edt.bmp","null","","","","","","","","","","",""
"","","","rating","5bb94dea3ea7ed00017cb109","bdp_trlrn","Sun Mar 12 2023 23:58:04 GMT-0400 (Eastern Daylight Time)","673724","Untrustworthy,Trustworthy","image-keyboard-response","44","72015","0.0-6.0-1.19","","","1728","","trustrating_stim/white_00898_960530_fa_edt.bmp","9","","","","","","","","","","",""
"","","","ratingFB","5bb94dea3ea7ed00017cb109","bdp_trlrn","Sun Mar 12 2023 23:58:04 GMT-0400 (Eastern Daylight Time)","673724","Untrustworthy,Trustworthy","image-keyboard-response","45","72229","0.0-6.0-2.19","","","null","","trustrating_stim/white_00898_960530_fa_edt.bmp","null","","","","","","","","","","",""
"","","","rating","5bb94dea3ea7ed00017cb109","bdp_trlrn","Sun Mar 12 2023 23:58:04 GMT-0400 (Eastern Daylight Time)","673724","Untrustworthy,Trustworthy","image-keyboard-response","46","74875","0.0-6.0-1.20","","","2538","","trustrating_stim/white_mw066.bmp","7","","","","","","","","","","",""
"","","","ratingFB","5bb94dea3ea7ed00017cb109","bdp_trlrn","Sun Mar 12 2023 23:58:04 GMT-0400 (Eastern Daylight Time)","673724","Untrustworthy,Trustworthy","image-keyboard-response","47","75081","0.0-6.0-2.20","","","null","","trustrating_stim/white_mw066.bmp","null","","","","","","","","","","",""
"","","","rating","5bb94dea3ea7ed00017cb109","bdp_trlrn","Sun Mar 12 2023 23:58:04 GMT-0400 (Eastern Daylight Time)","673724","Untrustworthy,Trustworthy","image-keyboard-response","48","76926","0.0-6.0-1.21","","","1737","","trustrating_stim/white_mw033.bmp","8","","","","","","","","","","",""
"","","","ratingFB","5bb94dea3ea7ed00017cb109","bdp_trlrn","Sun Mar 12 2023 23:58:04 GMT-0400 (Eastern Daylight Time)","673724","Untrustworthy,Trustworthy","image-keyboard-response","49","77130","0.0-6.0-2.21","","","null","","trustrating_stim/white_mw033.bmp","null","","","","","","","","","","",""
"","","","rating","5bb94dea3ea7ed00017cb109","bdp_trlrn","Sun Mar 12 2023 23:58:04 GMT-0400 (Eastern Daylight Time)","673724","Untrustworthy,Trustworthy","image-keyboard-response","50","79037","0.0-6.0-1.22","","","1799","","trustrating_stim/white_00757_941201_fa_edt.bmp","6","","","","","","","","","","",""
"","","","ratingFB","5bb94dea3ea7ed00017cb109","bdp_trlrn","Sun Mar 12 2023 23:58:04 GMT-0400 (Eastern Daylight Time)","673724","Untrustworthy,Trustworthy","image-keyboard-response","51","79242","0.0-6.0-2.22","","","null","","trustrating_stim/white_00757_941201_fa_edt.bmp","null","","","","","","","","","","",""
"","","","rating","5bb94dea3ea7ed00017cb109","bdp_trlrn","Sun Mar 12 2023 23:58:04 GMT-0400 (Eastern Daylight Time)","673724","Untrustworthy,Trustworthy","image-keyboard-response","52","80975","0.0-6.0-1.23","","","1625","","trustrating_stim/white_mw084.bmp","6","","","","","","","","","","",""
"","","","ratingFB","5bb94dea3ea7ed00017cb109","bdp_trlrn","Sun Mar 12 2023 23:58:04 GMT-0400 (Eastern Daylight Time)","673724","Untrustworthy,Trustworthy","image-keyboard-response","53","81187","0.0-6.0-2.23","","","null","","trustrating_stim/white_mw084.bmp","null","","","","","","","","","","",""
"","","","rating","5bb94dea3ea7ed00017cb109","bdp_trlrn","Sun Mar 12 2023 23:58:04 GMT-0400 (Eastern Daylight Time)","673724","Untrustworthy,Trustworthy","image-keyboard-response","54","82887","0.0-6.0-1.24","","","1590","","trustrating_stim/white_mw053.bmp","7","","","","","","","","","","",""
"","","","ratingFB","5bb94dea3ea7ed00017cb109","bdp_trlrn","Sun Mar 12 2023 23:58:04 GMT-0400 (Eastern Daylight Time)","673724","Untrustworthy,Trustworthy","image-keyboard-response","55","83099","0.0-6.0-2.24","","","null","","trustrating_stim/white_mw053.bmp","null","","","","","","","","","","",""
"","","","rating","5bb94dea3ea7ed00017cb109","bdp_trlrn","Sun Mar 12 2023 23:58:04 GMT-0400 (Eastern Daylight Time)","673724","Untrustworthy,Trustworthy","image-keyboard-response","56","84521","0.0-6.0-1.25","","","1313","","trustrating_stim/white_mw097.bmp","1","","","","","","","","","","",""
"","","","ratingFB","5bb94dea3ea7ed00017cb109","bdp_trlrn","Sun Mar 12 2023 23:58:04 GMT-0400 (Eastern Daylight Time)","673724","Untrustworthy,Trustworthy","image-keyboard-response","57","84732","0.0-6.0-2.25","","","null","","trustrating_stim/white_mw097.bmp","null","","","","","","","","","","",""
"","","","rating","5bb94dea3ea7ed00017cb109","bdp_trlrn","Sun Mar 12 2023 23:58:04 GMT-0400 (Eastern Daylight Time)","673724","Untrustworthy,Trustworthy","image-keyboard-response","58","86079","0.0-6.0-1.26","","","1239","","trustrating_stim/white_mw048.bmp","3","","","","","","","","","","",""
"","","","ratingFB","5bb94dea3ea7ed00017cb109","bdp_trlrn","Sun Mar 12 2023 23:58:04 GMT-0400 (Eastern Daylight Time)","673724","Untrustworthy,Trustworthy","image-keyboard-response","59","86290","0.0-6.0-2.26","","","null","","trustrating_stim/white_mw048.bmp","null","","","","","","","","","","",""
"","","","rating","5bb94dea3ea7ed00017cb109","bdp_trlrn","Sun Mar 12 2023 23:58:04 GMT-0400 (Eastern Daylight Time)","673724","Untrustworthy,Trustworthy","image-keyboard-response","60","89682","0.0-6.0-1.27","","","3284","","trustrating_stim/white_mw089.bmp","1","","","","","","","","","","",""
"","","","ratingFB","5bb94dea3ea7ed00017cb109","bdp_trlrn","Sun Mar 12 2023 23:58:04 GMT-0400 (Eastern Daylight Time)","673724","Untrustworthy,Trustworthy","image-keyboard-response","61","89897","0.0-6.0-2.27","","","null","","trustrating_stim/white_mw089.bmp","null","","","","","","","","","","",""
"","","","rating","5bb94dea3ea7ed00017cb109","bdp_trlrn","Sun Mar 12 2023 23:58:04 GMT-0400 (Eastern Daylight Time)","673724","Untrustworthy,Trustworthy","image-keyboard-response","62","94981","0.0-6.0-1.28","","","4976","","trustrating_stim/white_mw046.bmp","3","","","","","","","","","","",""
"","","","ratingFB","5bb94dea3ea7ed00017cb109","bdp_trlrn","Sun Mar 12 2023 23:58:04 GMT-0400 (Eastern Daylight Time)","673724","Untrustworthy,Trustworthy","image-keyboard-response","63","95186","0.0-6.0-2.28","","","null","","trustrating_stim/white_mw046.bmp","null","","","","","","","","","","",""
"","","","rating","5bb94dea3ea7ed00017cb109","bdp_trlrn","Sun Mar 12 2023 23:58:04 GMT-0400 (Eastern Daylight Time)","673724","Untrustworthy,Trustworthy","image-keyboard-response","64","102831","0.0-6.0-1.29","","","7536","","trustrating_stim/white_mw071.bmp","5","","","","","","","","","","",""
"","","","ratingFB","5bb94dea3ea7ed00017cb109","bdp_trlrn","Sun Mar 12 2023 23:58:04 GMT-0400 (Eastern Daylight Time)","673724","Untrustworthy,Trustworthy","image-keyboard-response","65","103045","0.0-6.0-2.29","","","null","","trustrating_stim/white_mw071.bmp","null","","","","","","","","","","",""
"","","","rating","5bb94dea3ea7ed00017cb109","bdp_trlrn","Sun Mar 12 2023 23:58:04 GMT-0400 (Eastern Daylight Time)","673724","Untrustworthy,Trustworthy","image-keyboard-response","66","105403","0.0-6.0-1.30","","","2250","","trustrating_stim/white_00807_941205_fb_edt.bmp","2","","","","","","","","","","",""
"","","","ratingFB","5bb94dea3ea7ed00017cb109","bdp_trlrn","Sun Mar 12 2023 23:58:04 GMT-0400 (Eastern Daylight Time)","673724","Untrustworthy,Trustworthy","image-keyboard-response","67","105604","0.0-6.0-2.30","","","null","","trustrating_stim/white_00807_941205_fb_edt.bmp","null","","","","","","","","","","",""
"","","","rating","5bb94dea3ea7ed00017cb109","bdp_trlrn","Sun Mar 12 2023 23:58:04 GMT-0400 (Eastern Daylight Time)","673724","Untrustworthy,Trustworthy","image-keyboard-response","68","107613","0.0-6.0-1.31","","","1900","","trustrating_stim/white_mw071.bmp","3","","","","","","","","","","",""
"","","","ratingFB","5bb94dea3ea7ed00017cb109","bdp_trlrn","Sun Mar 12 2023 23:58:04 GMT-0400 (Eastern Daylight Time)","673724","Untrustworthy,Trustworthy","image-keyboard-response","69","107824","0.0-6.0-2.31","","","null","","trustrating_stim/white_mw071.bmp","null","","","","","","","","","","",""
"","","","rating","5bb94dea3ea7ed00017cb109","bdp_trlrn","Sun Mar 12 2023 23:58:04 GMT-0400 (Eastern Daylight Time)","673724","Untrustworthy,Trustworthy","image-keyboard-response","70","110190","0.0-6.0-1.32","","","2258","","trustrating_stim/white_00785_941205_fb_edt.bmp","4","","","","","","","","","","",""
"","","","ratingFB","5bb94dea3ea7ed00017cb109","bdp_trlrn","Sun Mar 12 2023 23:58:04 GMT-0400 (Eastern Daylight Time)","673724","Untrustworthy,Trustworthy","image-keyboard-response","71","110399","0.0-6.0-2.32","","","null","","trustrating_stim/white_00785_941205_fb_edt.bmp","null","","","","","","","","","","",""
"","","","rating","5bb94dea3ea7ed00017cb109","bdp_trlrn","Sun Mar 12 2023 23:58:04 GMT-0400 (Eastern Daylight Time)","673724","Untrustworthy,Trustworthy","image-keyboard-response","72","112075","0.0-6.0-1.33","","","1568","","trustrating_stim/white_00659_941121_fa_edt.bmp","3","","","","","","","","","","",""
"","","","ratingFB","5bb94dea3ea7ed00017cb109","bdp_trlrn","Sun Mar 12 2023 23:58:04 GMT-0400 (Eastern Daylight Time)","673724","Untrustworthy,Trustworthy","image-keyboard-response","73","112279","0.0-6.0-2.33","","","null","","trustrating_stim/white_00659_941121_fa_edt.bmp","null","","","","","","","","","","",""
"","","","rating","5bb94dea3ea7ed00017cb109","bdp_trlrn","Sun Mar 12 2023 23:58:04 GMT-0400 (Eastern Daylight Time)","673724","Untrustworthy,Trustworthy","image-keyboard-response","74","113395","0.0-6.0-1.34","","","1008","","trustrating_stim/white_00120_931230_fa_edt.bmp","6","","","","","","","","","","",""
"","","","ratingFB","5bb94dea3ea7ed00017cb109","bdp_trlrn","Sun Mar 12 2023 23:58:04 GMT-0400 (Eastern Daylight Time)","673724","Untrustworthy,Trustworthy","image-keyboard-response","75","113604","0.0-6.0-2.34","","","null","","trustrating_stim/white_00120_931230_fa_edt.bmp","null","","","","","","","","","","",""
"","","","rating","5bb94dea3ea7ed00017cb109","bdp_trlrn","Sun Mar 12 2023 23:58:04 GMT-0400 (Eastern Daylight Time)","673724","Untrustworthy,Trustworthy","image-keyboard-response","76","115629","0.0-6.0-1.35","","","1917","","trustrating_stim/white_00340_940422_fa_edt.bmp","5","","","","","","","","","","",""
"","","","ratingFB","5bb94dea3ea7ed00017cb109","bdp_trlrn","Sun Mar 12 2023 23:58:04 GMT-0400 (Eastern Daylight Time)","673724","Untrustworthy,Trustworthy","image-keyboard-response","77","115847","0.0-6.0-2.35","","","null","","trustrating_stim/white_00340_940422_fa_edt.bmp","null","","","","","","","","","","",""
"","","","rating","5bb94dea3ea7ed00017cb109","bdp_trlrn","Sun Mar 12 2023 23:58:04 GMT-0400 (Eastern Daylight Time)","673724","Untrustworthy,Trustworthy","image-keyboard-response","78","118513","0.0-6.0-1.36","","","2550","","trustrating_stim/white_mw066.bmp","6","","","","","","","","","","",""
"","","","ratingFB","5bb94dea3ea7ed00017cb109","bdp_trlrn","Sun Mar 12 2023 23:58:04 GMT-0400 (Eastern Daylight Time)","673724","Untrustworthy,Trustworthy","image-keyboard-response","79","118714","0.0-6.0-2.36","","","null","","trustrating_stim/white_mw066.bmp","null","","","","","","","","","","",""
"","","","rating","5bb94dea3ea7ed00017cb109","bdp_trlrn","Sun Mar 12 2023 23:58:04 GMT-0400 (Eastern Daylight Time)","673724","Untrustworthy,Trustworthy","image-keyboard-response","80","121092","0.0-6.0-1.37","","","2270","","trustrating_stim/white_00761_941201_fb_edt.bmp","5","","","","","","","","","","",""
"","","","ratingFB","5bb94dea3ea7ed00017cb109","bdp_trlrn","Sun Mar 12 2023 23:58:04 GMT-0400 (Eastern Daylight Time)","673724","Untrustworthy,Trustworthy","image-keyboard-response","81","121298","0.0-6.0-2.37","","","null","","trustrating_stim/white_00761_941201_fb_edt.bmp","null","","","","","","","","","","",""
"","","","rating","5bb94dea3ea7ed00017cb109","bdp_trlrn","Sun Mar 12 2023 23:58:04 GMT-0400 (Eastern Daylight Time)","673724","Untrustworthy,Trustworthy","image-keyboard-response","82","123187","0.0-6.0-1.38","","","1782","","trustrating_stim/white_mw033.bmp","7","","","","","","","","","","",""
"","","","ratingFB","5bb94dea3ea7ed00017cb109","bdp_trlrn","Sun Mar 12 2023 23:58:04 GMT-0400 (Eastern Daylight Time)","673724","Untrustworthy,Trustworthy","image-keyboard-response","83","123390","0.0-6.0-2.38","","","null","","trustrating_stim/white_mw033.bmp","null","","","","","","","","","","",""
"","","","rating","5bb94dea3ea7ed00017cb109","bdp_trlrn","Sun Mar 12 2023 23:58:04 GMT-0400 (Eastern Daylight Time)","673724","Untrustworthy,Trustworthy","image-keyboard-response","84","124696","0.0-6.0-1.39","","","1197","","trustrating_stim/white_00109_931230_fa_edt.bmp","9","","","","","","","","","","",""
"","","","ratingFB","5bb94dea3ea7ed00017cb109","bdp_trlrn","Sun Mar 12 2023 23:58:04 GMT-0400 (Eastern Daylight Time)","673724","Untrustworthy,Trustworthy","image-keyboard-response","85","124902","0.0-6.0-2.39","","","null","","trustrating_stim/white_00109_931230_fa_edt.bmp","null","","","","","","","","","","",""
"","","","rating","5bb94dea3ea7ed00017cb109","bdp_trlrn","Sun Mar 12 2023 23:58:04 GMT-0400 (Eastern Daylight Time)","673724","Untrustworthy,Trustworthy","image-keyboard-response","86","126571","0.0-6.0-1.40","","","1560","","trustrating_stim/white_00898_960530_fa_edt.bmp","8","","","","","","","","","","",""
"","","","ratingFB","5bb94dea3ea7ed00017cb109","bdp_trlrn","Sun Mar 12 2023 23:58:04 GMT-0400 (Eastern Daylight Time)","673724","Untrustworthy,Trustworthy","image-keyboard-response","87","126781","0.0-6.0-2.40","","","null","","trustrating_stim/white_00898_960530_fa_edt.bmp","null","","","","","","","","","","",""
"","","","rating","5bb94dea3ea7ed00017cb109","bdp_trlrn","Sun Mar 12 2023 23:58:04 GMT-0400 (Eastern Daylight Time)","673724","Untrustworthy,Trustworthy","image-keyboard-response","88","128965","0.0-6.0-1.41","","","2076","","trustrating_stim/white_mw060.bmp","6","","","","","","","","","","",""
"","","","ratingFB","5bb94dea3ea7ed00017cb109","bdp_trlrn","Sun Mar 12 2023 23:58:04 GMT-0400 (Eastern Daylight Time)","673724","Untrustworthy,Trustworthy","image-keyboard-response","89","129170","0.0-6.0-2.41","","","null","","trustrating_stim/white_mw060.bmp","null","","","","","","","","","","",""
"","","","rating","5bb94dea3ea7ed00017cb109","bdp_trlrn","Sun Mar 12 2023 23:58:04 GMT-0400 (Eastern Daylight Time)","673724","Untrustworthy,Trustworthy","image-keyboard-response","90","131275","0.0-6.0-1.42","","","1997","","trustrating_stim/white_00299_940422_fa_edt.bmp","5","","","","","","","","","","",""
"","","","ratingFB","5bb94dea3ea7ed00017cb109","bdp_trlrn","Sun Mar 12 2023 23:58:04 GMT-0400 (Eastern Daylight Time)","673724","Untrustworthy,Trustworthy","image-keyboard-response","91","131481","0.0-6.0-2.42","","","null","","trustrating_stim/white_00299_940422_fa_edt.bmp","null","","","","","","","","","","",""
"","","","rating","5bb94dea3ea7ed00017cb109","bdp_trlrn","Sun Mar 12 2023 23:58:04 GMT-0400 (Eastern Daylight Time)","673724","Untrustworthy,Trustworthy","image-keyboard-response","92","132683","0.0-6.0-1.43","","","1095","","trustrating_stim/white_mw053.bmp","6","","","","","","","","","","",""
"","","","ratingFB","5bb94dea3ea7ed00017cb109","bdp_trlrn","Sun Mar 12 2023 23:58:04 GMT-0400 (Eastern Daylight Time)","673724","Untrustworthy,Trustworthy","image-keyboard-response","93","132885","0.0-6.0-2.43","","","null","","trustrating_stim/white_mw053.bmp","null","","","","","","","","","","",""
"","","","rating","5bb94dea3ea7ed00017cb109","bdp_trlrn","Sun Mar 12 2023 23:58:04 GMT-0400 (Eastern Daylight Time)","673724","Untrustworthy,Trustworthy","image-keyboard-response","94","134609","0.0-6.0-1.44","","","1616","","trustrating_stim/white_mw084.bmp","5","","","","","","","","","","",""
"","","","ratingFB","5bb94dea3ea7ed00017cb109","bdp_trlrn","Sun Mar 12 2023 23:58:04 GMT-0400 (Eastern Daylight Time)","673724","Untrustworthy,Trustworthy","image-keyboard-response","95","134811","0.0-6.0-2.44","","","null","","trustrating_stim/white_mw084.bmp","null","","","","","","","","","","",""
"","","","rating","5bb94dea3ea7ed00017cb109","bdp_trlrn","Sun Mar 12 2023 23:58:04 GMT-0400 (Eastern Daylight Time)","673724","Untrustworthy,Trustworthy","image-keyboard-response","96","136455","0.0-6.0-1.45","","","1535","","trustrating_stim/white_mw099.bmp","4","","","","","","","","","","",""
"","","","ratingFB","5bb94dea3ea7ed00017cb109","bdp_trlrn","Sun Mar 12 2023 23:58:04 GMT-0400 (Eastern Daylight Time)","673724","Untrustworthy,Trustworthy","image-keyboard-response","97","136660","0.0-6.0-2.45","","","null","","trustrating_stim/white_mw099.bmp","null","","","","","","","","","","",""
"","","","rating","5bb94dea3ea7ed00017cb109","bdp_trlrn","Sun Mar 12 2023 23:58:04 GMT-0400 (Eastern Daylight Time)","673724","Untrustworthy,Trustworthy","image-keyboard-response","98","137929","0.0-6.0-1.46","","","1161","","trustrating_stim/white_00757_941201_fa_edt.bmp","3","","","","","","","","","","",""
"","","","ratingFB","5bb94dea3ea7ed00017cb109","bdp_trlrn","Sun Mar 12 2023 23:58:04 GMT-0400 (Eastern Daylight Time)","673724","Untrustworthy,Trustworthy","image-keyboard-response","99","138141","0.0-6.0-2.46","","","null","","trustrating_stim/white_00757_941201_fa_edt.bmp","null","","","","","","","","","","",""
"","","","rating","5bb94dea3ea7ed00017cb109","bdp_trlrn","Sun Mar 12 2023 23:58:04 GMT-0400 (Eastern Daylight Time)","673724","Untrustworthy,Trustworthy","image-keyboard-response","100","140498","0.0-6.0-1.47","","","2248","","trustrating_stim/white_mw089.bmp","3","","","","","","","","","","",""
"","","","ratingFB","5bb94dea3ea7ed00017cb109","bdp_trlrn","Sun Mar 12 2023 23:58:04 GMT-0400 (Eastern Daylight Time)","673724","Untrustworthy,Trustworthy","image-keyboard-response","101","140713","0.0-6.0-2.47","","","null","","trustrating_stim/white_mw089.bmp","null","","","","","","","","","","",""
"","","","rating","5bb94dea3ea7ed00017cb109","bdp_trlrn","Sun Mar 12 2023 23:58:04 GMT-0400 (Eastern Daylight Time)","673724","Untrustworthy,Trustworthy","image-keyboard-response","102","142657","0.0-6.0-1.48","","","1836","","trustrating_stim/white_00223_940128_fb_edt.bmp","4","","","","","","","","","","",""
"","","","ratingFB","5bb94dea3ea7ed00017cb109","bdp_trlrn","Sun Mar 12 2023 23:58:04 GMT-0400 (Eastern Daylight Time)","673724","Untrustworthy,Trustworthy","image-keyboard-response","103","142869","0.0-6.0-2.48","","","null","","trustrating_stim/white_00223_940128_fb_edt.bmp","null","","","","","","","","","","",""
"","","","rating","5bb94dea3ea7ed00017cb109","bdp_trlrn","Sun Mar 12 2023 23:58:04 GMT-0400 (Eastern Daylight Time)","673724","Untrustworthy,Trustworthy","image-keyboard-response","104","145099","0.0-6.0-1.49","","","2122","","trustrating_stim/white_00129_931230_fb_edt.bmp","3","","","","","","","","","","",""
"","","","ratingFB","5bb94dea3ea7ed00017cb109","bdp_trlrn","Sun Mar 12 2023 23:58:04 GMT-0400 (Eastern Daylight Time)","673724","Untrustworthy,Trustworthy","image-keyboard-response","105","145302","0.0-6.0-2.49","","","null","","trustrating_stim/white_00129_931230_fb_edt.bmp","null","","","","","","","","","","",""
"","","","rating","5bb94dea3ea7ed00017cb109","bdp_trlrn","Sun Mar 12 2023 23:58:04 GMT-0400 (Eastern Daylight Time)","673724","Untrustworthy,Trustworthy","image-keyboard-response","106","147032","0.0-6.0-1.50","","","1622","","trustrating_stim/white_00519_940519_fb_edt.bmp","6","","","","","","","","","","",""
"","","","ratingFB","5bb94dea3ea7ed00017cb109","bdp_trlrn","Sun Mar 12 2023 23:58:04 GMT-0400 (Eastern Daylight Time)","673724","Untrustworthy,Trustworthy","image-keyboard-response","107","147243","0.0-6.0-2.50","","","null","","trustrating_stim/white_00519_940519_fb_edt.bmp","null","","","","","","","","","","",""
"","","","rating","5bb94dea3ea7ed00017cb109","bdp_trlrn","Sun Mar 12 2023 23:58:04 GMT-0400 (Eastern Daylight Time)","673724","Untrustworthy,Trustworthy","image-keyboard-response","108","149245","0.0-6.0-1.51","","","1894","","trustrating_stim/white_00577_940928_fa_edt.bmp","4","","","","","","","","","","",""
"","","","ratingFB","5bb94dea3ea7ed00017cb109","bdp_trlrn","Sun Mar 12 2023 23:58:04 GMT-0400 (Eastern Daylight Time)","673724","Untrustworthy,Trustworthy","image-keyboard-response","109","149459","0.0-6.0-2.51","","","null","","trustrating_stim/white_00577_940928_fa_edt.bmp","null","","","","","","","","","","",""
"","","","rating","5bb94dea3ea7ed00017cb109","bdp_trlrn","Sun Mar 12 2023 23:58:04 GMT-0400 (Eastern Daylight Time)","673724","Untrustworthy,Trustworthy","image-keyboard-response","110","150995","0.0-6.0-1.52","","","1429","","trustrating_stim/white_mw048.bmp","2","","","","","","","","","","",""
"","","","ratingFB","5bb94dea3ea7ed00017cb109","bdp_trlrn","Sun Mar 12 2023 23:58:04 GMT-0400 (Eastern Daylight Time)","673724","Untrustworthy,Trustworthy","image-keyboard-response","111","151196","0.0-6.0-2.52","","","null","","trustrating_stim/white_mw048.bmp","null","","","","","","","","","","",""
"","","","rating","5bb94dea3ea7ed00017cb109","bdp_trlrn","Sun Mar 12 2023 23:58:04 GMT-0400 (Eastern Daylight Time)","673724","Untrustworthy,Trustworthy","image-keyboard-response","112","154521","0.0-6.0-1.53","","","3216","","trustrating_stim/white_mw063.bmp","4","","","","","","","","","","",""
"","","","ratingFB","5bb94dea3ea7ed00017cb109","bdp_trlrn","Sun Mar 12 2023 23:58:04 GMT-0400 (Eastern Daylight Time)","673724","Untrustworthy,Trustworthy","image-keyboard-response","113","154725","0.0-6.0-2.53","","","null","","trustrating_stim/white_mw063.bmp","null","","","","","","","","","","",""
"","","","rating","5bb94dea3ea7ed00017cb109","bdp_trlrn","Sun Mar 12 2023 23:58:04 GMT-0400 (Eastern Daylight Time)","673724","Untrustworthy,Trustworthy","image-keyboard-response","114","156296","0.0-6.0-1.54","","","1463","","trustrating_stim/white_mw049.bmp","7","","","","","","","","","","",""
"","","","ratingFB","5bb94dea3ea7ed00017cb109","bdp_trlrn","Sun Mar 12 2023 23:58:04 GMT-0400 (Eastern Daylight Time)","673724","Untrustworthy,Trustworthy","image-keyboard-response","115","156511","0.0-6.0-2.54","","","null","","trustrating_stim/white_mw049.bmp","null","","","","","","","","","","",""
"","","","rating","5bb94dea3ea7ed00017cb109","bdp_trlrn","Sun Mar 12 2023 23:58:04 GMT-0400 (Eastern Daylight Time)","673724","Untrustworthy,Trustworthy","image-keyboard-response","116","159712","0.0-6.0-1.55","","","3093","","trustrating_stim/white_mw097.bmp","2","","","","","","","","","","",""
"","","","ratingFB","5bb94dea3ea7ed00017cb109","bdp_trlrn","Sun Mar 12 2023 23:58:04 GMT-0400 (Eastern Daylight Time)","673724","Untrustworthy,Trustworthy","image-keyboard-response","117","159916","0.0-6.0-2.55","","","null","","trustrating_stim/white_mw097.bmp","null","","","","","","","","","","",""
"","","","rating","5bb94dea3ea7ed00017cb109","bdp_trlrn","Sun Mar 12 2023 23:58:04 GMT-0400 (Eastern Daylight Time)","673724","Untrustworthy,Trustworthy","image-keyboard-response","118","161618","0.0-6.0-1.56","","","1594","","trustrating_stim/white_mw046.bmp","1","","","","","","","","","","",""
"","","","ratingFB","5bb94dea3ea7ed00017cb109","bdp_trlrn","Sun Mar 12 2023 23:58:04 GMT-0400 (Eastern Daylight Time)","673724","Untrustworthy,Trustworthy","image-keyboard-response","119","161821","0.0-6.0-2.56","","","null","","trustrating_stim/white_mw046.bmp","null","","","","","","","","","","",""
"","","","rating","5bb94dea3ea7ed00017cb109","bdp_trlrn","Sun Mar 12 2023 23:58:04 GMT-0400 (Eastern Daylight Time)","673724","Untrustworthy,Trustworthy","image-keyboard-response","120","163538","0.0-6.0-1.57","","","1606","","trustrating_stim/white_00602_940928_fb_edt.bmp","7","","","","","","","","","","",""
"","","","ratingFB","5bb94dea3ea7ed00017cb109","bdp_trlrn","Sun Mar 12 2023 23:58:04 GMT-0400 (Eastern Daylight Time)","673724","Untrustworthy,Trustworthy","image-keyboard-response","121","163747","0.0-6.0-2.57","","","null","","trustrating_stim/white_00602_940928_fb_edt.bmp","null","","","","","","","","","","",""
"","","","rating","5bb94dea3ea7ed00017cb109","bdp_trlrn","Sun Mar 12 2023 23:58:04 GMT-0400 (Eastern Daylight Time)","673724","Untrustworthy,Trustworthy","image-keyboard-response","122","165853","0.0-6.0-1.58","","","1999","","trustrating_stim/white_mw056.bmp","5","","","","","","","","","","",""
"","","","ratingFB","5bb94dea3ea7ed00017cb109","bdp_trlrn","Sun Mar 12 2023 23:58:04 GMT-0400 (Eastern Daylight Time)","673724","Untrustworthy,Trustworthy","image-keyboard-response","123","166055","0.0-6.0-2.58","","","null","","trustrating_stim/white_mw056.bmp","null","","","","","","","","","","",""
"","","","rating","5bb94dea3ea7ed00017cb109","bdp_trlrn","Sun Mar 12 2023 23:58:04 GMT-0400 (Eastern Daylight Time)","673724","Untrustworthy,Trustworthy","image-keyboard-response","124","169413","0.0-6.0-1.59","","","3250","","trustrating_stim/white_mw035.bmp","6","","","","","","","","","","",""
"","","","ratingFB","5bb94dea3ea7ed00017cb109","bdp_trlrn","Sun Mar 12 2023 23:58:04 GMT-0400 (Eastern Daylight Time)","673724","Untrustworthy,Trustworthy","image-keyboard-response","125","169626","0.0-6.0-2.59","","","null","","trustrating_stim/white_mw035.bmp","null","","","","","","","","","","",""
"","","","","5bb94dea3ea7ed00017cb109","bdp_trlrn","Sun Mar 12 2023 23:58:04 GMT-0400 (Eastern Daylight Time)","673724","Untrustworthy,Trustworthy","instructions","126","171227","0.0-7.0","","[{""page_index"":0,""viewing_time"":1494}]","1494","","","","","","","","","","","","","",""
"","","","","5bb94dea3ea7ed00017cb109","bdp_trlrn","Sun Mar 12 2023 23:58:04 GMT-0400 (Eastern Daylight Time)","673724","Untrustworthy,Trustworthy","instructions","127","261266","0.0-8.0","","[{""page_index"":0,""viewing_time"":19829},{""page_index"":1,""viewing_time"":8330},{""page_index"":2,""viewing_time"":9070},{""page_index"":3,""viewing_time"":7085},{""page_index"":4,""viewing_time"":11534},{""page_index"":5,""viewing_time"":8630},{""page_index"":6,""viewing_time"":23334},{""page_index"":7,""viewing_time"":2116}]","89928","","","","","","","","","","","","","",""
"","","","","5bb94dea3ea7ed00017cb109","bdp_trlrn","Sun Mar 12 2023 23:58:04 GMT-0400 (Eastern Daylight Time)","673724","Untrustworthy,Trustworthy","html-keyboard-response","128","264870","0.0-9.0","","","3602","","<div class='header' style='text-align:left; position: absolute; top: 5%; left: 5%;'><small>Task 3 of 5</small></div><div class='instruxDiv'><p><strong>1) What is the minimum number of points you can choose to send to your partner?</strong></p><p>a) 0</p><p>b) 1</p><p>c) 5</p>","B","","","","","","","","","","",""
"","","","","5bb94dea3ea7ed00017cb109","bdp_trlrn","Sun Mar 12 2023 23:58:04 GMT-0400 (Eastern Daylight Time)","673724","Untrustworthy,Trustworthy","html-keyboard-response","129","266538","0.0-10.0","","","1556","","<div class='header' style='text-align:left; position: absolute; top: 5%; left: 5%;'><small>Task 3 of 5</small></div><div class='instruxDiv'><p><strong>1) What is the minimum number of points you can choose to send to your partner?</strong></p><p>a) 0</p><p style='color:#00FF00'>b) 1</p><p>c) 5</p><h3 style='color:#00FF00'>Correct!</h3><h3 class='center-content'>The correct response is b).</h3><h3 class='center-content'>The minimum number of points you can choose to send to your partner is 1 point.</h3><p><em>Press SPACEBAR to continue</em></p></div>"," ","","","","","","","","","","",""
"","","","","5bb94dea3ea7ed00017cb109","bdp_trlrn","Sun Mar 12 2023 23:58:04 GMT-0400 (Eastern Daylight Time)","673724","Untrustworthy,Trustworthy","html-keyboard-response","130","269217","0.0-11.0","","","2569","","<div class='header' style='text-align:left; position: absolute; top: 5%; left: 5%;'><small>Task 3 of 5</small></div><div class='instruxDiv'><p><strong>2) What is the maximum number of points you can choose to send to your partner?</strong></p><p>a) 8</p><p>b) 5</p><p>c) 3</p>","B","","","","","","","","","","",""
"","","","","5bb94dea3ea7ed00017cb109","bdp_trlrn","Sun Mar 12 2023 23:58:04 GMT-0400 (Eastern Daylight Time)","673724","Untrustworthy,Trustworthy","html-keyboard-response","131","270524","0.0-12.0","","","1194","","<div class='header' style='text-align:left; position: absolute; top: 5%; left: 5%;'><small>Task 3 of 5</small></div><div class='instruxDiv'><p><strong>2) What is the maximum number of points you can choose to send to your partner?</strong></p><p>a) 8</p><p style='color:#00FF00'>b) 5</p><p>c) 3</p><h3 style='color:#00FF00'>Correct!</h3><h3 class='center-content'>The correct response is b).</h3><h3 class='center-content'>The maximum number of points you can choose to send to your partner is 5 points.</h3><p><em>Press SPACEBAR to continue</em></p></div>"," ","","","","","","","","","","",""
"","","","","5bb94dea3ea7ed00017cb109","bdp_trlrn","Sun Mar 12 2023 23:58:04 GMT-0400 (Eastern Daylight Time)","673724","Untrustworthy,Trustworthy","html-keyboard-response","132","273395","0.0-13.0","","","2755","","<div class='header' style='text-align:left; position: absolute; top: 5%; left: 5%;'><small>Task 3 of 5</small></div><div class='instruxDiv'><p><strong>3) What happens to the amount of points you send to your partner?</strong></p><p>a) Nothing</p><p>b) It doubles</p><p>c) It quadruples</p>","C","","","","","","","","","","",""
"","","","","5bb94dea3ea7ed00017cb109","bdp_trlrn","Sun Mar 12 2023 23:58:04 GMT-0400 (Eastern Daylight Time)","673724","Untrustworthy,Trustworthy","html-keyboard-response","133","274481","0.0-14.0","","","977","","<div class='header' style='text-align:left; position: absolute; top: 5%; left: 5%;'><small>Task 3 of 5</small></div><div class='instruxDiv'><p><strong>3) What happens to the amount of points you send to your partner?</strong></p><p>a) Nothing</p><p>b) It doubles</p><p style='color:#00FF00'>c) It quadruples</p><h3 style='color:#00FF00'>Correct!</h3><h3 class='center-content'>The correct response is c).</h3><h3 class='center-content'>The amount of points you send to your partner quadruples.</h3><p><em>Press SPACEBAR to continue</em></p></div>"," ","","","","","","","","","","",""
"","","","","5bb94dea3ea7ed00017cb109","bdp_trlrn","Sun Mar 12 2023 23:58:04 GMT-0400 (Eastern Daylight Time)","673724","Untrustworthy,Trustworthy","html-keyboard-response","134","285137","0.0-15.0","","","10553","","<div class='header' style='text-align:left; position: absolute; top: 5%; left: 5%;'><small>Task 3 of 5</small></div><div class='instruxDiv'><p><strong>4) If you decided to share 4 out of 5 points with your partner, and they decided to share half of the amount they received with you, how many points would you receive back from them on this round?</strong></p><p>a) 16</p><p>b) 0</p><p>c) 8</p>","C","","","","","","","","","","",""
"","","","","5bb94dea3ea7ed00017cb109","bdp_trlrn","Sun Mar 12 2023 23:58:04 GMT-0400 (Eastern Daylight Time)","673724","Untrustworthy,Trustworthy","html-keyboard-response","135","288016","0.0-16.0","","","2769","","<div class='header' style='text-align:left; position: absolute; top: 5%; left: 5%;'><small>Task 3 of 5</small></div><div class='instruxDiv'><p><strong>4) If you decided to share 4 out of 5 points with your partner, and they decided to share half of the amount they received with you, how many points would you receive back from them on this round?</strong></p><p>a) 16</p><p>b) 0</p><p style='color:#00FF00'>c) 8</p><h3 style='color:#00FF00'>Correct!</h3><h3 class='center-content'>The correct response is c).</h3><h3 class='center-content'>If you shared 4 out of 5 points with your partner and they decided to share half of the amount they received with you, you would receive 8 points back (i.e. (4 x 4)/2 = 8).</h3><p><em>Press SPACEBAR to continue</em></p></div>"," ","","","","","","","","","","",""
"","","","","5bb94dea3ea7ed00017cb109","bdp_trlrn","Sun Mar 12 2023 23:58:04 GMT-0400 (Eastern Daylight Time)","673724","Untrustworthy,Trustworthy","html-keyboard-response","136","293137","0.0-17.0","","","null","","<div class='header' style='text-align:left; position: absolute; top: 5%; left: 5%;'><small>Task 3 of 5</small></div><div class='instruxDiv'><p>Thank you for completing the quiz<p>These are the actual partners you will be interacting with in the next block:<p><div class='tc' align='center'><img class='introPic' src='trustrating_stim/white_mw089.bmp'><br><strong>Michael</strong></div><div class='bl' align='center'><img class='introPic' src='trustrating_stim/white_mw063.bmp'><br><strong>Tyler</strong></div><div class='br' align='center'><img class='introPic' src='trustrating_stim/white_00602_940928_fb_edt.bmp'><br><strong>Richard</strong></div></div><p>Across <strong>66 rounds</strong> you will interact with each partner <strong>22 times</strong> (in random order).<p style='align:center; color:white'><font <em>Press SPACEBAR to continue</em></p>","null","","","","","","","","","","",""
"","","","","5bb94dea3ea7ed00017cb109","bdp_trlrn","Sun Mar 12 2023 23:58:04 GMT-0400 (Eastern Daylight Time)","673724","Untrustworthy,Trustworthy","instructions","137","298584","0.0-18.0","","[{""page_index"":0,""viewing_time"":2280},{""page_index"":1,""viewing_time"":3166}]","5446","","","","","","","","","","","","","",""
"","","","decision","5bb94dea3ea7ed00017cb109","bdp_trlrn","Sun Mar 12 2023 23:58:04 GMT-0400 (Eastern Daylight Time)","673724","Untrustworthy,Trustworthy","html-keyboard-response","138","301819","0.0-19.0-1.0","","","3132","","<div class='trialDiv'><img src='trustrating_stim/white_00602_940928_fb_edt.bmp'><br><font class='baseline'><strong>Richard</strong><p>Choose number of points to send.</font><div class='respPicDiv'><img src='img/responseButtonOffersNo0L.png' class='respPic'></div></div>","3","1","Richard","9","Shared","0.65,0.2","8","0.65","trustrating_stim/white_00602_940928_fb_edt.bmp","7.5","5","1"
"","","","decisionFB","5bb94dea3ea7ed00017cb109","bdp_trlrn","Sun Mar 12 2023 23:58:04 GMT-0400 (Eastern Daylight Time)","673724","Untrustworthy,Trustworthy","html-keyboard-response","139","302077","0.0-19.0-2.0","","","null","","<div class='trialDiv'><img src='trustrating_stim/white_00602_940928_fb_edt.bmp'><br><font class='baseline'><strong>Richard</strong><p>Choose number of points to send.</font><div class='respPicDiv'><img src='img/responseButtonOffersNo0L3.png' class='respPic'></div></div>","null","1","Richard","9","Shared","0.65,0.2","8","0.65","trustrating_stim/white_00602_940928_fb_edt.bmp","7.5","2","1"
"","","","feedback","5bb94dea3ea7ed00017cb109","bdp_trlrn","Sun Mar 12 2023 23:58:04 GMT-0400 (Eastern Daylight Time)","673724","Untrustworthy,Trustworthy","html-keyboard-response","140","303080","0.0-19.0-3.0","","","null","","<div class='trialDiv'><img src='trustrating_stim/white_00602_940928_fb_edt.bmp'><br><font class='baseline'><strong>Richard</strong><p>Received: <strong>12</strong></font> &nbsp; &nbsp; &nbsp; &nbsp; &nbsp; &nbsp;<font class='posOutcome'>Shared back: <strong>6</strong></font></font><div class='respPicDiv'><img src='img/responseButtonOffersNo0_wht.png' class='respPic'></div></div>","null","1","Richard","9","Shared","0.65,0.2","8","0.65","trustrating_stim/white_00602_940928_fb_edt.bmp","7.5","8","1"
"","","","decision","5bb94dea3ea7ed00017cb109","bdp_trlrn","Sun Mar 12 2023 23:58:04 GMT-0400 (Eastern Daylight Time)","673724","Untrustworthy,Trustworthy","html-keyboard-response","141","304991","0.0-19.0-1.1","","","1910","","<div class='trialDiv'><img src='trustrating_stim/white_mw089.bmp'><br><font class='baseline'><strong>Michael</strong><p>Choose number of points to send.</font><div class='respPicDiv'><img src='img/responseButtonOffersNo0L.png' class='respPic'></div></div>","2","1","Michael","1","Kept","0.35,0.8","13","0.35","trustrating_stim/white_mw089.bmp","2","13","2"
"","","","decisionFB","5bb94dea3ea7ed00017cb109","bdp_trlrn","Sun Mar 12 2023 23:58:04 GMT-0400 (Eastern Daylight Time)","673724","Untrustworthy,Trustworthy","html-keyboard-response","142","305254","0.0-19.0-2.1","","","null","","<div class='trialDiv'><img src='trustrating_stim/white_mw089.bmp'><br><font class='baseline'><strong>Michael</strong><p>Choose number of points to send.</font><div class='respPicDiv'><img src='img/responseButtonOffersNo0L2.png' class='respPic'></div></div>","null","1","Michael","1","Kept","0.35,0.8","13","0.35","trustrating_stim/white_mw089.bmp","2","11","2"
"","","","feedback","5bb94dea3ea7ed00017cb109","bdp_trlrn","Sun Mar 12 2023 23:58:04 GMT-0400 (Eastern Daylight Time)","673724","Untrustworthy,Trustworthy","html-keyboard-response","143","306258","0.0-19.0-3.1","","","null","","<div class='trialDiv'><img src='trustrating_stim/white_mw089.bmp'><br><font class='baseline'><strong>Michael</strong><p>Received: <strong>8</strong></font> &nbsp; &nbsp; &nbsp; &nbsp; &nbsp; &nbsp;<font class='negOutcome'>Shared back: <strong>0</strong></font></font><div class='respPicDiv'><img src='img/responseButtonOffersNo0_wht.png' class='respPic'></div></div>","null","1","Michael","1","Kept","0.35,0.8","13","0.35","trustrating_stim/white_mw089.bmp","2","11","2"
"","","","decision","5bb94dea3ea7ed00017cb109","bdp_trlrn","Sun Mar 12 2023 23:58:04 GMT-0400 (Eastern Daylight Time)","673724","Untrustworthy,Trustworthy","html-keyboard-response","144","308813","0.0-19.0-1.2","","","2555","","<div class='trialDiv'><img src='trustrating_stim/white_mw063.bmp'><br><font class='baseline'><strong>Tyler</strong><p>Choose number of points to send.</font><div class='respPicDiv'><img src='img/responseButtonOffersNo0L.png' class='respPic'></div></div>","2","1","Tyler","4","Kept","0.65,0.35","9","0.65","trustrating_stim/white_mw063.bmp","5","16","3"
"","","","decisionFB","5bb94dea3ea7ed00017cb109","bdp_trlrn","Sun Mar 12 2023 23:58:04 GMT-0400 (Eastern Daylight Time)","673724","Untrustworthy,Trustworthy","html-keyboard-response","145","309064","0.0-19.0-2.2","","","null","","<div class='trialDiv'><img src='trustrating_stim/white_mw063.bmp'><br><font class='baseline'><strong>Tyler</strong><p>Choose number of points to send.</font><div class='respPicDiv'><img src='img/responseButtonOffersNo0L2.png' class='respPic'></div></div>","null","1","Tyler","4","Kept","0.65,0.35","9","0.65","trustrating_stim/white_mw063.bmp","5","14","3"
"","","","feedback","5bb94dea3ea7ed00017cb109","bdp_trlrn","Sun Mar 12 2023 23:58:04 GMT-0400 (Eastern Daylight Time)","673724","Untrustworthy,Trustworthy","html-keyboard-response","146","310066","0.0-19.0-3.2","","","null","","<div class='trialDiv'><img src='trustrating_stim/white_mw063.bmp'><br><font class='baseline'><strong>Tyler</strong><p>Received: <strong>8</strong></font> &nbsp; &nbsp; &nbsp; &nbsp; &nbsp; &nbsp;<font class='negOutcome'>Shared back: <strong>0</strong></font></font><div class='respPicDiv'><img src='img/responseButtonOffersNo0_wht.png' class='respPic'></div></div>","null","1","Tyler","4","Kept","0.65,0.35","9","0.65","trustrating_stim/white_mw063.bmp","5","14","3"
"","","","decision","5bb94dea3ea7ed00017cb109","bdp_trlrn","Sun Mar 12 2023 23:58:04 GMT-0400 (Eastern Daylight Time)","673724","Untrustworthy,Trustworthy","html-keyboard-response","147","312349","0.0-19.0-1.3","","","2282","","<div class='trialDiv'><img src='trustrating_stim/white_mw089.bmp'><br><font class='baseline'><strong>Michael</strong><p>Choose number of points to send.</font><div class='respPicDiv'><img src='img/responseButtonOffersNo0L.png' class='respPic'></div></div>","2","2","Michael","1","Kept","0.35,0.8","13","0.35","trustrating_stim/white_mw089.bmp","2","19","4"
"","","","decisionFB","5bb94dea3ea7ed00017cb109","bdp_trlrn","Sun Mar 12 2023 23:58:04 GMT-0400 (Eastern Daylight Time)","673724","Untrustworthy,Trustworthy","html-keyboard-response","148","312610","0.0-19.0-2.3","","","null","","<div class='trialDiv'><img src='trustrating_stim/white_mw089.bmp'><br><font class='baseline'><strong>Michael</strong><p>Choose number of points to send.</font><div class='respPicDiv'><img src='img/responseButtonOffersNo0L2.png' class='respPic'></div></div>","null","2","Michael","1","Kept","0.35,0.8","13","0.35","trustrating_stim/white_mw089.bmp","2","17","4"
"","","","feedback","5bb94dea3ea7ed00017cb109","bdp_trlrn","Sun Mar 12 2023 23:58:04 GMT-0400 (Eastern Daylight Time)","673724","Untrustworthy,Trustworthy","html-keyboard-response","149","313612","0.0-19.0-3.3","","","null","","<div class='trialDiv'><img src='trustrating_stim/white_mw089.bmp'><br><font class='baseline'><strong>Michael</strong><p>Received: <strong>8</strong></font> &nbsp; &nbsp; &nbsp; &nbsp; &nbsp; &nbsp;<font class='negOutcome'>Shared back: <strong>0</strong></font></font><div class='respPicDiv'><img src='img/responseButtonOffersNo0_wht.png' class='respPic'></div></div>","null","2","Michael","1","Kept","0.35,0.8","13","0.35","trustrating_stim/white_mw089.bmp","2","17","4"
"","","","decision","5bb94dea3ea7ed00017cb109","bdp_trlrn","Sun Mar 12 2023 23:58:04 GMT-0400 (Eastern Daylight Time)","673724","Untrustworthy,Trustworthy","html-keyboard-response","150","315300","0.0-19.0-1.4","","","1686","","<div class='trialDiv'><img src='trustrating_stim/white_00602_940928_fb_edt.bmp'><br><font class='baseline'><strong>Richard</strong><p>Choose number of points to send.</font><div class='respPicDiv'><img src='img/responseButtonOffersNo0L.png' class='respPic'></div></div>","5","2","Richard","9","Kept","0.65,0.2","8","0.65","trustrating_stim/white_00602_940928_fb_edt.bmp","7.5","22","5"
"","","","decisionFB","5bb94dea3ea7ed00017cb109","bdp_trlrn","Sun Mar 12 2023 23:58:04 GMT-0400 (Eastern Daylight Time)","673724","Untrustworthy,Trustworthy","html-keyboard-response","151","315557","0.0-19.0-2.4","","","null","","<div class='trialDiv'><img src='trustrating_stim/white_00602_940928_fb_edt.bmp'><br><font class='baseline'><strong>Richard</strong><p>Choose number of points to send.</font><div class='respPicDiv'><img src='img/responseButtonOffersNo0L5.png' class='respPic'></div></div>","null","2","Richard","9","Kept","0.65,0.2","8","0.65","trustrating_stim/white_00602_940928_fb_edt.bmp","7.5","17","5"
"","","","feedback","5bb94dea3ea7ed00017cb109","bdp_trlrn","Sun Mar 12 2023 23:58:04 GMT-0400 (Eastern Daylight Time)","673724","Untrustworthy,Trustworthy","html-keyboard-response","152","316557","0.0-19.0-3.4","","","null","","<div class='trialDiv'><img src='trustrating_stim/white_00602_940928_fb_edt.bmp'><br><font class='baseline'><strong>Richard</strong><p>Received: <strong>20</strong></font> &nbsp; &nbsp; &nbsp; &nbsp; &nbsp; &nbsp;<font class='negOutcome'>Shared back: <strong>0</strong></font></font><div class='respPicDiv'><img src='img/responseButtonOffersNo0_wht.png' class='respPic'></div></div>","null","2","Richard","9","Kept","0.65,0.2","8","0.65","trustrating_stim/white_00602_940928_fb_edt.bmp","7.5","17","5"
"","","","decision","5bb94dea3ea7ed00017cb109","bdp_trlrn","Sun Mar 12 2023 23:58:04 GMT-0400 (Eastern Daylight Time)","673724","Untrustworthy,Trustworthy","html-keyboard-response","153","317866","0.0-19.0-1.5","","","1308","","<div class='trialDiv'><img src='trustrating_stim/white_mw063.bmp'><br><font class='baseline'><strong>Tyler</strong><p>Choose number of points to send.</font><div class='respPicDiv'><img src='img/responseButtonOffersNo0L.png' class='respPic'></div></div>","3","2","Tyler","4","Kept","0.65,0.35","9","0.65","trustrating_stim/white_mw063.bmp","5","22","6"
"","","","decisionFB","5bb94dea3ea7ed00017cb109","bdp_trlrn","Sun Mar 12 2023 23:58:04 GMT-0400 (Eastern Daylight Time)","673724","Untrustworthy,Trustworthy","html-keyboard-response","154","318129","0.0-19.0-2.5","","","null","","<div class='trialDiv'><img src='trustrating_stim/white_mw063.bmp'><br><font class='baseline'><strong>Tyler</strong><p>Choose number of points to send.</font><div class='respPicDiv'><img src='img/responseButtonOffersNo0L3.png' class='respPic'></div></div>","null","2","Tyler","4","Kept","0.65,0.35","9","0.65","trustrating_stim/white_mw063.bmp","5","19","6"
"","","","feedback","5bb94dea3ea7ed00017cb109","bdp_trlrn","Sun Mar 12 2023 23:58:04 GMT-0400 (Eastern Daylight Time)","673724","Untrustworthy,Trustworthy","html-keyboard-response","155","319131","0.0-19.0-3.5","","","null","","<div class='trialDiv'><img src='trustrating_stim/white_mw063.bmp'><br><font class='baseline'><strong>Tyler</strong><p>Received: <strong>12</strong></font> &nbsp; &nbsp; &nbsp; &nbsp; &nbsp; &nbsp;<font class='negOutcome'>Shared back: <strong>0</strong></font></font><div class='respPicDiv'><img src='img/responseButtonOffersNo0_wht.png' class='respPic'></div></div>","null","2","Tyler","4","Kept","0.65,0.35","9","0.65","trustrating_stim/white_mw063.bmp","5","19","6"
"","","","decision","5bb94dea3ea7ed00017cb109","bdp_trlrn","Sun Mar 12 2023 23:58:04 GMT-0400 (Eastern Daylight Time)","673724","Untrustworthy,Trustworthy","html-keyboard-response","156","320982","0.0-19.0-1.6","","","1850","","<div class='trialDiv'><img src='trustrating_stim/white_mw089.bmp'><br><font class='baseline'><strong>Michael</strong><p>Choose number of points to send.</font><div class='respPicDiv'><img src='img/responseButtonOffersNo0L.png' class='respPic'></div></div>","3","3","Michael","1","Kept","0.35,0.8","13","0.35","trustrating_stim/white_mw089.bmp","2","24","7"
"","","","decisionFB","5bb94dea3ea7ed00017cb109","bdp_trlrn","Sun Mar 12 2023 23:58:04 GMT-0400 (Eastern Daylight Time)","673724","Untrustworthy,Trustworthy","html-keyboard-response","157","321241","0.0-19.0-2.6","","","null","","<div class='trialDiv'><img src='trustrating_stim/white_mw089.bmp'><br><font class='baseline'><strong>Michael</strong><p>Choose number of points to send.</font><div class='respPicDiv'><img src='img/responseButtonOffersNo0L3.png' class='respPic'></div></div>","null","3","Michael","1","Kept","0.35,0.8","13","0.35","trustrating_stim/white_mw089.bmp","2","21","7"
"","","","feedback","5bb94dea3ea7ed00017cb109","bdp_trlrn","Sun Mar 12 2023 23:58:04 GMT-0400 (Eastern Daylight Time)","673724","Untrustworthy,Trustworthy","html-keyboard-response","158","322245","0.0-19.0-3.6","","","null","","<div class='trialDiv'><img src='trustrating_stim/white_mw089.bmp'><br><font class='baseline'><strong>Michael</strong><p>Received: <strong>12</strong></font> &nbsp; &nbsp; &nbsp; &nbsp; &nbsp; &nbsp;<font class='negOutcome'>Shared back: <strong>0</strong></font></font><div class='respPicDiv'><img src='img/responseButtonOffersNo0_wht.png' class='respPic'></div></div>","null","3","Michael","1","Kept","0.35,0.8","13","0.35","trustrating_stim/white_mw089.bmp","2","21","7"
"","","","decision","5bb94dea3ea7ed00017cb109","bdp_trlrn","Sun Mar 12 2023 23:58:04 GMT-0400 (Eastern Daylight Time)","673724","Untrustworthy,Trustworthy","html-keyboard-response","159","324288","0.0-19.0-1.7","","","2042","","<div class='trialDiv'><img src='trustrating_stim/white_mw063.bmp'><br><font class='baseline'><strong>Tyler</strong><p>Choose number of points to send.</font><div class='respPicDiv'><img src='img/responseButtonOffersNo0L.png' class='respPic'></div></div>","2","3","Tyler","4","Shared","0.65,0.35","9","0.65","trustrating_stim/white_mw063.bmp","5","26","8"
"","","","decisionFB","5bb94dea3ea7ed00017cb109","bdp_trlrn","Sun Mar 12 2023 23:58:04 GMT-0400 (Eastern Daylight Time)","673724","Untrustworthy,Trustworthy","html-keyboard-response","160","324542","0.0-19.0-2.7","","","null","","<div class='trialDiv'><img src='trustrating_stim/white_mw063.bmp'><br><font class='baseline'><strong>Tyler</strong><p>Choose number of points to send.</font><div class='respPicDiv'><img src='img/responseButtonOffersNo0L2.png' class='respPic'></div></div>","null","3","Tyler","4","Shared","0.65,0.35","9","0.65","trustrating_stim/white_mw063.bmp","5","24","8"
"","","","feedback","5bb94dea3ea7ed00017cb109","bdp_trlrn","Sun Mar 12 2023 23:58:04 GMT-0400 (Eastern Daylight Time)","673724","Untrustworthy,Trustworthy","html-keyboard-response","161","325544","0.0-19.0-3.7","","","null","","<div class='trialDiv'><img src='trustrating_stim/white_mw063.bmp'><br><font class='baseline'><strong>Tyler</strong><p>Received: <strong>8</strong></font> &nbsp; &nbsp; &nbsp; &nbsp; &nbsp; &nbsp;<font class='posOutcome'>Shared back: <strong>4</strong></font></font><div class='respPicDiv'><img src='img/responseButtonOffersNo0_wht.png' class='respPic'></div></div>","null","3","Tyler","4","Shared","0.65,0.35","9","0.65","trustrating_stim/white_mw063.bmp","5","28","8"
"","","","decision","5bb94dea3ea7ed00017cb109","bdp_trlrn","Sun Mar 12 2023 23:58:04 GMT-0400 (Eastern Daylight Time)","673724","Untrustworthy,Trustworthy","html-keyboard-response","162","326928","0.0-19.0-1.8","","","1383","","<div class='trialDiv'><img src='trustrating_stim/white_00602_940928_fb_edt.bmp'><br><font class='baseline'><strong>Richard</strong><p>Choose number of points to send.</font><div class='respPicDiv'><img src='img/responseButtonOffersNo0L.png' class='respPic'></div></div>","3","3","Richard","9","Shared","0.65,0.2","8","0.65","trustrating_stim/white_00602_940928_fb_edt.bmp","7.5","33","9"
"","","","decisionFB","5bb94dea3ea7ed00017cb109","bdp_trlrn","Sun Mar 12 2023 23:58:04 GMT-0400 (Eastern Daylight Time)","673724","Untrustworthy,Trustworthy","html-keyboard-response","163","327183","0.0-19.0-2.8","","","null","","<div class='trialDiv'><img src='trustrating_stim/white_00602_940928_fb_edt.bmp'><br><font class='baseline'><strong>Richard</strong><p>Choose number of points to send.</font><div class='respPicDiv'><img src='img/responseButtonOffersNo0L3.png' class='respPic'></div></div>","null","3","Richard","9","Shared","0.65,0.2","8","0.65","trustrating_stim/white_00602_940928_fb_edt.bmp","7.5","30","9"
"","","","feedback","5bb94dea3ea7ed00017cb109","bdp_trlrn","Sun Mar 12 2023 23:58:04 GMT-0400 (Eastern Daylight Time)","673724","Untrustworthy,Trustworthy","html-keyboard-response","164","328184","0.0-19.0-3.8","","","null","","<div class='trialDiv'><img src='trustrating_stim/white_00602_940928_fb_edt.bmp'><br><font class='baseline'><strong>Richard</strong><p>Received: <strong>12</strong></font> &nbsp; &nbsp; &nbsp; &nbsp; &nbsp; &nbsp;<font class='posOutcome'>Shared back: <strong>6</strong></font></font><div class='respPicDiv'><img src='img/responseButtonOffersNo0_wht.png' class='respPic'></div></div>","null","3","Richard","9","Shared","0.65,0.2","8","0.65","trustrating_stim/white_00602_940928_fb_edt.bmp","7.5","36","9"
"","","","decision","5bb94dea3ea7ed00017cb109","bdp_trlrn","Sun Mar 12 2023 23:58:04 GMT-0400 (Eastern Daylight Time)","673724","Untrustworthy,Trustworthy","html-keyboard-response","165","331310","0.0-19.0-1.9","","","3126","","<div class='trialDiv'><img src='trustrating_stim/white_mw089.bmp'><br><font class='baseline'><strong>Michael</strong><p>Choose number of points to send.</font><div class='respPicDiv'><img src='img/responseButtonOffersNo0L.png' class='respPic'></div></div>","2","4","Michael","1","Shared","0.35,0.8","13","0.35","trustrating_stim/white_mw089.bmp","2","41","10"
"","","","decisionFB","5bb94dea3ea7ed00017cb109","bdp_trlrn","Sun Mar 12 2023 23:58:04 GMT-0400 (Eastern Daylight Time)","673724","Untrustworthy,Trustworthy","html-keyboard-response","166","331575","0.0-19.0-2.9","","","null","","<div class='trialDiv'><img src='trustrating_stim/white_mw089.bmp'><br><font class='baseline'><strong>Michael</strong><p>Choose number of points to send.</font><div class='respPicDiv'><img src='img/responseButtonOffersNo0L2.png' class='respPic'></div></div>","null","4","Michael","1","Shared","0.35,0.8","13","0.35","trustrating_stim/white_mw089.bmp","2","39","10"
"","","","feedback","5bb94dea3ea7ed00017cb109","bdp_trlrn","Sun Mar 12 2023 23:58:04 GMT-0400 (Eastern Daylight Time)","673724","Untrustworthy,Trustworthy","html-keyboard-response","167","332578","0.0-19.0-3.9","","","null","","<div class='trialDiv'><img src='trustrating_stim/white_mw089.bmp'><br><font class='baseline'><strong>Michael</strong><p>Received: <strong>8</strong></font> &nbsp; &nbsp; &nbsp; &nbsp; &nbsp; &nbsp;<font class='posOutcome'>Shared back: <strong>4</strong></font></font><div class='respPicDiv'><img src='img/responseButtonOffersNo0_wht.png' class='respPic'></div></div>","null","4","Michael","1","Shared","0.35,0.8","13","0.35","trustrating_stim/white_mw089.bmp","2","43","10"
"","","","decision","5bb94dea3ea7ed00017cb109","bdp_trlrn","Sun Mar 12 2023 23:58:04 GMT-0400 (Eastern Daylight Time)","673724","Untrustworthy,Trustworthy","html-keyboard-response","168","334212","0.0-19.0-1.10","","","1632","","<div class='trialDiv'><img src='trustrating_stim/white_00602_940928_fb_edt.bmp'><br><font class='baseline'><strong>Richard</strong><p>Choose number of points to send.</font><div class='respPicDiv'><img src='img/responseButtonOffersNo0L.png' class='respPic'></div></div>","4","4","Richard","9","Kept","0.65,0.2","8","0.65","trustrating_stim/white_00602_940928_fb_edt.bmp","7.5","48","11"
"","","","decisionFB","5bb94dea3ea7ed00017cb109","bdp_trlrn","Sun Mar 12 2023 23:58:04 GMT-0400 (Eastern Daylight Time)","673724","Untrustworthy,Trustworthy","html-keyboard-response","169","334473","0.0-19.0-2.10","","","null","","<div class='trialDiv'><img src='trustrating_stim/white_00602_940928_fb_edt.bmp'><br><font class='baseline'><strong>Richard</strong><p>Choose number of points to send.</font><div class='respPicDiv'><img src='img/responseButtonOffersNo0L4.png' class='respPic'></div></div>","null","4","Richard","9","Kept","0.65,0.2","8","0.65","trustrating_stim/white_00602_940928_fb_edt.bmp","7.5","44","11"
"","","","feedback","5bb94dea3ea7ed00017cb109","bdp_trlrn","Sun Mar 12 2023 23:58:04 GMT-0400 (Eastern Daylight Time)","673724","Untrustworthy,Trustworthy","html-keyboard-response","170","335475","0.0-19.0-3.10","","","null","","<div class='trialDiv'><img src='trustrating_stim/white_00602_940928_fb_edt.bmp'><br><font class='baseline'><strong>Richard</strong><p>Received: <strong>16</strong></font> &nbsp; &nbsp; &nbsp; &nbsp; &nbsp; &nbsp;<font class='negOutcome'>Shared back: <strong>0</strong></font></font><div class='respPicDiv'><img src='img/responseButtonOffersNo0_wht.png' class='respPic'></div></div>","null","4","Richard","9","Kept","0.65,0.2","8","0.65","trustrating_stim/white_00602_940928_fb_edt.bmp","7.5","44","11"
"","","","decision","5bb94dea3ea7ed00017cb109","bdp_trlrn","Sun Mar 12 2023 23:58:04 GMT-0400 (Eastern Daylight Time)","673724","Untrustworthy,Trustworthy","html-keyboard-response","171","337185","0.0-19.0-1.11","","","1710","","<div class='trialDiv'><img src='trustrating_stim/white_mw063.bmp'><br><font class='baseline'><strong>Tyler</strong><p>Choose number of points to send.</font><div class='respPicDiv'><img src='img/responseButtonOffersNo0L.png' class='respPic'></div></div>","2","4","Tyler","4","Shared","0.65,0.35","9","0.65","trustrating_stim/white_mw063.bmp","5","49","12"
"","","","decisionFB","5bb94dea3ea7ed00017cb109","bdp_trlrn","Sun Mar 12 2023 23:58:04 GMT-0400 (Eastern Daylight Time)","673724","Untrustworthy,Trustworthy","html-keyboard-response","172","337448","0.0-19.0-2.11","","","null","","<div class='trialDiv'><img src='trustrating_stim/white_mw063.bmp'><br><font class='baseline'><strong>Tyler</strong><p>Choose number of points to send.</font><div class='respPicDiv'><img src='img/responseButtonOffersNo0L2.png' class='respPic'></div></div>","null","4","Tyler","4","Shared","0.65,0.35","9","0.65","trustrating_stim/white_mw063.bmp","5","47","12"
"","","","feedback","5bb94dea3ea7ed00017cb109","bdp_trlrn","Sun Mar 12 2023 23:58:04 GMT-0400 (Eastern Daylight Time)","673724","Untrustworthy,Trustworthy","html-keyboard-response","173","338452","0.0-19.0-3.11","","","null","","<div class='trialDiv'><img src='trustrating_stim/white_mw063.bmp'><br><font class='baseline'><strong>Tyler</strong><p>Received: <strong>8</strong></font> &nbsp; &nbsp; &nbsp; &nbsp; &nbsp; &nbsp;<font class='posOutcome'>Shared back: <strong>4</strong></font></font><div class='respPicDiv'><img src='img/responseButtonOffersNo0_wht.png' class='respPic'></div></div>","null","4","Tyler","4","Shared","0.65,0.35","9","0.65","trustrating_stim/white_mw063.bmp","5","51","12"
"","","","decision","5bb94dea3ea7ed00017cb109","bdp_trlrn","Sun Mar 12 2023 23:58:04 GMT-0400 (Eastern Daylight Time)","673724","Untrustworthy,Trustworthy","html-keyboard-response","174","340229","0.0-19.0-1.12","","","1777","","<div class='trialDiv'><img src='trustrating_stim/white_mw089.bmp'><br><font class='baseline'><strong>Michael</strong><p>Choose number of points to send.</font><div class='respPicDiv'><img src='img/responseButtonOffersNo0L.png' class='respPic'></div></div>","2","5","Michael","1","Kept","0.35,0.8","13","0.35","trustrating_stim/white_mw089.bmp","2","56","13"
"","","","decisionFB","5bb94dea3ea7ed00017cb109","bdp_trlrn","Sun Mar 12 2023 23:58:04 GMT-0400 (Eastern Daylight Time)","673724","Untrustworthy,Trustworthy","html-keyboard-response","175","340486","0.0-19.0-2.12","","","null","","<div class='trialDiv'><img src='trustrating_stim/white_mw089.bmp'><br><font class='baseline'><strong>Michael</strong><p>Choose number of points to send.</font><div class='respPicDiv'><img src='img/responseButtonOffersNo0L2.png' class='respPic'></div></div>","null","5","Michael","1","Kept","0.35,0.8","13","0.35","trustrating_stim/white_mw089.bmp","2","54","13"
"","","","feedback","5bb94dea3ea7ed00017cb109","bdp_trlrn","Sun Mar 12 2023 23:58:04 GMT-0400 (Eastern Daylight Time)","673724","Untrustworthy,Trustworthy","html-keyboard-response","176","341488","0.0-19.0-3.12","","","null","","<div class='trialDiv'><img src='trustrating_stim/white_mw089.bmp'><br><font class='baseline'><strong>Michael</strong><p>Received: <strong>8</strong></font> &nbsp; &nbsp; &nbsp; &nbsp; &nbsp; &nbsp;<font class='negOutcome'>Shared back: <strong>0</strong></font></font><div class='respPicDiv'><img src='img/responseButtonOffersNo0_wht.png' class='respPic'></div></div>","null","5","Michael","1","Kept","0.35,0.8","13","0.35","trustrating_stim/white_mw089.bmp","2","54","13"
"","","","decision","5bb94dea3ea7ed00017cb109","bdp_trlrn","Sun Mar 12 2023 23:58:04 GMT-0400 (Eastern Daylight Time)","673724","Untrustworthy,Trustworthy","html-keyboard-response","177","342313","0.0-19.0-1.13","","","825","","<div class='trialDiv'><img src='trustrating_stim/white_mw063.bmp'><br><font class='baseline'><strong>Tyler</strong><p>Choose number of points to send.</font><div class='respPicDiv'><img src='img/responseButtonOffersNo0L.png' class='respPic'></div></div>","3","5","Tyler","4","Kept","0.65,0.35","9","0.65","trustrating_stim/white_mw063.bmp","5","59","14"
"","","","decisionFB","5bb94dea3ea7ed00017cb109","bdp_trlrn","Sun Mar 12 2023 23:58:04 GMT-0400 (Eastern Daylight Time)","673724","Untrustworthy,Trustworthy","html-keyboard-response","178","342566","0.0-19.0-2.13","","","null","","<div class='trialDiv'><img src='trustrating_stim/white_mw063.bmp'><br><font class='baseline'><strong>Tyler</strong><p>Choose number of points to send.</font><div class='respPicDiv'><img src='img/responseButtonOffersNo0L3.png' class='respPic'></div></div>","null","5","Tyler","4","Kept","0.65,0.35","9","0.65","trustrating_stim/white_mw063.bmp","5","56","14"
"","","","feedback","5bb94dea3ea7ed00017cb109","bdp_trlrn","Sun Mar 12 2023 23:58:04 GMT-0400 (Eastern Daylight Time)","673724","Untrustworthy,Trustworthy","html-keyboard-response","179","343566","0.0-19.0-3.13","","","null","","<div class='trialDiv'><img src='trustrating_stim/white_mw063.bmp'><br><font class='baseline'><strong>Tyler</strong><p>Received: <strong>12</strong></font> &nbsp; &nbsp; &nbsp; &nbsp; &nbsp; &nbsp;<font class='negOutcome'>Shared back: <strong>0</strong></font></font><div class='respPicDiv'><img src='img/responseButtonOffersNo0_wht.png' class='respPic'></div></div>","null","5","Tyler","4","Kept","0.65,0.35","9","0.65","trustrating_stim/white_mw063.bmp","5","56","14"
"","","","decision","5bb94dea3ea7ed00017cb109","bdp_trlrn","Sun Mar 12 2023 23:58:04 GMT-0400 (Eastern Daylight Time)","673724","Untrustworthy,Trustworthy","html-keyboard-response","180","344596","0.0-19.0-1.14","","","1029","","<div class='trialDiv'><img src='trustrating_stim/white_00602_940928_fb_edt.bmp'><br><font class='baseline'><strong>Richard</strong><p>Choose number of points to send.</font><div class='respPicDiv'><img src='img/responseButtonOffersNo0L.png' class='respPic'></div></div>","2","5","Richard","9","Shared","0.65,0.2","8","0.65","trustrating_stim/white_00602_940928_fb_edt.bmp","7.5","61","15"
"","","","decisionFB","5bb94dea3ea7ed00017cb109","bdp_trlrn","Sun Mar 12 2023 23:58:04 GMT-0400 (Eastern Daylight Time)","673724","Untrustworthy,Trustworthy","html-keyboard-response","181","344861","0.0-19.0-2.14","","","null","","<div class='trialDiv'><img src='trustrating_stim/white_00602_940928_fb_edt.bmp'><br><font class='baseline'><strong>Richard</strong><p>Choose number of points to send.</font><div class='respPicDiv'><img src='img/responseButtonOffersNo0L2.png' class='respPic'></div></div>","null","5","Richard","9","Shared","0.65,0.2","8","0.65","trustrating_stim/white_00602_940928_fb_edt.bmp","7.5","59","15"
"","","","feedback","5bb94dea3ea7ed00017cb109","bdp_trlrn","Sun Mar 12 2023 23:58:04 GMT-0400 (Eastern Daylight Time)","673724","Untrustworthy,Trustworthy","html-keyboard-response","182","345863","0.0-19.0-3.14","","","null","","<div class='trialDiv'><img src='trustrating_stim/white_00602_940928_fb_edt.bmp'><br><font class='baseline'><strong>Richard</strong><p>Received: <strong>8</strong></font> &nbsp; &nbsp; &nbsp; &nbsp; &nbsp; &nbsp;<font class='posOutcome'>Shared back: <strong>4</strong></font></font><div class='respPicDiv'><img src='img/responseButtonOffersNo0_wht.png' class='respPic'></div></div>","null","5","Richard","9","Shared","0.65,0.2","8","0.65","trustrating_stim/white_00602_940928_fb_edt.bmp","7.5","63","15"
"","","","decision","5bb94dea3ea7ed00017cb109","bdp_trlrn","Sun Mar 12 2023 23:58:04 GMT-0400 (Eastern Daylight Time)","673724","Untrustworthy,Trustworthy","html-keyboard-response","183","348074","0.0-19.0-1.15","","","2210","","<div class='trialDiv'><img src='trustrating_stim/white_mw089.bmp'><br><font class='baseline'><strong>Michael</strong><p>Choose number of points to send.</font><div class='respPicDiv'><img src='img/responseButtonOffersNo0L.png' class='respPic'></div></div>","2","6","Michael","1","Shared","0.35,0.8","13","0.35","trustrating_stim/white_mw089.bmp","2","68","16"
"","","","decisionFB","5bb94dea3ea7ed00017cb109","bdp_trlrn","Sun Mar 12 2023 23:58:04 GMT-0400 (Eastern Daylight Time)","673724","Untrustworthy,Trustworthy","html-keyboard-response","184","348330","0.0-19.0-2.15","","","null","","<div class='trialDiv'><img src='trustrating_stim/white_mw089.bmp'><br><font class='baseline'><strong>Michael</strong><p>Choose number of points to send.</font><div class='respPicDiv'><img src='img/responseButtonOffersNo0L2.png' class='respPic'></div></div>","null","6","Michael","1","Shared","0.35,0.8","13","0.35","trustrating_stim/white_mw089.bmp","2","66","16"
"","","","feedback","5bb94dea3ea7ed00017cb109","bdp_trlrn","Sun Mar 12 2023 23:58:04 GMT-0400 (Eastern Daylight Time)","673724","Untrustworthy,Trustworthy","html-keyboard-response","185","349336","0.0-19.0-3.15","","","null","","<div class='trialDiv'><img src='trustrating_stim/white_mw089.bmp'><br><font class='baseline'><strong>Michael</strong><p>Received: <strong>8</strong></font> &nbsp; &nbsp; &nbsp; &nbsp; &nbsp; &nbsp;<font class='posOutcome'>Shared back: <strong>4</strong></font></font><div class='respPicDiv'><img src='img/responseButtonOffersNo0_wht.png' class='respPic'></div></div>","null","6","Michael","1","Shared","0.35,0.8","13","0.35","trustrating_stim/white_mw089.bmp","2","70","16"
"","","","decision","5bb94dea3ea7ed00017cb109","bdp_trlrn","Sun Mar 12 2023 23:58:04 GMT-0400 (Eastern Daylight Time)","673724","Untrustworthy,Trustworthy","html-keyboard-response","186","350639","0.0-19.0-1.16","","","1302","","<div class='trialDiv'><img src='trustrating_stim/white_00602_940928_fb_edt.bmp'><br><font class='baseline'><strong>Richard</strong><p>Choose number of points to send.</font><div class='respPicDiv'><img src='img/responseButtonOffersNo0L.png' class='respPic'></div></div>","2","6","Richard","9","Shared","0.65,0.2","8","0.65","trustrating_stim/white_00602_940928_fb_edt.bmp","7.5","75","17"
"","","","decisionFB","5bb94dea3ea7ed00017cb109","bdp_trlrn","Sun Mar 12 2023 23:58:04 GMT-0400 (Eastern Daylight Time)","673724","Untrustworthy,Trustworthy","html-keyboard-response","187","350892","0.0-19.0-2.16","","","null","","<div class='trialDiv'><img src='trustrating_stim/white_00602_940928_fb_edt.bmp'><br><font class='baseline'><strong>Richard</strong><p>Choose number of points to send.</font><div class='respPicDiv'><img src='img/responseButtonOffersNo0L2.png' class='respPic'></div></div>","null","6","Richard","9","Shared","0.65,0.2","8","0.65","trustrating_stim/white_00602_940928_fb_edt.bmp","7.5","73","17"
"","","","feedback","5bb94dea3ea7ed00017cb109","bdp_trlrn","Sun Mar 12 2023 23:58:04 GMT-0400 (Eastern Daylight Time)","673724","Untrustworthy,Trustworthy","html-keyboard-response","188","351894","0.0-19.0-3.16","","","null","","<div class='trialDiv'><img src='trustrating_stim/white_00602_940928_fb_edt.bmp'><br><font class='baseline'><strong>Richard</strong><p>Received: <strong>8</strong></font> &nbsp; &nbsp; &nbsp; &nbsp; &nbsp; &nbsp;<font class='posOutcome'>Shared back: <strong>4</strong></font></font><div class='respPicDiv'><img src='img/responseButtonOffersNo0_wht.png' class='respPic'></div></div>","null","6","Richard","9","Shared","0.65,0.2","8","0.65","trustrating_stim/white_00602_940928_fb_edt.bmp","7.5","77","17"
"","","","decision","5bb94dea3ea7ed00017cb109","bdp_trlrn","Sun Mar 12 2023 23:58:04 GMT-0400 (Eastern Daylight Time)","673724","Untrustworthy,Trustworthy","html-keyboard-response","189","353214","0.0-19.0-1.17","","","1320","","<div class='trialDiv'><img src='trustrating_stim/white_mw063.bmp'><br><font class='baseline'><strong>Tyler</strong><p>Choose number of points to send.</font><div class='respPicDiv'><img src='img/responseButtonOffersNo0L.png' class='respPic'></div></div>","3","6","Tyler","4","Shared","0.65,0.35","9","0.65","trustrating_stim/white_mw063.bmp","5","82","18"
"","","","decisionFB","5bb94dea3ea7ed00017cb109","bdp_trlrn","Sun Mar 12 2023 23:58:04 GMT-0400 (Eastern Daylight Time)","673724","Untrustworthy,Trustworthy","html-keyboard-response","190","353469","0.0-19.0-2.17","","","null","","<div class='trialDiv'><img src='trustrating_stim/white_mw063.bmp'><br><font class='baseline'><strong>Tyler</strong><p>Choose number of points to send.</font><div class='respPicDiv'><img src='img/responseButtonOffersNo0L3.png' class='respPic'></div></div>","null","6","Tyler","4","Shared","0.65,0.35","9","0.65","trustrating_stim/white_mw063.bmp","5","79","18"
"","","","feedback","5bb94dea3ea7ed00017cb109","bdp_trlrn","Sun Mar 12 2023 23:58:04 GMT-0400 (Eastern Daylight Time)","673724","Untrustworthy,Trustworthy","html-keyboard-response","191","354471","0.0-19.0-3.17","","","null","","<div class='trialDiv'><img src='trustrating_stim/white_mw063.bmp'><br><font class='baseline'><strong>Tyler</strong><p>Received: <strong>12</strong></font> &nbsp; &nbsp; &nbsp; &nbsp; &nbsp; &nbsp;<font class='posOutcome'>Shared back: <strong>6</strong></font></font><div class='respPicDiv'><img src='img/responseButtonOffersNo0_wht.png' class='respPic'></div></div>","null","6","Tyler","4","Shared","0.65,0.35","9","0.65","trustrating_stim/white_mw063.bmp","5","85","18"
"","","","decision","5bb94dea3ea7ed00017cb109","bdp_trlrn","Sun Mar 12 2023 23:58:04 GMT-0400 (Eastern Daylight Time)","673724","Untrustworthy,Trustworthy","html-keyboard-response","192","355356","0.0-19.0-1.18","","","884","","<div class='trialDiv'><img src='trustrating_stim/white_mw089.bmp'><br><font class='baseline'><strong>Michael</strong><p>Choose number of points to send.</font><div class='respPicDiv'><img src='img/responseButtonOffersNo0L.png' class='respPic'></div></div>","2","7","Michael","1","Kept","0.35,0.8","13","0.35","trustrating_stim/white_mw089.bmp","2","90","19"
"","","","decisionFB","5bb94dea3ea7ed00017cb109","bdp_trlrn","Sun Mar 12 2023 23:58:04 GMT-0400 (Eastern Daylight Time)","673724","Untrustworthy,Trustworthy","html-keyboard-response","193","355612","0.0-19.0-2.18","","","null","","<div class='trialDiv'><img src='trustrating_stim/white_mw089.bmp'><br><font class='baseline'><strong>Michael</strong><p>Choose number of points to send.</font><div class='respPicDiv'><img src='img/responseButtonOffersNo0L2.png' class='respPic'></div></div>","null","7","Michael","1","Kept","0.35,0.8","13","0.35","trustrating_stim/white_mw089.bmp","2","88","19"
"","","","feedback","5bb94dea3ea7ed00017cb109","bdp_trlrn","Sun Mar 12 2023 23:58:04 GMT-0400 (Eastern Daylight Time)","673724","Untrustworthy,Trustworthy","html-keyboard-response","194","356613","0.0-19.0-3.18","","","null","","<div class='trialDiv'><img src='trustrating_stim/white_mw089.bmp'><br><font class='baseline'><strong>Michael</strong><p>Received: <strong>8</strong></font> &nbsp; &nbsp; &nbsp; &nbsp; &nbsp; &nbsp;<font class='negOutcome'>Shared back: <strong>0</strong></font></font><div class='respPicDiv'><img src='img/responseButtonOffersNo0_wht.png' class='respPic'></div></div>","null","7","Michael","1","Kept","0.35,0.8","13","0.35","trustrating_stim/white_mw089.bmp","2","88","19"
"","","","decision","5bb94dea3ea7ed00017cb109","bdp_trlrn","Sun Mar 12 2023 23:58:04 GMT-0400 (Eastern Daylight Time)","673724","Untrustworthy,Trustworthy","html-keyboard-response","195","357686","0.0-19.0-1.19","","","1072","","<div class='trialDiv'><img src='trustrating_stim/white_00602_940928_fb_edt.bmp'><br><font class='baseline'><strong>Richard</strong><p>Choose number of points to send.</font><div class='respPicDiv'><img src='img/responseButtonOffersNo0L.png' class='respPic'></div></div>","3","7","Richard","9","Shared","0.65,0.2","8","0.65","trustrating_stim/white_00602_940928_fb_edt.bmp","7.5","93","20"
"","","","decisionFB","5bb94dea3ea7ed00017cb109","bdp_trlrn","Sun Mar 12 2023 23:58:04 GMT-0400 (Eastern Daylight Time)","673724","Untrustworthy,Trustworthy","html-keyboard-response","196","357938","0.0-19.0-2.19","","","null","","<div class='trialDiv'><img src='trustrating_stim/white_00602_940928_fb_edt.bmp'><br><font class='baseline'><strong>Richard</strong><p>Choose number of points to send.</font><div class='respPicDiv'><img src='img/responseButtonOffersNo0L3.png' class='respPic'></div></div>","null","7","Richard","9","Shared","0.65,0.2","8","0.65","trustrating_stim/white_00602_940928_fb_edt.bmp","7.5","90","20"
"","","","feedback","5bb94dea3ea7ed00017cb109","bdp_trlrn","Sun Mar 12 2023 23:58:04 GMT-0400 (Eastern Daylight Time)","673724","Untrustworthy,Trustworthy","html-keyboard-response","197","358940","0.0-19.0-3.19","","","null","","<div class='trialDiv'><img src='trustrating_stim/white_00602_940928_fb_edt.bmp'><br><font class='baseline'><strong>Richard</strong><p>Received: <strong>12</strong></font> &nbsp; &nbsp; &nbsp; &nbsp; &nbsp; &nbsp;<font class='posOutcome'>Shared back: <strong>6</strong></font></font><div class='respPicDiv'><img src='img/responseButtonOffersNo0_wht.png' class='respPic'></div></div>","null","7","Richard","9","Shared","0.65,0.2","8","0.65","trustrating_stim/white_00602_940928_fb_edt.bmp","7.5","96","20"
"","","","decision","5bb94dea3ea7ed00017cb109","bdp_trlrn","Sun Mar 12 2023 23:58:04 GMT-0400 (Eastern Daylight Time)","673724","Untrustworthy,Trustworthy","html-keyboard-response","198","359793","0.0-19.0-1.20","","","852","","<div class='trialDiv'><img src='trustrating_stim/white_mw063.bmp'><br><font class='baseline'><strong>Tyler</strong><p>Choose number of points to send.</font><div class='respPicDiv'><img src='img/responseButtonOffersNo0L.png' class='respPic'></div></div>","5","7","Tyler","4","Kept","0.65,0.35","9","0.65","trustrating_stim/white_mw063.bmp","5","101","21"
"","","","decisionFB","5bb94dea3ea7ed00017cb109","bdp_trlrn","Sun Mar 12 2023 23:58:04 GMT-0400 (Eastern Daylight Time)","673724","Untrustworthy,Trustworthy","html-keyboard-response","199","360049","0.0-19.0-2.20","","","null","","<div class='trialDiv'><img src='trustrating_stim/white_mw063.bmp'><br><font class='baseline'><strong>Tyler</strong><p>Choose number of points to send.</font><div class='respPicDiv'><img src='img/responseButtonOffersNo0L5.png' class='respPic'></div></div>","null","7","Tyler","4","Kept","0.65,0.35","9","0.65","trustrating_stim/white_mw063.bmp","5","96","21"
"","","","feedback","5bb94dea3ea7ed00017cb109","bdp_trlrn","Sun Mar 12 2023 23:58:04 GMT-0400 (Eastern Daylight Time)","673724","Untrustworthy,Trustworthy","html-keyboard-response","200","361054","0.0-19.0-3.20","","","null","","<div class='trialDiv'><img src='trustrating_stim/white_mw063.bmp'><br><font class='baseline'><strong>Tyler</strong><p>Received: <strong>20</strong></font> &nbsp; &nbsp; &nbsp; &nbsp; &nbsp; &nbsp;<font class='negOutcome'>Shared back: <strong>0</strong></font></font><div class='respPicDiv'><img src='img/responseButtonOffersNo0_wht.png' class='respPic'></div></div>","null","7","Tyler","4","Kept","0.65,0.35","9","0.65","trustrating_stim/white_mw063.bmp","5","96","21"
"","","","decision","5bb94dea3ea7ed00017cb109","bdp_trlrn","Sun Mar 12 2023 23:58:04 GMT-0400 (Eastern Daylight Time)","673724","Untrustworthy,Trustworthy","html-keyboard-response","201","361777","0.0-19.0-1.21","","","723","","<div class='trialDiv'><img src='trustrating_stim/white_00602_940928_fb_edt.bmp'><br><font class='baseline'><strong>Richard</strong><p>Choose number of points to send.</font><div class='respPicDiv'><img src='img/responseButtonOffersNo0L.png' class='respPic'></div></div>","5","8","Richard","9","Kept","0.65,0.2","8","0.65","trustrating_stim/white_00602_940928_fb_edt.bmp","7.5","101","22"
"","","","decisionFB","5bb94dea3ea7ed00017cb109","bdp_trlrn","Sun Mar 12 2023 23:58:04 GMT-0400 (Eastern Daylight Time)","673724","Untrustworthy,Trustworthy","html-keyboard-response","202","362039","0.0-19.0-2.21","","","null","","<div class='trialDiv'><img src='trustrating_stim/white_00602_940928_fb_edt.bmp'><br><font class='baseline'><strong>Richard</strong><p>Choose number of points to send.</font><div class='respPicDiv'><img src='img/responseButtonOffersNo0L5.png' class='respPic'></div></div>","null","8","Richard","9","Kept","0.65,0.2","8","0.65","trustrating_stim/white_00602_940928_fb_edt.bmp","7.5","96","22"
"","","","feedback","5bb94dea3ea7ed00017cb109","bdp_trlrn","Sun Mar 12 2023 23:58:04 GMT-0400 (Eastern Daylight Time)","673724","Untrustworthy,Trustworthy","html-keyboard-response","203","363040","0.0-19.0-3.21","","","null","","<div class='trialDiv'><img src='trustrating_stim/white_00602_940928_fb_edt.bmp'><br><font class='baseline'><strong>Richard</strong><p>Received: <strong>20</strong></font> &nbsp; &nbsp; &nbsp; &nbsp; &nbsp; &nbsp;<font class='negOutcome'>Shared back: <strong>0</strong></font></font><div class='respPicDiv'><img src='img/responseButtonOffersNo0_wht.png' class='respPic'></div></div>","null","8","Richard","9","Kept","0.65,0.2","8","0.65","trustrating_stim/white_00602_940928_fb_edt.bmp","7.5","96","22"
"","","","decision","5bb94dea3ea7ed00017cb109","bdp_trlrn","Sun Mar 12 2023 23:58:04 GMT-0400 (Eastern Daylight Time)","673724","Untrustworthy,Trustworthy","html-keyboard-response","204","365659","0.0-19.0-1.22","","","2619","","<div class='trialDiv'><img src='trustrating_stim/white_mw089.bmp'><br><font class='baseline'><strong>Michael</strong><p>Choose number of points to send.</font><div class='respPicDiv'><img src='img/responseButtonOffersNo0L.png' class='respPic'></div></div>","2","8","Michael","1","Kept","0.35,0.8","13","0.35","trustrating_stim/white_mw089.bmp","2","101","23"
"","","","decisionFB","5bb94dea3ea7ed00017cb109","bdp_trlrn","Sun Mar 12 2023 23:58:04 GMT-0400 (Eastern Daylight Time)","673724","Untrustworthy,Trustworthy","html-keyboard-response","205","365922","0.0-19.0-2.22","","","null","","<div class='trialDiv'><img src='trustrating_stim/white_mw089.bmp'><br><font class='baseline'><strong>Michael</strong><p>Choose number of points to send.</font><div class='respPicDiv'><img src='img/responseButtonOffersNo0L2.png' class='respPic'></div></div>","null","8","Michael","1","Kept","0.35,0.8","13","0.35","trustrating_stim/white_mw089.bmp","2","99","23"
"","","","feedback","5bb94dea3ea7ed00017cb109","bdp_trlrn","Sun Mar 12 2023 23:58:04 GMT-0400 (Eastern Daylight Time)","673724","Untrustworthy,Trustworthy","html-keyboard-response","206","366923","0.0-19.0-3.22","","","null","","<div class='trialDiv'><img src='trustrating_stim/white_mw089.bmp'><br><font class='baseline'><strong>Michael</strong><p>Received: <strong>8</strong></font> &nbsp; &nbsp; &nbsp; &nbsp; &nbsp; &nbsp;<font class='negOutcome'>Shared back: <strong>0</strong></font></font><div class='respPicDiv'><img src='img/responseButtonOffersNo0_wht.png' class='respPic'></div></div>","null","8","Michael","1","Kept","0.35,0.8","13","0.35","trustrating_stim/white_mw089.bmp","2","99","23"
"","","","decision","5bb94dea3ea7ed00017cb109","bdp_trlrn","Sun Mar 12 2023 23:58:04 GMT-0400 (Eastern Daylight Time)","673724","Untrustworthy,Trustworthy","html-keyboard-response","207","371354","0.0-19.0-1.23","","","4429","","<div class='trialDiv'><img src='trustrating_stim/white_mw063.bmp'><br><font class='baseline'><strong>Tyler</strong><p>Choose number of points to send.</font><div class='respPicDiv'><img src='img/responseButtonOffersNo0L.png' class='respPic'></div></div>","3","8","Tyler","4","Shared","0.65,0.35","9","0.65","trustrating_stim/white_mw063.bmp","5","104","24"
"","","","decisionFB","5bb94dea3ea7ed00017cb109","bdp_trlrn","Sun Mar 12 2023 23:58:04 GMT-0400 (Eastern Daylight Time)","673724","Untrustworthy,Trustworthy","html-keyboard-response","208","371616","0.0-19.0-2.23","","","null","","<div class='trialDiv'><img src='trustrating_stim/white_mw063.bmp'><br><font class='baseline'><strong>Tyler</strong><p>Choose number of points to send.</font><div class='respPicDiv'><img src='img/responseButtonOffersNo0L3.png' class='respPic'></div></div>","null","8","Tyler","4","Shared","0.65,0.35","9","0.65","trustrating_stim/white_mw063.bmp","5","101","24"
"","","","feedback","5bb94dea3ea7ed00017cb109","bdp_trlrn","Sun Mar 12 2023 23:58:04 GMT-0400 (Eastern Daylight Time)","673724","Untrustworthy,Trustworthy","html-keyboard-response","209","372618","0.0-19.0-3.23","","","null","","<div class='trialDiv'><img src='trustrating_stim/white_mw063.bmp'><br><font class='baseline'><strong>Tyler</strong><p>Received: <strong>12</strong></font> &nbsp; &nbsp; &nbsp; &nbsp; &nbsp; &nbsp;<font class='posOutcome'>Shared back: <strong>6</strong></font></font><div class='respPicDiv'><img src='img/responseButtonOffersNo0_wht.png' class='respPic'></div></div>","null","8","Tyler","4","Shared","0.65,0.35","9","0.65","trustrating_stim/white_mw063.bmp","5","107","24"
"","","","decision","5bb94dea3ea7ed00017cb109","bdp_trlrn","Sun Mar 12 2023 23:58:04 GMT-0400 (Eastern Daylight Time)","673724","Untrustworthy,Trustworthy","html-keyboard-response","210","374618","0.0-19.0-1.24","","","2000","","<div class='trialDiv'><img src='trustrating_stim/white_mw089.bmp'><br><font class='baseline'><strong>Michael</strong><p>Choose number of points to send.</font><div class='respPicDiv'><img src='img/responseButtonOffersNo0L.png' class='respPic'></div></div>","2","9","Michael","1","Shared","0.35,0.8","13","0.35","trustrating_stim/white_mw089.bmp","2","112","25"
"","","","decisionFB","5bb94dea3ea7ed00017cb109","bdp_trlrn","Sun Mar 12 2023 23:58:04 GMT-0400 (Eastern Daylight Time)","673724","Untrustworthy,Trustworthy","html-keyboard-response","211","374883","0.0-19.0-2.24","","","null","","<div class='trialDiv'><img src='trustrating_stim/white_mw089.bmp'><br><font class='baseline'><strong>Michael</strong><p>Choose number of points to send.</font><div class='respPicDiv'><img src='img/responseButtonOffersNo0L2.png' class='respPic'></div></div>","null","9","Michael","1","Shared","0.35,0.8","13","0.35","trustrating_stim/white_mw089.bmp","2","110","25"
"","","","feedback","5bb94dea3ea7ed00017cb109","bdp_trlrn","Sun Mar 12 2023 23:58:04 GMT-0400 (Eastern Daylight Time)","673724","Untrustworthy,Trustworthy","html-keyboard-response","212","375899","0.0-19.0-3.24","","","null","","<div class='trialDiv'><img src='trustrating_stim/white_mw089.bmp'><br><font class='baseline'><strong>Michael</strong><p>Received: <strong>8</strong></font> &nbsp; &nbsp; &nbsp; &nbsp; &nbsp; &nbsp;<font class='posOutcome'>Shared back: <strong>4</strong></font></font><div class='respPicDiv'><img src='img/responseButtonOffersNo0_wht.png' class='respPic'></div></div>","null","9","Michael","1","Shared","0.35,0.8","13","0.35","trustrating_stim/white_mw089.bmp","2","114","25"
"","","","decision","5bb94dea3ea7ed00017cb109","bdp_trlrn","Sun Mar 12 2023 23:58:04 GMT-0400 (Eastern Daylight Time)","673724","Untrustworthy,Trustworthy","html-keyboard-response","213","377125","0.0-19.0-1.25","","","1226","","<div class='trialDiv'><img src='trustrating_stim/white_00602_940928_fb_edt.bmp'><br><font class='baseline'><strong>Richard</strong><p>Choose number of points to send.</font><div class='respPicDiv'><img src='img/responseButtonOffersNo0L.png' class='respPic'></div></div>","2","9","Richard","9","Shared","0.65,0.2","8","0.65","trustrating_stim/white_00602_940928_fb_edt.bmp","7.5","119","26"
"","","","decisionFB","5bb94dea3ea7ed00017cb109","bdp_trlrn","Sun Mar 12 2023 23:58:04 GMT-0400 (Eastern Daylight Time)","673724","Untrustworthy,Trustworthy","html-keyboard-response","214","377378","0.0-19.0-2.25","","","null","","<div class='trialDiv'><img src='trustrating_stim/white_00602_940928_fb_edt.bmp'><br><font class='baseline'><strong>Richard</strong><p>Choose number of points to send.</font><div class='respPicDiv'><img src='img/responseButtonOffersNo0L2.png' class='respPic'></div></div>","null","9","Richard","9","Shared","0.65,0.2","8","0.65","trustrating_stim/white_00602_940928_fb_edt.bmp","7.5","117","26"
"","","","feedback","5bb94dea3ea7ed00017cb109","bdp_trlrn","Sun Mar 12 2023 23:58:04 GMT-0400 (Eastern Daylight Time)","673724","Untrustworthy,Trustworthy","html-keyboard-response","215","378393","0.0-19.0-3.25","","","null","","<div class='trialDiv'><img src='trustrating_stim/white_00602_940928_fb_edt.bmp'><br><font class='baseline'><strong>Richard</strong><p>Received: <strong>8</strong></font> &nbsp; &nbsp; &nbsp; &nbsp; &nbsp; &nbsp;<font class='posOutcome'>Shared back: <strong>4</strong></font></font><div class='respPicDiv'><img src='img/responseButtonOffersNo0_wht.png' class='respPic'></div></div>","null","9","Richard","9","Shared","0.65,0.2","8","0.65","trustrating_stim/white_00602_940928_fb_edt.bmp","7.5","121","26"
"","","","decision","5bb94dea3ea7ed00017cb109","bdp_trlrn","Sun Mar 12 2023 23:58:04 GMT-0400 (Eastern Daylight Time)","673724","Untrustworthy,Trustworthy","html-keyboard-response","216","379944","0.0-19.0-1.26","","","1551","","<div class='trialDiv'><img src='trustrating_stim/white_mw063.bmp'><br><font class='baseline'><strong>Tyler</strong><p>Choose number of points to send.</font><div class='respPicDiv'><img src='img/responseButtonOffersNo0L.png' class='respPic'></div></div>","4","9","Tyler","4","Kept","0.65,0.35","9","0.65","trustrating_stim/white_mw063.bmp","5","126","27"
"","","","decisionFB","5bb94dea3ea7ed00017cb109","bdp_trlrn","Sun Mar 12 2023 23:58:04 GMT-0400 (Eastern Daylight Time)","673724","Untrustworthy,Trustworthy","html-keyboard-response","217","380198","0.0-19.0-2.26","","","null","","<div class='trialDiv'><img src='trustrating_stim/white_mw063.bmp'><br><font class='baseline'><strong>Tyler</strong><p>Choose number of points to send.</font><div class='respPicDiv'><img src='img/responseButtonOffersNo0L4.png' class='respPic'></div></div>","null","9","Tyler","4","Kept","0.65,0.35","9","0.65","trustrating_stim/white_mw063.bmp","5","122","27"
"","","","feedback","5bb94dea3ea7ed00017cb109","bdp_trlrn","Sun Mar 12 2023 23:58:04 GMT-0400 (Eastern Daylight Time)","673724","Untrustworthy,Trustworthy","html-keyboard-response","218","381201","0.0-19.0-3.26","","","null","","<div class='trialDiv'><img src='trustrating_stim/white_mw063.bmp'><br><font class='baseline'><strong>Tyler</strong><p>Received: <strong>16</strong></font> &nbsp; &nbsp; &nbsp; &nbsp; &nbsp; &nbsp;<font class='negOutcome'>Shared back: <strong>0</strong></font></font><div class='respPicDiv'><img src='img/responseButtonOffersNo0_wht.png' class='respPic'></div></div>","null","9","Tyler","4","Kept","0.65,0.35","9","0.65","trustrating_stim/white_mw063.bmp","5","122","27"
"","","","decision","5bb94dea3ea7ed00017cb109","bdp_trlrn","Sun Mar 12 2023 23:58:04 GMT-0400 (Eastern Daylight Time)","673724","Untrustworthy,Trustworthy","html-keyboard-response","219","382156","0.0-19.0-1.27","","","955","","<div class='trialDiv'><img src='trustrating_stim/white_00602_940928_fb_edt.bmp'><br><font class='baseline'><strong>Richard</strong><p>Choose number of points to send.</font><div class='respPicDiv'><img src='img/responseButtonOffersNo0L.png' class='respPic'></div></div>","4","10","Richard","9","Kept","0.65,0.2","8","0.65","trustrating_stim/white_00602_940928_fb_edt.bmp","7.5","127","28"
