"event","trial","time","trialtype","subject_id","task","startTime","totalTime","labels","trial_type","trial_index","time_elapsed","internal_node_id","view_history","rt","success","stimulus","key_press","aground","name","faceID","outcome","agenttype","agentswpt","agentcurrpshare","face","avgRating","point_total","round"
"focus","0","0","focusevent","640132934d00561d78518c4c","bdp_trlrn","Tue Mar 14 2023 13:34:34 GMT-0400 (Eastern Daylight Time)","723718","Untrustworthy,Trustworthy","","","","","","","","","","","","","","","","","","","",""
"","","","","640132934d00561d78518c4c","bdp_trlrn","Tue Mar 14 2023 13:34:34 GMT-0400 (Eastern Daylight Time)","723718","Untrustworthy,Trustworthy","pavlovia","0","2","0.0-0.0","","","","","","","","","","","","","","","",""
"","","","","640132934d00561d78518c4c","bdp_trlrn","Tue Mar 14 2023 13:34:34 GMT-0400 (Eastern Daylight Time)","723718","Untrustworthy,Trustworthy","instructions","1","4223","0.0-1.0","[{""page_index"":0,""viewing_time"":4221}]","4221","","","","","","","","","","","","","",""
"fullscreenexit","2","6772","fullscreenexit","640132934d00561d78518c4c","bdp_trlrn","Tue Mar 14 2023 13:34:34 GMT-0400 (Eastern Daylight Time)","723718","Untrustworthy,Trustworthy","","","","","","","","","","","","","","","","","","","",""
"","","","","640132934d00561d78518c4c","bdp_trlrn","Tue Mar 14 2023 13:34:34 GMT-0400 (Eastern Daylight Time)","723718","Untrustworthy,Trustworthy","fullscreen","2","7544","0.0-2.0","","","true","","","","","","","","","","","","",""
"","","","fullscreenfail","640132934d00561d78518c4c","bdp_trlrn","Tue Mar 14 2023 13:34:34 GMT-0400 (Eastern Daylight Time)","723718","Untrustworthy,Trustworthy","image-keyboard-response","3","10541","0.0-3.0-0.0","","2994","","","32","","","","","","","","","","",""
"","","","","640132934d00561d78518c4c","bdp_trlrn","Tue Mar 14 2023 13:34:34 GMT-0400 (Eastern Daylight Time)","723718","Untrustworthy,Trustworthy","instructions","4","22528","0.0-4.0","[{""page_index"":0,""viewing_time"":8904},{""page_index"":1,""viewing_time"":2824}]","11728","","","","","","","","","","","","","",""
"","","","","640132934d00561d78518c4c","bdp_trlrn","Tue Mar 14 2023 13:34:34 GMT-0400 (Eastern Daylight Time)","723718","Untrustworthy,Trustworthy","instructions","5","23611","0.0-5.0","[{""page_index"":0,""viewing_time"":1082}]","1082","","","","","","","","","","","","","",""
"","","","rating","640132934d00561d78518c4c","bdp_trlrn","Tue Mar 14 2023 13:34:34 GMT-0400 (Eastern Daylight Time)","723718","Untrustworthy,Trustworthy","image-keyboard-response","6","27350","0.0-6.0-1.0","","3635","","trustrating_stim/white_mw053.bmp","5","","","","","","","","","","",""
"","","","ratingFB","640132934d00561d78518c4c","bdp_trlrn","Tue Mar 14 2023 13:34:34 GMT-0400 (Eastern Daylight Time)","723718","Untrustworthy,Trustworthy","image-keyboard-response","7","27564","0.0-6.0-2.0","","null","","trustrating_stim/white_mw053.bmp","null","","","","","","","","","","",""
"","","","rating","640132934d00561d78518c4c","bdp_trlrn","Tue Mar 14 2023 13:34:34 GMT-0400 (Eastern Daylight Time)","723718","Untrustworthy,Trustworthy","image-keyboard-response","8","30443","0.0-6.0-1.1","","2769","","trustrating_stim/white_00109_931230_fa_edt.bmp","6","","","","","","","","","","",""
"","","","ratingFB","640132934d00561d78518c4c","bdp_trlrn","Tue Mar 14 2023 13:34:34 GMT-0400 (Eastern Daylight Time)","723718","Untrustworthy,Trustworthy","image-keyboard-response","9","30652","0.0-6.0-2.1","","null","","trustrating_stim/white_00109_931230_fa_edt.bmp","null","","","","","","","","","","",""
"","","","rating","640132934d00561d78518c4c","bdp_trlrn","Tue Mar 14 2023 13:34:34 GMT-0400 (Eastern Daylight Time)","723718","Untrustworthy,Trustworthy","image-keyboard-response","10","33180","0.0-6.0-1.2","","2420","","trustrating_stim/white_00223_940128_fb_edt.bmp","4","","","","","","","","","","",""
"","","","ratingFB","640132934d00561d78518c4c","bdp_trlrn","Tue Mar 14 2023 13:34:34 GMT-0400 (Eastern Daylight Time)","723718","Untrustworthy,Trustworthy","image-keyboard-response","11","33382","0.0-6.0-2.2","","null","","trustrating_stim/white_00223_940128_fb_edt.bmp","null","","","","","","","","","","",""
"","","","rating","640132934d00561d78518c4c","bdp_trlrn","Tue Mar 14 2023 13:34:34 GMT-0400 (Eastern Daylight Time)","723718","Untrustworthy,Trustworthy","image-keyboard-response","12","35002","0.0-6.0-1.3","","1512","","trustrating_stim/white_00761_941201_fb_edt.bmp","3","","","","","","","","","","",""
"","","","ratingFB","640132934d00561d78518c4c","bdp_trlrn","Tue Mar 14 2023 13:34:34 GMT-0400 (Eastern Daylight Time)","723718","Untrustworthy,Trustworthy","image-keyboard-response","13","35209","0.0-6.0-2.3","","null","","trustrating_stim/white_00761_941201_fb_edt.bmp","null","","","","","","","","","","",""
"","","","rating","640132934d00561d78518c4c","bdp_trlrn","Tue Mar 14 2023 13:34:34 GMT-0400 (Eastern Daylight Time)","723718","Untrustworthy,Trustworthy","image-keyboard-response","14","37507","0.0-6.0-1.4","","2189","","trustrating_stim/white_00340_940422_fa_edt.bmp","3","","","","","","","","","","",""
"","","","ratingFB","640132934d00561d78518c4c","bdp_trlrn","Tue Mar 14 2023 13:34:34 GMT-0400 (Eastern Daylight Time)","723718","Untrustworthy,Trustworthy","image-keyboard-response","15","37721","0.0-6.0-2.4","","null","","trustrating_stim/white_00340_940422_fa_edt.bmp","null","","","","","","","","","","",""
"","","","rating","640132934d00561d78518c4c","bdp_trlrn","Tue Mar 14 2023 13:34:34 GMT-0400 (Eastern Daylight Time)","723718","Untrustworthy,Trustworthy","image-keyboard-response","16","41138","0.0-6.0-1.5","","3307","","trustrating_stim/white_00602_940928_fb_edt.bmp","5","","","","","","","","","","",""
"","","","ratingFB","640132934d00561d78518c4c","bdp_trlrn","Tue Mar 14 2023 13:34:34 GMT-0400 (Eastern Daylight Time)","723718","Untrustworthy,Trustworthy","image-keyboard-response","17","41341","0.0-6.0-2.5","","null","","trustrating_stim/white_00602_940928_fb_edt.bmp","null","","","","","","","","","","",""
"","","","rating","640132934d00561d78518c4c","bdp_trlrn","Tue Mar 14 2023 13:34:34 GMT-0400 (Eastern Daylight Time)","723718","Untrustworthy,Trustworthy","image-keyboard-response","18","44874","0.0-6.0-1.6","","3425","","trustrating_stim/white_mw089.bmp","5","","","","","","","","","","",""
"","","","ratingFB","640132934d00561d78518c4c","bdp_trlrn","Tue Mar 14 2023 13:34:34 GMT-0400 (Eastern Daylight Time)","723718","Untrustworthy,Trustworthy","image-keyboard-response","19","45079","0.0-6.0-2.6","","null","","trustrating_stim/white_mw089.bmp","null","","","","","","","","","","",""
"","","","rating","640132934d00561d78518c4c","bdp_trlrn","Tue Mar 14 2023 13:34:34 GMT-0400 (Eastern Daylight Time)","723718","Untrustworthy,Trustworthy","image-keyboard-response","20","47669","0.0-6.0-1.7","","2480","","trustrating_stim/white_mw066.bmp","6","","","","","","","","","","",""
"","","","ratingFB","640132934d00561d78518c4c","bdp_trlrn","Tue Mar 14 2023 13:34:34 GMT-0400 (Eastern Daylight Time)","723718","Untrustworthy,Trustworthy","image-keyboard-response","21","47874","0.0-6.0-2.7","","null","","trustrating_stim/white_mw066.bmp","null","","","","","","","","","","",""
"","","","rating","640132934d00561d78518c4c","bdp_trlrn","Tue Mar 14 2023 13:34:34 GMT-0400 (Eastern Daylight Time)","723718","Untrustworthy,Trustworthy","image-keyboard-response","22","50081","0.0-6.0-1.8","","2099","","trustrating_stim/white_00898_960530_fa_edt.bmp","7","","","","","","","","","","",""
"","","","ratingFB","640132934d00561d78518c4c","bdp_trlrn","Tue Mar 14 2023 13:34:34 GMT-0400 (Eastern Daylight Time)","723718","Untrustworthy,Trustworthy","image-keyboard-response","23","50291","0.0-6.0-2.8","","null","","trustrating_stim/white_00898_960530_fa_edt.bmp","null","","","","","","","","","","",""
"","","","rating","640132934d00561d78518c4c","bdp_trlrn","Tue Mar 14 2023 13:34:34 GMT-0400 (Eastern Daylight Time)","723718","Untrustworthy,Trustworthy","image-keyboard-response","24","53068","0.0-6.0-1.9","","2667","","trustrating_stim/white_mw046.bmp","3","","","","","","","","","","",""
"","","","ratingFB","640132934d00561d78518c4c","bdp_trlrn","Tue Mar 14 2023 13:34:34 GMT-0400 (Eastern Daylight Time)","723718","Untrustworthy,Trustworthy","image-keyboard-response","25","53271","0.0-6.0-2.9","","null","","trustrating_stim/white_mw046.bmp","null","","","","","","","","","","",""
"","","","rating","640132934d00561d78518c4c","bdp_trlrn","Tue Mar 14 2023 13:34:34 GMT-0400 (Eastern Daylight Time)","723718","Untrustworthy,Trustworthy","image-keyboard-response","26","55132","0.0-6.0-1.10","","1751","","trustrating_stim/white_00577_940928_fa_edt.bmp","2","","","","","","","","","","",""
"","","","ratingFB","640132934d00561d78518c4c","bdp_trlrn","Tue Mar 14 2023 13:34:34 GMT-0400 (Eastern Daylight Time)","723718","Untrustworthy,Trustworthy","image-keyboard-response","27","55346","0.0-6.0-2.10","","null","","trustrating_stim/white_00577_940928_fa_edt.bmp","null","","","","","","","","","","",""
"","","","rating","640132934d00561d78518c4c","bdp_trlrn","Tue Mar 14 2023 13:34:34 GMT-0400 (Eastern Daylight Time)","723718","Untrustworthy,Trustworthy","image-keyboard-response","28","57877","0.0-6.0-1.11","","2423","","trustrating_stim/white_00807_941205_fb_edt.bmp","4","","","","","","","","","","",""
"","","","ratingFB","640132934d00561d78518c4c","bdp_trlrn","Tue Mar 14 2023 13:34:34 GMT-0400 (Eastern Daylight Time)","723718","Untrustworthy,Trustworthy","image-keyboard-response","29","58087","0.0-6.0-2.11","","null","","trustrating_stim/white_00807_941205_fb_edt.bmp","null","","","","","","","","","","",""
"","","","rating","640132934d00561d78518c4c","bdp_trlrn","Tue Mar 14 2023 13:34:34 GMT-0400 (Eastern Daylight Time)","723718","Untrustworthy,Trustworthy","image-keyboard-response","30","62567","0.0-6.0-1.12","","4372","","trustrating_stim/white_mw035.bmp","3","","","","","","","","","","",""
"","","","ratingFB","640132934d00561d78518c4c","bdp_trlrn","Tue Mar 14 2023 13:34:34 GMT-0400 (Eastern Daylight Time)","723718","Untrustworthy,Trustworthy","image-keyboard-response","31","62771","0.0-6.0-2.12","","null","","trustrating_stim/white_mw035.bmp","null","","","","","","","","","","",""
"","","","rating","640132934d00561d78518c4c","bdp_trlrn","Tue Mar 14 2023 13:34:34 GMT-0400 (Eastern Daylight Time)","723718","Untrustworthy,Trustworthy","image-keyboard-response","32","67628","0.0-6.0-1.13","","4747","","trustrating_stim/white_mw049.bmp","3","","","","","","","","","","",""
"","","","ratingFB","640132934d00561d78518c4c","bdp_trlrn","Tue Mar 14 2023 13:34:34 GMT-0400 (Eastern Daylight Time)","723718","Untrustworthy,Trustworthy","image-keyboard-response","33","67832","0.0-6.0-2.13","","null","","trustrating_stim/white_mw049.bmp","null","","","","","","","","","","",""
"","","","rating","640132934d00561d78518c4c","bdp_trlrn","Tue Mar 14 2023 13:34:34 GMT-0400 (Eastern Daylight Time)","723718","Untrustworthy,Trustworthy","image-keyboard-response","34","70315","0.0-6.0-1.14","","2373","","trustrating_stim/white_mw048.bmp","3","","","","","","","","","","",""
"","","","ratingFB","640132934d00561d78518c4c","bdp_trlrn","Tue Mar 14 2023 13:34:34 GMT-0400 (Eastern Daylight Time)","723718","Untrustworthy,Trustworthy","image-keyboard-response","35","70517","0.0-6.0-2.14","","null","","trustrating_stim/white_mw048.bmp","null","","","","","","","","","","",""
"","","","rating","640132934d00561d78518c4c","bdp_trlrn","Tue Mar 14 2023 13:34:34 GMT-0400 (Eastern Daylight Time)","723718","Untrustworthy,Trustworthy","image-keyboard-response","36","72158","0.0-6.0-1.15","","1532","","trustrating_stim/white_mw033.bmp","6","","","","","","","","","","",""
"","","","ratingFB","640132934d00561d78518c4c","bdp_trlrn","Tue Mar 14 2023 13:34:34 GMT-0400 (Eastern Daylight Time)","723718","Untrustworthy,Trustworthy","image-keyboard-response","37","72365","0.0-6.0-2.15","","null","","trustrating_stim/white_mw033.bmp","null","","","","","","","","","","",""
"","","","rating","640132934d00561d78518c4c","bdp_trlrn","Tue Mar 14 2023 13:34:34 GMT-0400 (Eastern Daylight Time)","723718","Untrustworthy,Trustworthy","image-keyboard-response","38","75126","0.0-6.0-1.16","","2652","","trustrating_stim/white_00519_940519_fb_edt.bmp","4","","","","","","","","","","",""
"","","","ratingFB","640132934d00561d78518c4c","bdp_trlrn","Tue Mar 14 2023 13:34:34 GMT-0400 (Eastern Daylight Time)","723718","Untrustworthy,Trustworthy","image-keyboard-response","39","75342","0.0-6.0-2.16","","null","","trustrating_stim/white_00519_940519_fb_edt.bmp","null","","","","","","","","","","",""
"","","","rating","640132934d00561d78518c4c","bdp_trlrn","Tue Mar 14 2023 13:34:34 GMT-0400 (Eastern Daylight Time)","723718","Untrustworthy,Trustworthy","image-keyboard-response","40","77868","0.0-6.0-1.17","","2418","","trustrating_stim/white_00785_941205_fb_edt.bmp","1","","","","","","","","","","",""
"","","","ratingFB","640132934d00561d78518c4c","bdp_trlrn","Tue Mar 14 2023 13:34:34 GMT-0400 (Eastern Daylight Time)","723718","Untrustworthy,Trustworthy","image-keyboard-response","41","78076","0.0-6.0-2.17","","null","","trustrating_stim/white_00785_941205_fb_edt.bmp","null","","","","","","","","","","",""
"","","","rating","640132934d00561d78518c4c","bdp_trlrn","Tue Mar 14 2023 13:34:34 GMT-0400 (Eastern Daylight Time)","723718","Untrustworthy,Trustworthy","image-keyboard-response","42","83190","0.0-6.0-1.18","","5004","","trustrating_stim/white_00129_931230_fb_edt.bmp","5","","","","","","","","","","",""
"","","","ratingFB","640132934d00561d78518c4c","bdp_trlrn","Tue Mar 14 2023 13:34:34 GMT-0400 (Eastern Daylight Time)","723718","Untrustworthy,Trustworthy","image-keyboard-response","43","83402","0.0-6.0-2.18","","null","","trustrating_stim/white_00129_931230_fb_edt.bmp","null","","","","","","","","","","",""
"","","","rating","640132934d00561d78518c4c","bdp_trlrn","Tue Mar 14 2023 13:34:34 GMT-0400 (Eastern Daylight Time)","723718","Untrustworthy,Trustworthy","image-keyboard-response","44","86479","0.0-6.0-1.19","","2970","","trustrating_stim/white_mw056.bmp","4","","","","","","","","","","",""
"","","","ratingFB","640132934d00561d78518c4c","bdp_trlrn","Tue Mar 14 2023 13:34:34 GMT-0400 (Eastern Daylight Time)","723718","Untrustworthy,Trustworthy","image-keyboard-response","45","86683","0.0-6.0-2.19","","null","","trustrating_stim/white_mw056.bmp","null","","","","","","","","","","",""
"","","","rating","640132934d00561d78518c4c","bdp_trlrn","Tue Mar 14 2023 13:34:34 GMT-0400 (Eastern Daylight Time)","723718","Untrustworthy,Trustworthy","image-keyboard-response","46","88146","0.0-6.0-1.20","","1355","","trustrating_stim/white_00299_940422_fa_edt.bmp","5","","","","","","","","","","",""
"","","","ratingFB","640132934d00561d78518c4c","bdp_trlrn","Tue Mar 14 2023 13:34:34 GMT-0400 (Eastern Daylight Time)","723718","Untrustworthy,Trustworthy","image-keyboard-response","47","88357","0.0-6.0-2.20","","null","","trustrating_stim/white_00299_940422_fa_edt.bmp","null","","","","","","","","","","",""
"","","","rating","640132934d00561d78518c4c","bdp_trlrn","Tue Mar 14 2023 13:34:34 GMT-0400 (Eastern Daylight Time)","723718","Untrustworthy,Trustworthy","image-keyboard-response","48","90516","0.0-6.0-1.21","","2051","","trustrating_stim/white_mw099.bmp","5","","","","","","","","","","",""
"","","","ratingFB","640132934d00561d78518c4c","bdp_trlrn","Tue Mar 14 2023 13:34:34 GMT-0400 (Eastern Daylight Time)","723718","Untrustworthy,Trustworthy","image-keyboard-response","49","90723","0.0-6.0-2.21","","null","","trustrating_stim/white_mw099.bmp","null","","","","","","","","","","",""
"","","","rating","640132934d00561d78518c4c","bdp_trlrn","Tue Mar 14 2023 13:34:34 GMT-0400 (Eastern Daylight Time)","723718","Untrustworthy,Trustworthy","image-keyboard-response","50","95254","0.0-6.0-1.22","","4422","","trustrating_stim/white_mw063.bmp","3","","","","","","","","","","",""
"","","","ratingFB","640132934d00561d78518c4c","bdp_trlrn","Tue Mar 14 2023 13:34:34 GMT-0400 (Eastern Daylight Time)","723718","Untrustworthy,Trustworthy","image-keyboard-response","51","95463","0.0-6.0-2.22","","null","","trustrating_stim/white_mw063.bmp","null","","","","","","","","","","",""
"","","","rating","640132934d00561d78518c4c","bdp_trlrn","Tue Mar 14 2023 13:34:34 GMT-0400 (Eastern Daylight Time)","723718","Untrustworthy,Trustworthy","image-keyboard-response","52","97118","0.0-6.0-1.23","","1546","","trustrating_stim/white_00757_941201_fa_edt.bmp","2","","","","","","","","","","",""
"","","","ratingFB","640132934d00561d78518c4c","bdp_trlrn","Tue Mar 14 2023 13:34:34 GMT-0400 (Eastern Daylight Time)","723718","Untrustworthy,Trustworthy","image-keyboard-response","53","97334","0.0-6.0-2.23","","null","","trustrating_stim/white_00757_941201_fa_edt.bmp","null","","","","","","","","","","",""
"","","","rating","640132934d00561d78518c4c","bdp_trlrn","Tue Mar 14 2023 13:34:34 GMT-0400 (Eastern Daylight Time)","723718","Untrustworthy,Trustworthy","image-keyboard-response","54","99994","0.0-6.0-1.24","","2551","","trustrating_stim/white_mw071.bmp","5","","","","","","","","","","",""
"","","","ratingFB","640132934d00561d78518c4c","bdp_trlrn","Tue Mar 14 2023 13:34:34 GMT-0400 (Eastern Daylight Time)","723718","Untrustworthy,Trustworthy","image-keyboard-response","55","100201","0.0-6.0-2.24","","null","","trustrating_stim/white_mw071.bmp","null","","","","","","","","","","",""
"","","","rating","640132934d00561d78518c4c","bdp_trlrn","Tue Mar 14 2023 13:34:34 GMT-0400 (Eastern Daylight Time)","723718","Untrustworthy,Trustworthy","image-keyboard-response","56","102981","0.0-6.0-1.25","","2671","","trustrating_stim/white_mw060.bmp","6","","","","","","","","","","",""
"","","","ratingFB","640132934d00561d78518c4c","bdp_trlrn","Tue Mar 14 2023 13:34:34 GMT-0400 (Eastern Daylight Time)","723718","Untrustworthy,Trustworthy","image-keyboard-response","57","103190","0.0-6.0-2.25","","null","","trustrating_stim/white_mw060.bmp","null","","","","","","","","","","",""
"","","","rating","640132934d00561d78518c4c","bdp_trlrn","Tue Mar 14 2023 13:34:34 GMT-0400 (Eastern Daylight Time)","723718","Untrustworthy,Trustworthy","image-keyboard-response","58","106302","0.0-6.0-1.26","","3003","","trustrating_stim/white_00120_931230_fa_edt.bmp","6","","","","","","","","","","",""
"","","","ratingFB","640132934d00561d78518c4c","bdp_trlrn","Tue Mar 14 2023 13:34:34 GMT-0400 (Eastern Daylight Time)","723718","Untrustworthy,Trustworthy","image-keyboard-response","59","106517","0.0-6.0-2.26","","null","","trustrating_stim/white_00120_931230_fa_edt.bmp","null","","","","","","","","","","",""
"","","","rating","640132934d00561d78518c4c","bdp_trlrn","Tue Mar 14 2023 13:34:34 GMT-0400 (Eastern Daylight Time)","723718","Untrustworthy,Trustworthy","image-keyboard-response","60","108496","0.0-6.0-1.27","","1870","","trustrating_stim/white_mw097.bmp","2","","","","","","","","","","",""
"","","","ratingFB","640132934d00561d78518c4c","bdp_trlrn","Tue Mar 14 2023 13:34:34 GMT-0400 (Eastern Daylight Time)","723718","Untrustworthy,Trustworthy","image-keyboard-response","61","108702","0.0-6.0-2.27","","null","","trustrating_stim/white_mw097.bmp","null","","","","","","","","","","",""
"","","","rating","640132934d00561d78518c4c","bdp_trlrn","Tue Mar 14 2023 13:34:34 GMT-0400 (Eastern Daylight Time)","723718","Untrustworthy,Trustworthy","image-keyboard-response","62","111798","0.0-6.0-1.28","","2989","","trustrating_stim/white_mw084.bmp","5","","","","","","","","","","",""
"","","","ratingFB","640132934d00561d78518c4c","bdp_trlrn","Tue Mar 14 2023 13:34:34 GMT-0400 (Eastern Daylight Time)","723718","Untrustworthy,Trustworthy","image-keyboard-response","63","112010","0.0-6.0-2.28","","null","","trustrating_stim/white_mw084.bmp","null","","","","","","","","","","",""
"","","","rating","640132934d00561d78518c4c","bdp_trlrn","Tue Mar 14 2023 13:34:34 GMT-0400 (Eastern Daylight Time)","723718","Untrustworthy,Trustworthy","image-keyboard-response","64","115255","0.0-6.0-1.29","","3135","","trustrating_stim/white_00659_941121_fa_edt.bmp","4","","","","","","","","","","",""
"","","","ratingFB","640132934d00561d78518c4c","bdp_trlrn","Tue Mar 14 2023 13:34:34 GMT-0400 (Eastern Daylight Time)","723718","Untrustworthy,Trustworthy","image-keyboard-response","65","115460","0.0-6.0-2.29","","null","","trustrating_stim/white_00659_941121_fa_edt.bmp","null","","","","","","","","","","",""
"","","","rating","640132934d00561d78518c4c","bdp_trlrn","Tue Mar 14 2023 13:34:34 GMT-0400 (Eastern Daylight Time)","723718","Untrustworthy,Trustworthy","image-keyboard-response","66","118070","0.0-6.0-1.30","","2500","","trustrating_stim/white_00898_960530_fa_edt.bmp","6","","","","","","","","","","",""
"","","","ratingFB","640132934d00561d78518c4c","bdp_trlrn","Tue Mar 14 2023 13:34:34 GMT-0400 (Eastern Daylight Time)","723718","Untrustworthy,Trustworthy","image-keyboard-response","67","118284","0.0-6.0-2.30","","null","","trustrating_stim/white_00898_960530_fa_edt.bmp","null","","","","","","","","","","",""
"","","","rating","640132934d00561d78518c4c","bdp_trlrn","Tue Mar 14 2023 13:34:34 GMT-0400 (Eastern Daylight Time)","723718","Untrustworthy,Trustworthy","image-keyboard-response","68","125682","0.0-6.0-1.31","","7289","","trustrating_stim/white_mw033.bmp","5","","","","","","","","","","",""
"","","","ratingFB","640132934d00561d78518c4c","bdp_trlrn","Tue Mar 14 2023 13:34:34 GMT-0400 (Eastern Daylight Time)","723718","Untrustworthy,Trustworthy","image-keyboard-response","69","125892","0.0-6.0-2.31","","null","","trustrating_stim/white_mw033.bmp","null","","","","","","","","","","",""
"","","","rating","640132934d00561d78518c4c","bdp_trlrn","Tue Mar 14 2023 13:34:34 GMT-0400 (Eastern Daylight Time)","723718","Untrustworthy,Trustworthy","image-keyboard-response","70","131926","0.0-6.0-1.32","","5925","","trustrating_stim/white_mw046.bmp","4","","","","","","","","","","",""
"","","","ratingFB","640132934d00561d78518c4c","bdp_trlrn","Tue Mar 14 2023 13:34:34 GMT-0400 (Eastern Daylight Time)","723718","Untrustworthy,Trustworthy","image-keyboard-response","71","132133","0.0-6.0-2.32","","null","","trustrating_stim/white_mw046.bmp","null","","","","","","","","","","",""
"","","","rating","640132934d00561d78518c4c","bdp_trlrn","Tue Mar 14 2023 13:34:34 GMT-0400 (Eastern Daylight Time)","723718","Untrustworthy,Trustworthy","image-keyboard-response","72","133578","0.0-6.0-1.33","","1335","","trustrating_stim/white_00340_940422_fa_edt.bmp","3","","","","","","","","","","",""
"","","","ratingFB","640132934d00561d78518c4c","bdp_trlrn","Tue Mar 14 2023 13:34:34 GMT-0400 (Eastern Daylight Time)","723718","Untrustworthy,Trustworthy","image-keyboard-response","73","133779","0.0-6.0-2.33","","null","","trustrating_stim/white_00340_940422_fa_edt.bmp","null","","","","","","","","","","",""
"","","","rating","640132934d00561d78518c4c","bdp_trlrn","Tue Mar 14 2023 13:34:34 GMT-0400 (Eastern Daylight Time)","723718","Untrustworthy,Trustworthy","image-keyboard-response","74","136335","0.0-6.0-1.34","","2447","","trustrating_stim/white_mw099.bmp","5","","","","","","","","","","",""
"","","","ratingFB","640132934d00561d78518c4c","bdp_trlrn","Tue Mar 14 2023 13:34:34 GMT-0400 (Eastern Daylight Time)","723718","Untrustworthy,Trustworthy","image-keyboard-response","75","136549","0.0-6.0-2.34","","null","","trustrating_stim/white_mw099.bmp","null","","","","","","","","","","",""
"","","","rating","640132934d00561d78518c4c","bdp_trlrn","Tue Mar 14 2023 13:34:34 GMT-0400 (Eastern Daylight Time)","723718","Untrustworthy,Trustworthy","image-keyboard-response","76","141652","0.0-6.0-1.35","","4995","","trustrating_stim/white_00109_931230_fa_edt.bmp","3","","","","","","","","","","",""
"","","","ratingFB","640132934d00561d78518c4c","bdp_trlrn","Tue Mar 14 2023 13:34:34 GMT-0400 (Eastern Daylight Time)","723718","Untrustworthy,Trustworthy","image-keyboard-response","77","141869","0.0-6.0-2.35","","null","","trustrating_stim/white_00109_931230_fa_edt.bmp","null","","","","","","","","","","",""
"","","","rating","640132934d00561d78518c4c","bdp_trlrn","Tue Mar 14 2023 13:34:34 GMT-0400 (Eastern Daylight Time)","723718","Untrustworthy,Trustworthy","image-keyboard-response","78","143590","0.0-6.0-1.36","","1613","","trustrating_stim/white_mw048.bmp","3","","","","","","","","","","",""
"","","","ratingFB","640132934d00561d78518c4c","bdp_trlrn","Tue Mar 14 2023 13:34:34 GMT-0400 (Eastern Daylight Time)","723718","Untrustworthy,Trustworthy","image-keyboard-response","79","143792","0.0-6.0-2.36","","null","","trustrating_stim/white_mw048.bmp","null","","","","","","","","","","",""
"","","","rating","640132934d00561d78518c4c","bdp_trlrn","Tue Mar 14 2023 13:34:34 GMT-0400 (Eastern Daylight Time)","723718","Untrustworthy,Trustworthy","image-keyboard-response","80","145937","0.0-6.0-1.37","","2035","","trustrating_stim/white_00757_941201_fa_edt.bmp","4","","","","","","","","","","",""
"","","","ratingFB","640132934d00561d78518c4c","bdp_trlrn","Tue Mar 14 2023 13:34:34 GMT-0400 (Eastern Daylight Time)","723718","Untrustworthy,Trustworthy","image-keyboard-response","81","146138","0.0-6.0-2.37","","null","","trustrating_stim/white_00757_941201_fa_edt.bmp","null","","","","","","","","","","",""
"","","","rating","640132934d00561d78518c4c","bdp_trlrn","Tue Mar 14 2023 13:34:34 GMT-0400 (Eastern Daylight Time)","723718","Untrustworthy,Trustworthy","image-keyboard-response","82","147558","0.0-6.0-1.38","","1310","","trustrating_stim/white_mw097.bmp","1","","","","","","","","","","",""
"","","","ratingFB","640132934d00561d78518c4c","bdp_trlrn","Tue Mar 14 2023 13:34:34 GMT-0400 (Eastern Daylight Time)","723718","Untrustworthy,Trustworthy","image-keyboard-response","83","147766","0.0-6.0-2.38","","null","","trustrating_stim/white_mw097.bmp","null","","","","","","","","","","",""
"","","","rating","640132934d00561d78518c4c","bdp_trlrn","Tue Mar 14 2023 13:34:34 GMT-0400 (Eastern Daylight Time)","723718","Untrustworthy,Trustworthy","image-keyboard-response","84","152430","0.0-6.0-1.39","","4555","","trustrating_stim/white_00223_940128_fb_edt.bmp","3","","","","","","","","","","",""
"","","","ratingFB","640132934d00561d78518c4c","bdp_trlrn","Tue Mar 14 2023 13:34:34 GMT-0400 (Eastern Daylight Time)","723718","Untrustworthy,Trustworthy","image-keyboard-response","85","152632","0.0-6.0-2.39","","null","","trustrating_stim/white_00223_940128_fb_edt.bmp","null","","","","","","","","","","",""
"","","","rating","640132934d00561d78518c4c","bdp_trlrn","Tue Mar 14 2023 13:34:34 GMT-0400 (Eastern Daylight Time)","723718","Untrustworthy,Trustworthy","image-keyboard-response","86","155947","0.0-6.0-1.40","","3207","","trustrating_stim/white_mw066.bmp","6","","","","","","","","","","",""
"","","","ratingFB","640132934d00561d78518c4c","bdp_trlrn","Tue Mar 14 2023 13:34:34 GMT-0400 (Eastern Daylight Time)","723718","Untrustworthy,Trustworthy","image-keyboard-response","87","156149","0.0-6.0-2.40","","null","","trustrating_stim/white_mw066.bmp","null","","","","","","","","","","",""
"","","","rating","640132934d00561d78518c4c","bdp_trlrn","Tue Mar 14 2023 13:34:34 GMT-0400 (Eastern Daylight Time)","723718","Untrustworthy,Trustworthy","image-keyboard-response","88","158377","0.0-6.0-1.41","","2118","","trustrating_stim/white_mw063.bmp","5","","","","","","","","","","",""
"","","","ratingFB","640132934d00561d78518c4c","bdp_trlrn","Tue Mar 14 2023 13:34:34 GMT-0400 (Eastern Daylight Time)","723718","Untrustworthy,Trustworthy","image-keyboard-response","89","158583","0.0-6.0-2.41","","null","","trustrating_stim/white_mw063.bmp","null","","","","","","","","","","",""
"","","","rating","640132934d00561d78518c4c","bdp_trlrn","Tue Mar 14 2023 13:34:34 GMT-0400 (Eastern Daylight Time)","723718","Untrustworthy,Trustworthy","image-keyboard-response","90","160621","0.0-6.0-1.42","","1928","","trustrating_stim/white_00807_941205_fb_edt.bmp","3","","","","","","","","","","",""
"","","","ratingFB","640132934d00561d78518c4c","bdp_trlrn","Tue Mar 14 2023 13:34:34 GMT-0400 (Eastern Daylight Time)","723718","Untrustworthy,Trustworthy","image-keyboard-response","91","160835","0.0-6.0-2.42","","null","","trustrating_stim/white_00807_941205_fb_edt.bmp","null","","","","","","","","","","",""
"","","","rating","640132934d00561d78518c4c","bdp_trlrn","Tue Mar 14 2023 13:34:34 GMT-0400 (Eastern Daylight Time)","723718","Untrustworthy,Trustworthy","image-keyboard-response","92","161928","0.0-6.0-1.43","","984","","trustrating_stim/white_00519_940519_fb_edt.bmp","1","","","","","","","","","","",""
"","","","ratingFB","640132934d00561d78518c4c","bdp_trlrn","Tue Mar 14 2023 13:34:34 GMT-0400 (Eastern Daylight Time)","723718","Untrustworthy,Trustworthy","image-keyboard-response","93","162135","0.0-6.0-2.43","","null","","trustrating_stim/white_00519_940519_fb_edt.bmp","null","","","","","","","","","","",""
"","","","rating","640132934d00561d78518c4c","bdp_trlrn","Tue Mar 14 2023 13:34:34 GMT-0400 (Eastern Daylight Time)","723718","Untrustworthy,Trustworthy","image-keyboard-response","94","168764","0.0-6.0-1.44","","6519","","trustrating_stim/white_mw053.bmp","6","","","","","","","","","","",""
"","","","ratingFB","640132934d00561d78518c4c","bdp_trlrn","Tue Mar 14 2023 13:34:34 GMT-0400 (Eastern Daylight Time)","723718","Untrustworthy,Trustworthy","image-keyboard-response","95","168969","0.0-6.0-2.44","","null","","trustrating_stim/white_mw053.bmp","null","","","","","","","","","","",""
"","","","rating","640132934d00561d78518c4c","bdp_trlrn","Tue Mar 14 2023 13:34:34 GMT-0400 (Eastern Daylight Time)","723718","Untrustworthy,Trustworthy","image-keyboard-response","96","172434","0.0-6.0-1.45","","3356","","trustrating_stim/white_00577_940928_fa_edt.bmp","5","","","","","","","","","","",""
"","","","ratingFB","640132934d00561d78518c4c","bdp_trlrn","Tue Mar 14 2023 13:34:34 GMT-0400 (Eastern Daylight Time)","723718","Untrustworthy,Trustworthy","image-keyboard-response","97","172635","0.0-6.0-2.45","","null","","trustrating_stim/white_00577_940928_fa_edt.bmp","null","","","","","","","","","","",""
"","","","rating","640132934d00561d78518c4c","bdp_trlrn","Tue Mar 14 2023 13:34:34 GMT-0400 (Eastern Daylight Time)","723718","Untrustworthy,Trustworthy","image-keyboard-response","98","173940","0.0-6.0-1.46","","1196","","trustrating_stim/white_mw060.bmp","6","","","","","","","","","","",""
"","","","ratingFB","640132934d00561d78518c4c","bdp_trlrn","Tue Mar 14 2023 13:34:34 GMT-0400 (Eastern Daylight Time)","723718","Untrustworthy,Trustworthy","image-keyboard-response","99","174141","0.0-6.0-2.46","","null","","trustrating_stim/white_mw060.bmp","null","","","","","","","","","","",""
"","","","rating","640132934d00561d78518c4c","bdp_trlrn","Tue Mar 14 2023 13:34:34 GMT-0400 (Eastern Daylight Time)","723718","Untrustworthy,Trustworthy","image-keyboard-response","100","175922","0.0-6.0-1.47","","1672","","trustrating_stim/white_mw089.bmp","5","","","","","","","","","","",""
"","","","ratingFB","640132934d00561d78518c4c","bdp_trlrn","Tue Mar 14 2023 13:34:34 GMT-0400 (Eastern Daylight Time)","723718","Untrustworthy,Trustworthy","image-keyboard-response","101","176126","0.0-6.0-2.47","","null","","trustrating_stim/white_mw089.bmp","null","","","","","","","","","","",""
"","","","rating","640132934d00561d78518c4c","bdp_trlrn","Tue Mar 14 2023 13:34:34 GMT-0400 (Eastern Daylight Time)","723718","Untrustworthy,Trustworthy","image-keyboard-response","102","177556","0.0-6.0-1.48","","1322","","trustrating_stim/white_00120_931230_fa_edt.bmp","7","","","","","","","","","","",""
"","","","ratingFB","640132934d00561d78518c4c","bdp_trlrn","Tue Mar 14 2023 13:34:34 GMT-0400 (Eastern Daylight Time)","723718","Untrustworthy,Trustworthy","image-keyboard-response","103","177770","0.0-6.0-2.48","","null","","trustrating_stim/white_00120_931230_fa_edt.bmp","null","","","","","","","","","","",""
"","","","rating","640132934d00561d78518c4c","bdp_trlrn","Tue Mar 14 2023 13:34:34 GMT-0400 (Eastern Daylight Time)","723718","Untrustworthy,Trustworthy","image-keyboard-response","104","182551","0.0-6.0-1.49","","4673","","trustrating_stim/white_00659_941121_fa_edt.bmp","3","","","","","","","","","","",""
"","","","ratingFB","640132934d00561d78518c4c","bdp_trlrn","Tue Mar 14 2023 13:34:34 GMT-0400 (Eastern Daylight Time)","723718","Untrustworthy,Trustworthy","image-keyboard-response","105","182764","0.0-6.0-2.49","","null","","trustrating_stim/white_00659_941121_fa_edt.bmp","null","","","","","","","","","","",""
"","","","rating","640132934d00561d78518c4c","bdp_trlrn","Tue Mar 14 2023 13:34:34 GMT-0400 (Eastern Daylight Time)","723718","Untrustworthy,Trustworthy","image-keyboard-response","106","184645","0.0-6.0-1.50","","1773","","trustrating_stim/white_mw071.bmp","5","","","","","","","","","","",""
"","","","ratingFB","640132934d00561d78518c4c","bdp_trlrn","Tue Mar 14 2023 13:34:34 GMT-0400 (Eastern Daylight Time)","723718","Untrustworthy,Trustworthy","image-keyboard-response","107","184857","0.0-6.0-2.50","","null","","trustrating_stim/white_mw071.bmp","null","","","","","","","","","","",""
"","","","rating","640132934d00561d78518c4c","bdp_trlrn","Tue Mar 14 2023 13:34:34 GMT-0400 (Eastern Daylight Time)","723718","Untrustworthy,Trustworthy","image-keyboard-response","108","186424","0.0-6.0-1.51","","1458","","trustrating_stim/white_mw035.bmp","4","","","","","","","","","","",""
"","","","ratingFB","640132934d00561d78518c4c","bdp_trlrn","Tue Mar 14 2023 13:34:34 GMT-0400 (Eastern Daylight Time)","723718","Untrustworthy,Trustworthy","image-keyboard-response","109","186638","0.0-6.0-2.51","","null","","trustrating_stim/white_mw035.bmp","null","","","","","","","","","","",""
"","","","rating","640132934d00561d78518c4c","bdp_trlrn","Tue Mar 14 2023 13:34:34 GMT-0400 (Eastern Daylight Time)","723718","Untrustworthy,Trustworthy","image-keyboard-response","110","188145","0.0-6.0-1.52","","1398","","trustrating_stim/white_00761_941201_fb_edt.bmp","3","","","","","","","","","","",""
"","","","ratingFB","640132934d00561d78518c4c","bdp_trlrn","Tue Mar 14 2023 13:34:34 GMT-0400 (Eastern Daylight Time)","723718","Untrustworthy,Trustworthy","image-keyboard-response","111","188356","0.0-6.0-2.52","","null","","trustrating_stim/white_00761_941201_fb_edt.bmp","null","","","","","","","","","","",""
"","","","rating","640132934d00561d78518c4c","bdp_trlrn","Tue Mar 14 2023 13:34:34 GMT-0400 (Eastern Daylight Time)","723718","Untrustworthy,Trustworthy","image-keyboard-response","112","190362","0.0-6.0-1.53","","1897","","trustrating_stim/white_00129_931230_fb_edt.bmp","5","","","","","","","","","","",""
"","","","ratingFB","640132934d00561d78518c4c","bdp_trlrn","Tue Mar 14 2023 13:34:34 GMT-0400 (Eastern Daylight Time)","723718","Untrustworthy,Trustworthy","image-keyboard-response","113","190575","0.0-6.0-2.53","","null","","trustrating_stim/white_00129_931230_fb_edt.bmp","null","","","","","","","","","","",""
"","","","rating","640132934d00561d78518c4c","bdp_trlrn","Tue Mar 14 2023 13:34:34 GMT-0400 (Eastern Daylight Time)","723718","Untrustworthy,Trustworthy","image-keyboard-response","114","192051","0.0-6.0-1.54","","1367","","trustrating_stim/white_mw056.bmp","4","","","","","","","","","","",""
"","","","ratingFB","640132934d00561d78518c4c","bdp_trlrn","Tue Mar 14 2023 13:34:34 GMT-0400 (Eastern Daylight Time)","723718","Untrustworthy,Trustworthy","image-keyboard-response","115","192256","0.0-6.0-2.54","","null","","trustrating_stim/white_mw056.bmp","null","","","","","","","","","","",""
"","","","rating","640132934d00561d78518c4c","bdp_trlrn","Tue Mar 14 2023 13:34:34 GMT-0400 (Eastern Daylight Time)","723718","Untrustworthy,Trustworthy","image-keyboard-response","116","193605","0.0-6.0-1.55","","1241","","trustrating_stim/white_00785_941205_fb_edt.bmp","2","","","","","","","","","","",""
"","","","ratingFB","640132934d00561d78518c4c","bdp_trlrn","Tue Mar 14 2023 13:34:34 GMT-0400 (Eastern Daylight Time)","723718","Untrustworthy,Trustworthy","image-keyboard-response","117","193817","0.0-6.0-2.55","","null","","trustrating_stim/white_00785_941205_fb_edt.bmp","null","","","","","","","","","","",""
"","","","rating","640132934d00561d78518c4c","bdp_trlrn","Tue Mar 14 2023 13:34:34 GMT-0400 (Eastern Daylight Time)","723718","Untrustworthy,Trustworthy","image-keyboard-response","118","197052","0.0-6.0-1.56","","3124","","trustrating_stim/white_00602_940928_fb_edt.bmp","6","","","","","","","","","","",""
"","","","ratingFB","640132934d00561d78518c4c","bdp_trlrn","Tue Mar 14 2023 13:34:34 GMT-0400 (Eastern Daylight Time)","723718","Untrustworthy,Trustworthy","image-keyboard-response","119","197260","0.0-6.0-2.56","","null","","trustrating_stim/white_00602_940928_fb_edt.bmp","null","","","","","","","","","","",""
"","","","rating","640132934d00561d78518c4c","bdp_trlrn","Tue Mar 14 2023 13:34:34 GMT-0400 (Eastern Daylight Time)","723718","Untrustworthy,Trustworthy","image-keyboard-response","120","199319","0.0-6.0-1.57","","1951","","trustrating_stim/white_00299_940422_fa_edt.bmp","5","","","","","","","","","","",""
"","","","ratingFB","640132934d00561d78518c4c","bdp_trlrn","Tue Mar 14 2023 13:34:34 GMT-0400 (Eastern Daylight Time)","723718","Untrustworthy,Trustworthy","image-keyboard-response","121","199522","0.0-6.0-2.57","","null","","trustrating_stim/white_00299_940422_fa_edt.bmp","null","","","","","","","","","","",""
"","","","rating","640132934d00561d78518c4c","bdp_trlrn","Tue Mar 14 2023 13:34:34 GMT-0400 (Eastern Daylight Time)","723718","Untrustworthy,Trustworthy","image-keyboard-response","122","201207","0.0-6.0-1.58","","1575","","trustrating_stim/white_mw049.bmp","6","","","","","","","","","","",""
"","","","ratingFB","640132934d00561d78518c4c","bdp_trlrn","Tue Mar 14 2023 13:34:34 GMT-0400 (Eastern Daylight Time)","723718","Untrustworthy,Trustworthy","image-keyboard-response","123","201415","0.0-6.0-2.58","","null","","trustrating_stim/white_mw049.bmp","null","","","","","","","","","","",""
"","","","rating","640132934d00561d78518c4c","bdp_trlrn","Tue Mar 14 2023 13:34:34 GMT-0400 (Eastern Daylight Time)","723718","Untrustworthy,Trustworthy","image-keyboard-response","124","204517","0.0-6.0-1.59","","2992","","trustrating_stim/white_mw084.bmp","4","","","","","","","","","","",""
"","","","ratingFB","640132934d00561d78518c4c","bdp_trlrn","Tue Mar 14 2023 13:34:34 GMT-0400 (Eastern Daylight Time)","723718","Untrustworthy,Trustworthy","image-keyboard-response","125","204721","0.0-6.0-2.59","","null","","trustrating_stim/white_mw084.bmp","null","","","","","","","","","","",""
"","","","","640132934d00561d78518c4c","bdp_trlrn","Tue Mar 14 2023 13:34:34 GMT-0400 (Eastern Daylight Time)","723718","Untrustworthy,Trustworthy","instructions","126","206797","0.0-7.0","[{""page_index"":0,""viewing_time"":1968}]","1968","","","","","","","","","","","","","",""
"","","","","640132934d00561d78518c4c","bdp_trlrn","Tue Mar 14 2023 13:34:34 GMT-0400 (Eastern Daylight Time)","723718","Untrustworthy,Trustworthy","instructions","127","282921","0.0-8.0","[{""page_index"":0,""viewing_time"":18131},{""page_index"":1,""viewing_time"":14168},{""page_index"":2,""viewing_time"":13260},{""page_index"":3,""viewing_time"":11943},{""page_index"":4,""viewing_time"":4876},{""page_index"":5,""viewing_time"":5701},{""page_index"":6,""viewing_time"":4491},{""page_index"":7,""viewing_time"":3452}]","76022","","","","","","","","","","","","","",""
"","","","","640132934d00561d78518c4c","bdp_trlrn","Tue Mar 14 2023 13:34:34 GMT-0400 (Eastern Daylight Time)","723718","Untrustworthy,Trustworthy","html-keyboard-response","128","287286","0.0-9.0","","4364","","<div class='header' style='text-align:left; position: absolute; top: 5%; left: 5%;'><small>Task 3 of 5</small></div><div class='instruxDiv'><p><strong>1) What is the minimum number of points you can choose to send to your partner?</strong></p><p>a) 0</p><p>b) 1</p><p>c) 5</p>","C","","","","","","","","","","",""
"","","","","640132934d00561d78518c4c","bdp_trlrn","Tue Mar 14 2023 13:34:34 GMT-0400 (Eastern Daylight Time)","723718","Untrustworthy,Trustworthy","html-keyboard-response","129","292046","0.0-10.0","","4653","","<div class='header' style='text-align:left; position: absolute; top: 5%; left: 5%;'><small>Task 3 of 5</small></div><div class='instruxDiv'><p><strong>1) What is the minimum number of points you can choose to send to your partner?</strong></p><p>a) 1</p><p>b) 1</p><p style='color:#FF0000'>c) 5</p><h3 style='color:#FF0000'>Incorrect!</h3><h3 class='center-content'>The correct response is b).</h3><h3 class='center-content'>The minimum number of points you can choose to send to your partner is 1 point.</h3><p><em>Press SPACEBAR to continue</em></p></div>"," ","","","","","","","","","","",""
"","","","","640132934d00561d78518c4c","bdp_trlrn","Tue Mar 14 2023 13:34:34 GMT-0400 (Eastern Daylight Time)","723718","Untrustworthy,Trustworthy","html-keyboard-response","130","296060","0.0-11.0","","3912","","<div class='header' style='text-align:left; position: absolute; top: 5%; left: 5%;'><small>Task 3 of 5</small></div><div class='instruxDiv'><p><strong>2) What is the maximum number of points you can choose to send to your partner?</strong></p><p>a) 8</p><p>b) 5</p><p>c) 3</p>","B","","","","","","","","","","",""
"","","","","640132934d00561d78518c4c","bdp_trlrn","Tue Mar 14 2023 13:34:34 GMT-0400 (Eastern Daylight Time)","723718","Untrustworthy,Trustworthy","html-keyboard-response","131","299555","0.0-12.0","","3387","","<div class='header' style='text-align:left; position: absolute; top: 5%; left: 5%;'><small>Task 3 of 5</small></div><div class='instruxDiv'><p><strong>2) What is the maximum number of points you can choose to send to your partner?</strong></p><p>a) 8</p><p style='color:#00FF00'>b) 5</p><p>c) 3</p><h3 style='color:#00FF00'>Correct!</h3><h3 class='center-content'>The correct response is b).</h3><h3 class='center-content'>The maximum number of points you can choose to send to your partner is 5 points.</h3><p><em>Press SPACEBAR to continue</em></p></div>"," ","","","","","","","","","","",""
"","","","","640132934d00561d78518c4c","bdp_trlrn","Tue Mar 14 2023 13:34:34 GMT-0400 (Eastern Daylight Time)","723718","Untrustworthy,Trustworthy","html-keyboard-response","132","308906","0.0-13.0","","9236","","<div class='header' style='text-align:left; position: absolute; top: 5%; left: 5%;'><small>Task 3 of 5</small></div><div class='instruxDiv'><p><strong>3) What happens to the amount of points you send to your partner?</strong></p><p>a) Nothing</p><p>b) It doubles</p><p>c) It quadruples</p>","C","","","","","","","","","","",""
"","","","","640132934d00561d78518c4c","bdp_trlrn","Tue Mar 14 2023 13:34:34 GMT-0400 (Eastern Daylight Time)","723718","Untrustworthy,Trustworthy","html-keyboard-response","133","312894","0.0-14.0","","3875","","<div class='header' style='text-align:left; position: absolute; top: 5%; left: 5%;'><small>Task 3 of 5</small></div><div class='instruxDiv'><p><strong>3) What happens to the amount of points you send to your partner?</strong></p><p>a) Nothing</p><p>b) It doubles</p><p style='color:#00FF00'>c) It quadruples</p><h3 style='color:#00FF00'>Correct!</h3><h3 class='center-content'>The correct response is c).</h3><h3 class='center-content'>The amount of points you send to your partner quadruples.</h3><p><em>Press SPACEBAR to continue</em></p></div>"," ","","","","","","","","","","",""
"","","","","640132934d00561d78518c4c","bdp_trlrn","Tue Mar 14 2023 13:34:34 GMT-0400 (Eastern Daylight Time)","723718","Untrustworthy,Trustworthy","html-keyboard-response","134","321129","0.0-15.0","","8121","","<div class='header' style='text-align:left; position: absolute; top: 5%; left: 5%;'><small>Task 3 of 5</small></div><div class='instruxDiv'><p><strong>4) If you decided to share 4 out of 5 points with your partner, and they decided to share half of the amount they received with you, how many points would you receive back from them on this round?</strong></p><p>a) 16</p><p>b) 0</p><p>c) 8</p>","C","","","","","","","","","","",""
"","","","","640132934d00561d78518c4c","bdp_trlrn","Tue Mar 14 2023 13:34:34 GMT-0400 (Eastern Daylight Time)","723718","Untrustworthy,Trustworthy","html-keyboard-response","135","323631","0.0-16.0","","2398","","<div class='header' style='text-align:left; position: absolute; top: 5%; left: 5%;'><small>Task 3 of 5</small></div><div class='instruxDiv'><p><strong>4) If you decided to share 4 out of 5 points with your partner, and they decided to share half of the amount they received with you, how many points would you receive back from them on this round?</strong></p><p>a) 16</p><p>b) 0</p><p style='color:#00FF00'>c) 8</p><h3 style='color:#00FF00'>Correct!</h3><h3 class='center-content'>The correct response is c).</h3><h3 class='center-content'>If you shared 4 out of 5 points with your partner and they decided to share half of the amount they received with you, you would receive 8 points back (i.e. (4 x 4)/2 = 8).</h3><p><em>Press SPACEBAR to continue</em></p></div>"," ","","","","","","","","","","",""
"","","","","640132934d00561d78518c4c","bdp_trlrn","Tue Mar 14 2023 13:34:34 GMT-0400 (Eastern Daylight Time)","723718","Untrustworthy,Trustworthy","html-keyboard-response","136","328752","0.0-17.0","","null","","<div class='header' style='text-align:left; position: absolute; top: 5%; left: 5%;'><small>Task 3 of 5</small></div><div class='instruxDiv'><p>Thank you for completing the quiz<p>These are the actual partners you will be interacting with in the next block:<p><div class='tc' align='center'><img class='introPic' src='trustrating_stim/white_00757_941201_fa_edt.bmp'><br><strong>Brian</strong></div><div class='bl' align='center'><img class='introPic' src='trustrating_stim/white_mw084.bmp'><br><strong>Ethan</strong></div><div class='br' align='center'><img class='introPic' src='trustrating_stim/white_mw066.bmp'><br><strong>Lucas</strong></div></div><p>Across <strong>66 rounds</strong> you will interact with each partner <strong>22 times</strong> (in random order).<p style='align:center; color:white'><font <em>Press SPACEBAR to continue</em></p>","null","","","","","","","","","","",""
"","","","","640132934d00561d78518c4c","bdp_trlrn","Tue Mar 14 2023 13:34:34 GMT-0400 (Eastern Daylight Time)","723718","Untrustworthy,Trustworthy","instructions","137","337919","0.0-18.0","[{""page_index"":0,""viewing_time"":1956},{""page_index"":1,""viewing_time"":7209}]","9166","","","","","","","","","","","","","",""
"","","","decision","640132934d00561d78518c4c","bdp_trlrn","Tue Mar 14 2023 13:34:34 GMT-0400 (Eastern Daylight Time)","723718","Untrustworthy,Trustworthy","html-keyboard-response","138","340754","0.0-19.0-1.0","","2731","","<div class='trialDiv'><img src='trustrating_stim/white_mw084.bmp'><br><font class='baseline'><strong>Ethan</strong><p>Choose number of points to send.</font><div class='respPicDiv'><img src='img/responseButtonOffersNo0L.png' class='respPic'></div></div>","2","1","Ethan","6","Shared","0.8,0.35","11","0.8","trustrating_stim/white_mw084.bmp","4.5","5","1"
"","","","decisionFB","640132934d00561d78518c4c","bdp_trlrn","Tue Mar 14 2023 13:34:34 GMT-0400 (Eastern Daylight Time)","723718","Untrustworthy,Trustworthy","html-keyboard-response","139","341017","0.0-19.0-2.0","","null","","<div class='trialDiv'><img src='trustrating_stim/white_mw084.bmp'><br><font class='baseline'><strong>Ethan</strong><p>Choose number of points to send.</font><div class='respPicDiv'><img src='img/responseButtonOffersNo0L2.png' class='respPic'></div></div>","null","1","Ethan","6","Shared","0.8,0.35","11","0.8","trustrating_stim/white_mw084.bmp","4.5","3","1"
"","","","feedback","640132934d00561d78518c4c","bdp_trlrn","Tue Mar 14 2023 13:34:34 GMT-0400 (Eastern Daylight Time)","723718","Untrustworthy,Trustworthy","html-keyboard-response","140","342026","0.0-19.0-3.0","","null","","<div class='trialDiv'><img src='trustrating_stim/white_mw084.bmp'><br><font class='baseline'><strong>Ethan</strong><p>Received: <strong>8</strong></font> &nbsp; &nbsp; &nbsp; &nbsp; &nbsp; &nbsp;<font class='posOutcome'>Shared back: <strong>4</strong></font></font><div class='respPicDiv'><img src='img/responseButtonOffersNo0_wht.png' class='respPic'></div></div>","null","1","Ethan","6","Shared","0.8,0.35","11","0.8","trustrating_stim/white_mw084.bmp","4.5","7","1"
"","","","decision","640132934d00561d78518c4c","bdp_trlrn","Tue Mar 14 2023 13:34:34 GMT-0400 (Eastern Daylight Time)","723718","Untrustworthy,Trustworthy","html-keyboard-response","141","344519","0.0-19.0-1.1","","2492","","<div class='trialDiv'><img src='trustrating_stim/white_00757_941201_fa_edt.bmp'><br><font class='baseline'><strong>Brian</strong><p>Choose number of points to send.</font><div class='respPicDiv'><img src='img/responseButtonOffersNo0L.png' class='respPic'></div></div>","2","1","Brian","3","Kept","0.2,0.8","8","0.2","trustrating_stim/white_00757_941201_fa_edt.bmp","3","12","2"
"","","","decisionFB","640132934d00561d78518c4c","bdp_trlrn","Tue Mar 14 2023 13:34:34 GMT-0400 (Eastern Daylight Time)","723718","Untrustworthy,Trustworthy","html-keyboard-response","142","344782","0.0-19.0-2.1","","null","","<div class='trialDiv'><img src='trustrating_stim/white_00757_941201_fa_edt.bmp'><br><font class='baseline'><strong>Brian</strong><p>Choose number of points to send.</font><div class='respPicDiv'><img src='img/responseButtonOffersNo0L2.png' class='respPic'></div></div>","null","1","Brian","3","Kept","0.2,0.8","8","0.2","trustrating_stim/white_00757_941201_fa_edt.bmp","3","10","2"
"","","","feedback","640132934d00561d78518c4c","bdp_trlrn","Tue Mar 14 2023 13:34:34 GMT-0400 (Eastern Daylight Time)","723718","Untrustworthy,Trustworthy","html-keyboard-response","143","345788","0.0-19.0-3.1","","null","","<div class='trialDiv'><img src='trustrating_stim/white_00757_941201_fa_edt.bmp'><br><font class='baseline'><strong>Brian</strong><p>Received: <strong>8</strong></font> &nbsp; &nbsp; &nbsp; &nbsp; &nbsp; &nbsp;<font class='negOutcome'>Shared back: <strong>0</strong></font></font><div class='respPicDiv'><img src='img/responseButtonOffersNo0_wht.png' class='respPic'></div></div>","null","1","Brian","3","Kept","0.2,0.8","8","0.2","trustrating_stim/white_00757_941201_fa_edt.bmp","3","10","2"
"","","","decision","640132934d00561d78518c4c","bdp_trlrn","Tue Mar 14 2023 13:34:34 GMT-0400 (Eastern Daylight Time)","723718","Untrustworthy,Trustworthy","html-keyboard-response","144","348676","0.0-19.0-1.2","","2887","","<div class='trialDiv'><img src='trustrating_stim/white_mw066.bmp'><br><font class='baseline'><strong>Lucas</strong><p>Choose number of points to send.</font><div class='respPicDiv'><img src='img/responseButtonOffersNo0L.png' class='respPic'></div></div>","2","1","Lucas","8","Kept","0.2,0.65","12","0.2","trustrating_stim/white_mw066.bmp","6","15","3"
"","","","decisionFB","640132934d00561d78518c4c","bdp_trlrn","Tue Mar 14 2023 13:34:34 GMT-0400 (Eastern Daylight Time)","723718","Untrustworthy,Trustworthy","html-keyboard-response","145","348931","0.0-19.0-2.2","","null","","<div class='trialDiv'><img src='trustrating_stim/white_mw066.bmp'><br><font class='baseline'><strong>Lucas</strong><p>Choose number of points to send.</font><div class='respPicDiv'><img src='img/responseButtonOffersNo0L2.png' class='respPic'></div></div>","null","1","Lucas","8","Kept","0.2,0.65","12","0.2","trustrating_stim/white_mw066.bmp","6","13","3"
"","","","feedback","640132934d00561d78518c4c","bdp_trlrn","Tue Mar 14 2023 13:34:34 GMT-0400 (Eastern Daylight Time)","723718","Untrustworthy,Trustworthy","html-keyboard-response","146","349937","0.0-19.0-3.2","","null","","<div class='trialDiv'><img src='trustrating_stim/white_mw066.bmp'><br><font class='baseline'><strong>Lucas</strong><p>Received: <strong>8</strong></font> &nbsp; &nbsp; &nbsp; &nbsp; &nbsp; &nbsp;<font class='negOutcome'>Shared back: <strong>0</strong></font></font><div class='respPicDiv'><img src='img/responseButtonOffersNo0_wht.png' class='respPic'></div></div>","null","1","Lucas","8","Kept","0.2,0.65","12","0.2","trustrating_stim/white_mw066.bmp","6","13","3"
"","","","decision","640132934d00561d78518c4c","bdp_trlrn","Tue Mar 14 2023 13:34:34 GMT-0400 (Eastern Daylight Time)","723718","Untrustworthy,Trustworthy","html-keyboard-response","147","351290","0.0-19.0-1.3","","1353","","<div class='trialDiv'><img src='trustrating_stim/white_00757_941201_fa_edt.bmp'><br><font class='baseline'><strong>Brian</strong><p>Choose number of points to send.</font><div class='respPicDiv'><img src='img/responseButtonOffersNo0L.png' class='respPic'></div></div>","2","2","Brian","3","Kept","0.2,0.8","8","0.2","trustrating_stim/white_00757_941201_fa_edt.bmp","3","18","4"
"","","","decisionFB","640132934d00561d78518c4c","bdp_trlrn","Tue Mar 14 2023 13:34:34 GMT-0400 (Eastern Daylight Time)","723718","Untrustworthy,Trustworthy","html-keyboard-response","148","351547","0.0-19.0-2.3","","null","","<div class='trialDiv'><img src='trustrating_stim/white_00757_941201_fa_edt.bmp'><br><font class='baseline'><strong>Brian</strong><p>Choose number of points to send.</font><div class='respPicDiv'><img src='img/responseButtonOffersNo0L2.png' class='respPic'></div></div>","null","2","Brian","3","Kept","0.2,0.8","8","0.2","trustrating_stim/white_00757_941201_fa_edt.bmp","3","16","4"
"","","","feedback","640132934d00561d78518c4c","bdp_trlrn","Tue Mar 14 2023 13:34:34 GMT-0400 (Eastern Daylight Time)","723718","Untrustworthy,Trustworthy","html-keyboard-response","149","352554","0.0-19.0-3.3","","null","","<div class='trialDiv'><img src='trustrating_stim/white_00757_941201_fa_edt.bmp'><br><font class='baseline'><strong>Brian</strong><p>Received: <strong>8</strong></font> &nbsp; &nbsp; &nbsp; &nbsp; &nbsp; &nbsp;<font class='negOutcome'>Shared back: <strong>0</strong></font></font><div class='respPicDiv'><img src='img/responseButtonOffersNo0_wht.png' class='respPic'></div></div>","null","2","Brian","3","Kept","0.2,0.8","8","0.2","trustrating_stim/white_00757_941201_fa_edt.bmp","3","16","4"
"","","","decision","640132934d00561d78518c4c","bdp_trlrn","Tue Mar 14 2023 13:34:34 GMT-0400 (Eastern Daylight Time)","723718","Untrustworthy,Trustworthy","html-keyboard-response","150","354043","0.0-19.0-1.4","","1487","","<div class='trialDiv'><img src='trustrating_stim/white_mw066.bmp'><br><font class='baseline'><strong>Lucas</strong><p>Choose number of points to send.</font><div class='respPicDiv'><img src='img/responseButtonOffersNo0L.png' class='respPic'></div></div>","4","2","Lucas","8","Shared","0.2,0.65","12","0.2","trustrating_stim/white_mw066.bmp","6","21","5"
"","","","decisionFB","640132934d00561d78518c4c","bdp_trlrn","Tue Mar 14 2023 13:34:34 GMT-0400 (Eastern Daylight Time)","723718","Untrustworthy,Trustworthy","html-keyboard-response","151","354307","0.0-19.0-2.4","","null","","<div class='trialDiv'><img src='trustrating_stim/white_mw066.bmp'><br><font class='baseline'><strong>Lucas</strong><p>Choose number of points to send.</font><div class='respPicDiv'><img src='img/responseButtonOffersNo0L4.png' class='respPic'></div></div>","null","2","Lucas","8","Shared","0.2,0.65","12","0.2","trustrating_stim/white_mw066.bmp","6","17","5"
"","","","feedback","640132934d00561d78518c4c","bdp_trlrn","Tue Mar 14 2023 13:34:34 GMT-0400 (Eastern Daylight Time)","723718","Untrustworthy,Trustworthy","html-keyboard-response","152","355315","0.0-19.0-3.4","","null","","<div class='trialDiv'><img src='trustrating_stim/white_mw066.bmp'><br><font class='baseline'><strong>Lucas</strong><p>Received: <strong>16</strong></font> &nbsp; &nbsp; &nbsp; &nbsp; &nbsp; &nbsp;<font class='posOutcome'>Shared back: <strong>8</strong></font></font><div class='respPicDiv'><img src='img/responseButtonOffersNo0_wht.png' class='respPic'></div></div>","null","2","Lucas","8","Shared","0.2,0.65","12","0.2","trustrating_stim/white_mw066.bmp","6","25","5"
"","","","decision","640132934d00561d78518c4c","bdp_trlrn","Tue Mar 14 2023 13:34:34 GMT-0400 (Eastern Daylight Time)","723718","Untrustworthy,Trustworthy","html-keyboard-response","153","356539","0.0-19.0-1.5","","1222","","<div class='trialDiv'><img src='trustrating_stim/white_mw084.bmp'><br><font class='baseline'><strong>Ethan</strong><p>Choose number of points to send.</font><div class='respPicDiv'><img src='img/responseButtonOffersNo0L.png' class='respPic'></div></div>","4","2","Ethan","6","Shared","0.8,0.35","11","0.8","trustrating_stim/white_mw084.bmp","4.5","30","6"
"","","","decisionFB","640132934d00561d78518c4c","bdp_trlrn","Tue Mar 14 2023 13:34:34 GMT-0400 (Eastern Daylight Time)","723718","Untrustworthy,Trustworthy","html-keyboard-response","154","356803","0.0-19.0-2.5","","null","","<div class='trialDiv'><img src='trustrating_stim/white_mw084.bmp'><br><font class='baseline'><strong>Ethan</strong><p>Choose number of points to send.</font><div class='respPicDiv'><img src='img/responseButtonOffersNo0L4.png' class='respPic'></div></div>","null","2","Ethan","6","Shared","0.8,0.35","11","0.8","trustrating_stim/white_mw084.bmp","4.5","26","6"
"","","","feedback","640132934d00561d78518c4c","bdp_trlrn","Tue Mar 14 2023 13:34:34 GMT-0400 (Eastern Daylight Time)","723718","Untrustworthy,Trustworthy","html-keyboard-response","155","357810","0.0-19.0-3.5","","null","","<div class='trialDiv'><img src='trustrating_stim/white_mw084.bmp'><br><font class='baseline'><strong>Ethan</strong><p>Received: <strong>16</strong></font> &nbsp; &nbsp; &nbsp; &nbsp; &nbsp; &nbsp;<font class='posOutcome'>Shared back: <strong>8</strong></font></font><div class='respPicDiv'><img src='img/responseButtonOffersNo0_wht.png' class='respPic'></div></div>","null","2","Ethan","6","Shared","0.8,0.35","11","0.8","trustrating_stim/white_mw084.bmp","4.5","34","6"
"","","","decision","640132934d00561d78518c4c","bdp_trlrn","Tue Mar 14 2023 13:34:34 GMT-0400 (Eastern Daylight Time)","723718","Untrustworthy,Trustworthy","html-keyboard-response","156","360079","0.0-19.0-1.6","","2267","","<div class='trialDiv'><img src='trustrating_stim/white_mw066.bmp'><br><font class='baseline'><strong>Lucas</strong><p>Choose number of points to send.</font><div class='respPicDiv'><img src='img/responseButtonOffersNo0L.png' class='respPic'></div></div>","5","3","Lucas","8","Shared","0.2,0.65","12","0.2","trustrating_stim/white_mw066.bmp","6","39","7"
"","","","decisionFB","640132934d00561d78518c4c","bdp_trlrn","Tue Mar 14 2023 13:34:34 GMT-0400 (Eastern Daylight Time)","723718","Untrustworthy,Trustworthy","html-keyboard-response","157","360340","0.0-19.0-2.6","","null","","<div class='trialDiv'><img src='trustrating_stim/white_mw066.bmp'><br><font class='baseline'><strong>Lucas</strong><p>Choose number of points to send.</font><div class='respPicDiv'><img src='img/responseButtonOffersNo0L5.png' class='respPic'></div></div>","null","3","Lucas","8","Shared","0.2,0.65","12","0.2","trustrating_stim/white_mw066.bmp","6","34","7"
"","","","feedback","640132934d00561d78518c4c","bdp_trlrn","Tue Mar 14 2023 13:34:34 GMT-0400 (Eastern Daylight Time)","723718","Untrustworthy,Trustworthy","html-keyboard-response","158","361351","0.0-19.0-3.6","","null","","<div class='trialDiv'><img src='trustrating_stim/white_mw066.bmp'><br><font class='baseline'><strong>Lucas</strong><p>Received: <strong>20</strong></font> &nbsp; &nbsp; &nbsp; &nbsp; &nbsp; &nbsp;<font class='posOutcome'>Shared back: <strong>10</strong></font></font><div class='respPicDiv'><img src='img/responseButtonOffersNo0_wht.png' class='respPic'></div></div>","null","3","Lucas","8","Shared","0.2,0.65","12","0.2","trustrating_stim/white_mw066.bmp","6","44","7"
"","","","decision","640132934d00561d78518c4c","bdp_trlrn","Tue Mar 14 2023 13:34:34 GMT-0400 (Eastern Daylight Time)","723718","Untrustworthy,Trustworthy","html-keyboard-response","159","364640","0.0-19.0-1.7","","3288","","<div class='trialDiv'><img src='trustrating_stim/white_00757_941201_fa_edt.bmp'><br><font class='baseline'><strong>Brian</strong><p>Choose number of points to send.</font><div class='respPicDiv'><img src='img/responseButtonOffersNo0L.png' class='respPic'></div></div>","2","3","Brian","3","Kept","0.2,0.8","8","0.2","trustrating_stim/white_00757_941201_fa_edt.bmp","3","49","8"
"","","","decisionFB","640132934d00561d78518c4c","bdp_trlrn","Tue Mar 14 2023 13:34:34 GMT-0400 (Eastern Daylight Time)","723718","Untrustworthy,Trustworthy","html-keyboard-response","160","364905","0.0-19.0-2.7","","null","","<div class='trialDiv'><img src='trustrating_stim/white_00757_941201_fa_edt.bmp'><br><font class='baseline'><strong>Brian</strong><p>Choose number of points to send.</font><div class='respPicDiv'><img src='img/responseButtonOffersNo0L2.png' class='respPic'></div></div>","null","3","Brian","3","Kept","0.2,0.8","8","0.2","trustrating_stim/white_00757_941201_fa_edt.bmp","3","47","8"
"","","","feedback","640132934d00561d78518c4c","bdp_trlrn","Tue Mar 14 2023 13:34:34 GMT-0400 (Eastern Daylight Time)","723718","Untrustworthy,Trustworthy","html-keyboard-response","161","365910","0.0-19.0-3.7","","null","","<div class='trialDiv'><img src='trustrating_stim/white_00757_941201_fa_edt.bmp'><br><font class='baseline'><strong>Brian</strong><p>Received: <strong>8</strong></font> &nbsp; &nbsp; &nbsp; &nbsp; &nbsp; &nbsp;<font class='negOutcome'>Shared back: <strong>0</strong></font></font><div class='respPicDiv'><img src='img/responseButtonOffersNo0_wht.png' class='respPic'></div></div>","null","3","Brian","3","Kept","0.2,0.8","8","0.2","trustrating_stim/white_00757_941201_fa_edt.bmp","3","47","8"
"","","","decision","640132934d00561d78518c4c","bdp_trlrn","Tue Mar 14 2023 13:34:34 GMT-0400 (Eastern Daylight Time)","723718","Untrustworthy,Trustworthy","html-keyboard-response","162","367290","0.0-19.0-1.8","","1380","","<div class='trialDiv'><img src='trustrating_stim/white_mw084.bmp'><br><font class='baseline'><strong>Ethan</strong><p>Choose number of points to send.</font><div class='respPicDiv'><img src='img/responseButtonOffersNo0L.png' class='respPic'></div></div>","4","3","Ethan","6","Kept","0.8,0.35","11","0.8","trustrating_stim/white_mw084.bmp","4.5","52","9"
"","","","decisionFB","640132934d00561d78518c4c","bdp_trlrn","Tue Mar 14 2023 13:34:34 GMT-0400 (Eastern Daylight Time)","723718","Untrustworthy,Trustworthy","html-keyboard-response","163","367542","0.0-19.0-2.8","","null","","<div class='trialDiv'><img src='trustrating_stim/white_mw084.bmp'><br><font class='baseline'><strong>Ethan</strong><p>Choose number of points to send.</font><div class='respPicDiv'><img src='img/responseButtonOffersNo0L4.png' class='respPic'></div></div>","null","3","Ethan","6","Kept","0.8,0.35","11","0.8","trustrating_stim/white_mw084.bmp","4.5","48","9"
"","","","feedback","640132934d00561d78518c4c","bdp_trlrn","Tue Mar 14 2023 13:34:34 GMT-0400 (Eastern Daylight Time)","723718","Untrustworthy,Trustworthy","html-keyboard-response","164","368553","0.0-19.0-3.8","","null","","<div class='trialDiv'><img src='trustrating_stim/white_mw084.bmp'><br><font class='baseline'><strong>Ethan</strong><p>Received: <strong>16</strong></font> &nbsp; &nbsp; &nbsp; &nbsp; &nbsp; &nbsp;<font class='negOutcome'>Shared back: <strong>0</strong></font></font><div class='respPicDiv'><img src='img/responseButtonOffersNo0_wht.png' class='respPic'></div></div>","null","3","Ethan","6","Kept","0.8,0.35","11","0.8","trustrating_stim/white_mw084.bmp","4.5","48","9"
"","","","decision","640132934d00561d78518c4c","bdp_trlrn","Tue Mar 14 2023 13:34:34 GMT-0400 (Eastern Daylight Time)","723718","Untrustworthy,Trustworthy","html-keyboard-response","165","369859","0.0-19.0-1.9","","1305","","<div class='trialDiv'><img src='trustrating_stim/white_00757_941201_fa_edt.bmp'><br><font class='baseline'><strong>Brian</strong><p>Choose number of points to send.</font><div class='respPicDiv'><img src='img/responseButtonOffersNo0L.png' class='respPic'></div></div>","2","4","Brian","3","Shared","0.2,0.8","8","0.2","trustrating_stim/white_00757_941201_fa_edt.bmp","3","53","10"
"","","","decisionFB","640132934d00561d78518c4c","bdp_trlrn","Tue Mar 14 2023 13:34:34 GMT-0400 (Eastern Daylight Time)","723718","Untrustworthy,Trustworthy","html-keyboard-response","166","370121","0.0-19.0-2.9","","null","","<div class='trialDiv'><img src='trustrating_stim/white_00757_941201_fa_edt.bmp'><br><font class='baseline'><strong>Brian</strong><p>Choose number of points to send.</font><div class='respPicDiv'><img src='img/responseButtonOffersNo0L2.png' class='respPic'></div></div>","null","4","Brian","3","Shared","0.2,0.8","8","0.2","trustrating_stim/white_00757_941201_fa_edt.bmp","3","51","10"
"","","","feedback","640132934d00561d78518c4c","bdp_trlrn","Tue Mar 14 2023 13:34:34 GMT-0400 (Eastern Daylight Time)","723718","Untrustworthy,Trustworthy","html-keyboard-response","167","371128","0.0-19.0-3.9","","null","","<div class='trialDiv'><img src='trustrating_stim/white_00757_941201_fa_edt.bmp'><br><font class='baseline'><strong>Brian</strong><p>Received: <strong>8</strong></font> &nbsp; &nbsp; &nbsp; &nbsp; &nbsp; &nbsp;<font class='posOutcome'>Shared back: <strong>4</strong></font></font><div class='respPicDiv'><img src='img/responseButtonOffersNo0_wht.png' class='respPic'></div></div>","null","4","Brian","3","Shared","0.2,0.8","8","0.2","trustrating_stim/white_00757_941201_fa_edt.bmp","3","55","10"
"","","","decision","640132934d00561d78518c4c","bdp_trlrn","Tue Mar 14 2023 13:34:34 GMT-0400 (Eastern Daylight Time)","723718","Untrustworthy,Trustworthy","html-keyboard-response","168","372178","0.0-19.0-1.10","","1050","","<div class='trialDiv'><img src='trustrating_stim/white_mw066.bmp'><br><font class='baseline'><strong>Lucas</strong><p>Choose number of points to send.</font><div class='respPicDiv'><img src='img/responseButtonOffersNo0L.png' class='respPic'></div></div>","5","4","Lucas","8","Kept","0.2,0.65","12","0.2","trustrating_stim/white_mw066.bmp","6","60","11"
"","","","decisionFB","640132934d00561d78518c4c","bdp_trlrn","Tue Mar 14 2023 13:34:34 GMT-0400 (Eastern Daylight Time)","723718","Untrustworthy,Trustworthy","html-keyboard-response","169","372431","0.0-19.0-2.10","","null","","<div class='trialDiv'><img src='trustrating_stim/white_mw066.bmp'><br><font class='baseline'><strong>Lucas</strong><p>Choose number of points to send.</font><div class='respPicDiv'><img src='img/responseButtonOffersNo0L5.png' class='respPic'></div></div>","null","4","Lucas","8","Kept","0.2,0.65","12","0.2","trustrating_stim/white_mw066.bmp","6","55","11"
"","","","feedback","640132934d00561d78518c4c","bdp_trlrn","Tue Mar 14 2023 13:34:34 GMT-0400 (Eastern Daylight Time)","723718","Untrustworthy,Trustworthy","html-keyboard-response","170","373439","0.0-19.0-3.10","","null","","<div class='trialDiv'><img src='trustrating_stim/white_mw066.bmp'><br><font class='baseline'><strong>Lucas</strong><p>Received: <strong>20</strong></font> &nbsp; &nbsp; &nbsp; &nbsp; &nbsp; &nbsp;<font class='negOutcome'>Shared back: <strong>0</strong></font></font><div class='respPicDiv'><img src='img/responseButtonOffersNo0_wht.png' class='respPic'></div></div>","null","4","Lucas","8","Kept","0.2,0.65","12","0.2","trustrating_stim/white_mw066.bmp","6","55","11"
"","","","decision","640132934d00561d78518c4c","bdp_trlrn","Tue Mar 14 2023 13:34:34 GMT-0400 (Eastern Daylight Time)","723718","Untrustworthy,Trustworthy","html-keyboard-response","171","374545","0.0-19.0-1.11","","1105","","<div class='trialDiv'><img src='trustrating_stim/white_mw084.bmp'><br><font class='baseline'><strong>Ethan</strong><p>Choose number of points to send.</font><div class='respPicDiv'><img src='img/responseButtonOffersNo0L.png' class='respPic'></div></div>","2","4","Ethan","6","Kept","0.8,0.35","11","0.8","trustrating_stim/white_mw084.bmp","4.5","60","12"
"","","","decisionFB","640132934d00561d78518c4c","bdp_trlrn","Tue Mar 14 2023 13:34:34 GMT-0400 (Eastern Daylight Time)","723718","Untrustworthy,Trustworthy","html-keyboard-response","172","374801","0.0-19.0-2.11","","null","","<div class='trialDiv'><img src='trustrating_stim/white_mw084.bmp'><br><font class='baseline'><strong>Ethan</strong><p>Choose number of points to send.</font><div class='respPicDiv'><img src='img/responseButtonOffersNo0L2.png' class='respPic'></div></div>","null","4","Ethan","6","Kept","0.8,0.35","11","0.8","trustrating_stim/white_mw084.bmp","4.5","58","12"
"","","","feedback","640132934d00561d78518c4c","bdp_trlrn","Tue Mar 14 2023 13:34:34 GMT-0400 (Eastern Daylight Time)","723718","Untrustworthy,Trustworthy","html-keyboard-response","173","375810","0.0-19.0-3.11","","null","","<div class='trialDiv'><img src='trustrating_stim/white_mw084.bmp'><br><font class='baseline'><strong>Ethan</strong><p>Received: <strong>8</strong></font> &nbsp; &nbsp; &nbsp; &nbsp; &nbsp; &nbsp;<font class='negOutcome'>Shared back: <strong>0</strong></font></font><div class='respPicDiv'><img src='img/responseButtonOffersNo0_wht.png' class='respPic'></div></div>","null","4","Ethan","6","Kept","0.8,0.35","11","0.8","trustrating_stim/white_mw084.bmp","4.5","58","12"
"","","","decision","640132934d00561d78518c4c","bdp_trlrn","Tue Mar 14 2023 13:34:34 GMT-0400 (Eastern Daylight Time)","723718","Untrustworthy,Trustworthy","html-keyboard-response","174","377518","0.0-19.0-1.12","","1707","","<div class='trialDiv'><img src='trustrating_stim/white_00757_941201_fa_edt.bmp'><br><font class='baseline'><strong>Brian</strong><p>Choose number of points to send.</font><div class='respPicDiv'><img src='img/responseButtonOffersNo0L.png' class='respPic'></div></div>","3","5","Brian","3","Kept","0.2,0.8","8","0.2","trustrating_stim/white_00757_941201_fa_edt.bmp","3","63","13"
"","","","decisionFB","640132934d00561d78518c4c","bdp_trlrn","Tue Mar 14 2023 13:34:34 GMT-0400 (Eastern Daylight Time)","723718","Untrustworthy,Trustworthy","html-keyboard-response","175","377776","0.0-19.0-2.12","","null","","<div class='trialDiv'><img src='trustrating_stim/white_00757_941201_fa_edt.bmp'><br><font class='baseline'><strong>Brian</strong><p>Choose number of points to send.</font><div class='respPicDiv'><img src='img/responseButtonOffersNo0L3.png' class='respPic'></div></div>","null","5","Brian","3","Kept","0.2,0.8","8","0.2","trustrating_stim/white_00757_941201_fa_edt.bmp","3","60","13"
"","","","feedback","640132934d00561d78518c4c","bdp_trlrn","Tue Mar 14 2023 13:34:34 GMT-0400 (Eastern Daylight Time)","723718","Untrustworthy,Trustworthy","html-keyboard-response","176","378786","0.0-19.0-3.12","","null","","<div class='trialDiv'><img src='trustrating_stim/white_00757_941201_fa_edt.bmp'><br><font class='baseline'><strong>Brian</strong><p>Received: <strong>12</strong></font> &nbsp; &nbsp; &nbsp; &nbsp; &nbsp; &nbsp;<font class='negOutcome'>Shared back: <strong>0</strong></font></font><div class='respPicDiv'><img src='img/responseButtonOffersNo0_wht.png' class='respPic'></div></div>","null","5","Brian","3","Kept","0.2,0.8","8","0.2","trustrating_stim/white_00757_941201_fa_edt.bmp","3","60","13"
"","","","decision","640132934d00561d78518c4c","bdp_trlrn","Tue Mar 14 2023 13:34:34 GMT-0400 (Eastern Daylight Time)","723718","Untrustworthy,Trustworthy","html-keyboard-response","177","380233","0.0-19.0-1.13","","1446","","<div class='trialDiv'><img src='trustrating_stim/white_mw066.bmp'><br><font class='baseline'><strong>Lucas</strong><p>Choose number of points to send.</font><div class='respPicDiv'><img src='img/responseButtonOffersNo0L.png' class='respPic'></div></div>","5","5","Lucas","8","Kept","0.2,0.65","12","0.2","trustrating_stim/white_mw066.bmp","6","65","14"
"","","","decisionFB","640132934d00561d78518c4c","bdp_trlrn","Tue Mar 14 2023 13:34:34 GMT-0400 (Eastern Daylight Time)","723718","Untrustworthy,Trustworthy","html-keyboard-response","178","380490","0.0-19.0-2.13","","null","","<div class='trialDiv'><img src='trustrating_stim/white_mw066.bmp'><br><font class='baseline'><strong>Lucas</strong><p>Choose number of points to send.</font><div class='respPicDiv'><img src='img/responseButtonOffersNo0L5.png' class='respPic'></div></div>","null","5","Lucas","8","Kept","0.2,0.65","12","0.2","trustrating_stim/white_mw066.bmp","6","60","14"
"","","","feedback","640132934d00561d78518c4c","bdp_trlrn","Tue Mar 14 2023 13:34:34 GMT-0400 (Eastern Daylight Time)","723718","Untrustworthy,Trustworthy","html-keyboard-response","179","381496","0.0-19.0-3.13","","null","","<div class='trialDiv'><img src='trustrating_stim/white_mw066.bmp'><br><font class='baseline'><strong>Lucas</strong><p>Received: <strong>20</strong></font> &nbsp; &nbsp; &nbsp; &nbsp; &nbsp; &nbsp;<font class='negOutcome'>Shared back: <strong>0</strong></font></font><div class='respPicDiv'><img src='img/responseButtonOffersNo0_wht.png' class='respPic'></div></div>","null","5","Lucas","8","Kept","0.2,0.65","12","0.2","trustrating_stim/white_mw066.bmp","6","60","14"
"","","","decision","640132934d00561d78518c4c","bdp_trlrn","Tue Mar 14 2023 13:34:34 GMT-0400 (Eastern Daylight Time)","723718","Untrustworthy,Trustworthy","html-keyboard-response","180","383359","0.0-19.0-1.14","","1862","","<div class='trialDiv'><img src='trustrating_stim/white_mw084.bmp'><br><font class='baseline'><strong>Ethan</strong><p>Choose number of points to send.</font><div class='respPicDiv'><img src='img/responseButtonOffersNo0L.png' class='respPic'></div></div>","4","5","Ethan","6","Shared","0.8,0.35","11","0.8","trustrating_stim/white_mw084.bmp","4.5","65","15"
"","","","decisionFB","640132934d00561d78518c4c","bdp_trlrn","Tue Mar 14 2023 13:34:34 GMT-0400 (Eastern Daylight Time)","723718","Untrustworthy,Trustworthy","html-keyboard-response","181","383623","0.0-19.0-2.14","","null","","<div class='trialDiv'><img src='trustrating_stim/white_mw084.bmp'><br><font class='baseline'><strong>Ethan</strong><p>Choose number of points to send.</font><div class='respPicDiv'><img src='img/responseButtonOffersNo0L4.png' class='respPic'></div></div>","null","5","Ethan","6","Shared","0.8,0.35","11","0.8","trustrating_stim/white_mw084.bmp","4.5","61","15"
"","","","feedback","640132934d00561d78518c4c","bdp_trlrn","Tue Mar 14 2023 13:34:34 GMT-0400 (Eastern Daylight Time)","723718","Untrustworthy,Trustworthy","html-keyboard-response","182","384628","0.0-19.0-3.14","","null","","<div class='trialDiv'><img src='trustrating_stim/white_mw084.bmp'><br><font class='baseline'><strong>Ethan</strong><p>Received: <strong>16</strong></font> &nbsp; &nbsp; &nbsp; &nbsp; &nbsp; &nbsp;<font class='posOutcome'>Shared back: <strong>8</strong></font></font><div class='respPicDiv'><img src='img/responseButtonOffersNo0_wht.png' class='respPic'></div></div>","null","5","Ethan","6","Shared","0.8,0.35","11","0.8","trustrating_stim/white_mw084.bmp","4.5","69","15"
"","","","decision","640132934d00561d78518c4c","bdp_trlrn","Tue Mar 14 2023 13:34:34 GMT-0400 (Eastern Daylight Time)","723718","Untrustworthy,Trustworthy","html-keyboard-response","183","385689","0.0-19.0-1.15","","1060","","<div class='trialDiv'><img src='trustrating_stim/white_00757_941201_fa_edt.bmp'><br><font class='baseline'><strong>Brian</strong><p>Choose number of points to send.</font><div class='respPicDiv'><img src='img/responseButtonOffersNo0L.png' class='respPic'></div></div>","2","6","Brian","3","Shared","0.2,0.8","8","0.2","trustrating_stim/white_00757_941201_fa_edt.bmp","3","74","16"
"","","","decisionFB","640132934d00561d78518c4c","bdp_trlrn","Tue Mar 14 2023 13:34:34 GMT-0400 (Eastern Daylight Time)","723718","Untrustworthy,Trustworthy","html-keyboard-response","184","385948","0.0-19.0-2.15","","null","","<div class='trialDiv'><img src='trustrating_stim/white_00757_941201_fa_edt.bmp'><br><font class='baseline'><strong>Brian</strong><p>Choose number of points to send.</font><div class='respPicDiv'><img src='img/responseButtonOffersNo0L2.png' class='respPic'></div></div>","null","6","Brian","3","Shared","0.2,0.8","8","0.2","trustrating_stim/white_00757_941201_fa_edt.bmp","3","72","16"
"","","","feedback","640132934d00561d78518c4c","bdp_trlrn","Tue Mar 14 2023 13:34:34 GMT-0400 (Eastern Daylight Time)","723718","Untrustworthy,Trustworthy","html-keyboard-response","185","386958","0.0-19.0-3.15","","null","","<div class='trialDiv'><img src='trustrating_stim/white_00757_941201_fa_edt.bmp'><br><font class='baseline'><strong>Brian</strong><p>Received: <strong>8</strong></font> &nbsp; &nbsp; &nbsp; &nbsp; &nbsp; &nbsp;<font class='posOutcome'>Shared back: <strong>4</strong></font></font><div class='respPicDiv'><img src='img/responseButtonOffersNo0_wht.png' class='respPic'></div></div>","null","6","Brian","3","Shared","0.2,0.8","8","0.2","trustrating_stim/white_00757_941201_fa_edt.bmp","3","76","16"
"","","","decision","640132934d00561d78518c4c","bdp_trlrn","Tue Mar 14 2023 13:34:34 GMT-0400 (Eastern Daylight Time)","723718","Untrustworthy,Trustworthy","html-keyboard-response","186","389249","0.0-19.0-1.16","","2290","","<div class='trialDiv'><img src='trustrating_stim/white_mw066.bmp'><br><font class='baseline'><strong>Lucas</strong><p>Choose number of points to send.</font><div class='respPicDiv'><img src='img/responseButtonOffersNo0L.png' class='respPic'></div></div>","5","6","Lucas","8","Shared","0.2,0.65","12","0.2","trustrating_stim/white_mw066.bmp","6","81","17"
"","","","decisionFB","640132934d00561d78518c4c","bdp_trlrn","Tue Mar 14 2023 13:34:34 GMT-0400 (Eastern Daylight Time)","723718","Untrustworthy,Trustworthy","html-keyboard-response","187","389501","0.0-19.0-2.16","","null","","<div class='trialDiv'><img src='trustrating_stim/white_mw066.bmp'><br><font class='baseline'><strong>Lucas</strong><p>Choose number of points to send.</font><div class='respPicDiv'><img src='img/responseButtonOffersNo0L5.png' class='respPic'></div></div>","null","6","Lucas","8","Shared","0.2,0.65","12","0.2","trustrating_stim/white_mw066.bmp","6","76","17"
"","","","feedback","640132934d00561d78518c4c","bdp_trlrn","Tue Mar 14 2023 13:34:34 GMT-0400 (Eastern Daylight Time)","723718","Untrustworthy,Trustworthy","html-keyboard-response","188","390506","0.0-19.0-3.16","","null","","<div class='trialDiv'><img src='trustrating_stim/white_mw066.bmp'><br><font class='baseline'><strong>Lucas</strong><p>Received: <strong>20</strong></font> &nbsp; &nbsp; &nbsp; &nbsp; &nbsp; &nbsp;<font class='posOutcome'>Shared back: <strong>10</strong></font></font><div class='respPicDiv'><img src='img/responseButtonOffersNo0_wht.png' class='respPic'></div></div>","null","6","Lucas","8","Shared","0.2,0.65","12","0.2","trustrating_stim/white_mw066.bmp","6","86","17"
"","","","decision","640132934d00561d78518c4c","bdp_trlrn","Tue Mar 14 2023 13:34:34 GMT-0400 (Eastern Daylight Time)","723718","Untrustworthy,Trustworthy","html-keyboard-response","189","392720","0.0-19.0-1.17","","2213","","<div class='trialDiv'><img src='trustrating_stim/white_mw084.bmp'><br><font class='baseline'><strong>Ethan</strong><p>Choose number of points to send.</font><div class='respPicDiv'><img src='img/responseButtonOffersNo0L.png' class='respPic'></div></div>","3","6","Ethan","6","Shared","0.8,0.35","11","0.8","trustrating_stim/white_mw084.bmp","4.5","91","18"
"","","","decisionFB","640132934d00561d78518c4c","bdp_trlrn","Tue Mar 14 2023 13:34:34 GMT-0400 (Eastern Daylight Time)","723718","Untrustworthy,Trustworthy","html-keyboard-response","190","392983","0.0-19.0-2.17","","null","","<div class='trialDiv'><img src='trustrating_stim/white_mw084.bmp'><br><font class='baseline'><strong>Ethan</strong><p>Choose number of points to send.</font><div class='respPicDiv'><img src='img/responseButtonOffersNo0L3.png' class='respPic'></div></div>","null","6","Ethan","6","Shared","0.8,0.35","11","0.8","trustrating_stim/white_mw084.bmp","4.5","88","18"
"","","","feedback","640132934d00561d78518c4c","bdp_trlrn","Tue Mar 14 2023 13:34:34 GMT-0400 (Eastern Daylight Time)","723718","Untrustworthy,Trustworthy","html-keyboard-response","191","393988","0.0-19.0-3.17","","null","","<div class='trialDiv'><img src='trustrating_stim/white_mw084.bmp'><br><font class='baseline'><strong>Ethan</strong><p>Received: <strong>12</strong></font> &nbsp; &nbsp; &nbsp; &nbsp; &nbsp; &nbsp;<font class='posOutcome'>Shared back: <strong>6</strong></font></font><div class='respPicDiv'><img src='img/responseButtonOffersNo0_wht.png' class='respPic'></div></div>","null","6","Ethan","6","Shared","0.8,0.35","11","0.8","trustrating_stim/white_mw084.bmp","4.5","94","18"
"","","","decision","640132934d00561d78518c4c","bdp_trlrn","Tue Mar 14 2023 13:34:34 GMT-0400 (Eastern Daylight Time)","723718","Untrustworthy,Trustworthy","html-keyboard-response","192","395159","0.0-19.0-1.18","","1170","","<div class='trialDiv'><img src='trustrating_stim/white_mw066.bmp'><br><font class='baseline'><strong>Lucas</strong><p>Choose number of points to send.</font><div class='respPicDiv'><img src='img/responseButtonOffersNo0L.png' class='respPic'></div></div>","5","7","Lucas","8","Kept","0.2,0.65","12","0.2","trustrating_stim/white_mw066.bmp","6","99","19"
"","","","decisionFB","640132934d00561d78518c4c","bdp_trlrn","Tue Mar 14 2023 13:34:34 GMT-0400 (Eastern Daylight Time)","723718","Untrustworthy,Trustworthy","html-keyboard-response","193","395420","0.0-19.0-2.18","","null","","<div class='trialDiv'><img src='trustrating_stim/white_mw066.bmp'><br><font class='baseline'><strong>Lucas</strong><p>Choose number of points to send.</font><div class='respPicDiv'><img src='img/responseButtonOffersNo0L5.png' class='respPic'></div></div>","null","7","Lucas","8","Kept","0.2,0.65","12","0.2","trustrating_stim/white_mw066.bmp","6","94","19"
"","","","feedback","640132934d00561d78518c4c","bdp_trlrn","Tue Mar 14 2023 13:34:34 GMT-0400 (Eastern Daylight Time)","723718","Untrustworthy,Trustworthy","html-keyboard-response","194","396427","0.0-19.0-3.18","","null","","<div class='trialDiv'><img src='trustrating_stim/white_mw066.bmp'><br><font class='baseline'><strong>Lucas</strong><p>Received: <strong>20</strong></font> &nbsp; &nbsp; &nbsp; &nbsp; &nbsp; &nbsp;<font class='negOutcome'>Shared back: <strong>0</strong></font></font><div class='respPicDiv'><img src='img/responseButtonOffersNo0_wht.png' class='respPic'></div></div>","null","7","Lucas","8","Kept","0.2,0.65","12","0.2","trustrating_stim/white_mw066.bmp","6","94","19"
"","","","decision","640132934d00561d78518c4c","bdp_trlrn","Tue Mar 14 2023 13:34:34 GMT-0400 (Eastern Daylight Time)","723718","Untrustworthy,Trustworthy","html-keyboard-response","195","398106","0.0-19.0-1.19","","1678","","<div class='trialDiv'><img src='trustrating_stim/white_00757_941201_fa_edt.bmp'><br><font class='baseline'><strong>Brian</strong><p>Choose number of points to send.</font><div class='respPicDiv'><img src='img/responseButtonOffersNo0L.png' class='respPic'></div></div>","2","7","Brian","3","Shared","0.2,0.8","8","0.2","trustrating_stim/white_00757_941201_fa_edt.bmp","3","99","20"
"","","","decisionFB","640132934d00561d78518c4c","bdp_trlrn","Tue Mar 14 2023 13:34:34 GMT-0400 (Eastern Daylight Time)","723718","Untrustworthy,Trustworthy","html-keyboard-response","196","398367","0.0-19.0-2.19","","null","","<div class='trialDiv'><img src='trustrating_stim/white_00757_941201_fa_edt.bmp'><br><font class='baseline'><strong>Brian</strong><p>Choose number of points to send.</font><div class='respPicDiv'><img src='img/responseButtonOffersNo0L2.png' class='respPic'></div></div>","null","7","Brian","3","Shared","0.2,0.8","8","0.2","trustrating_stim/white_00757_941201_fa_edt.bmp","3","97","20"
"","","","feedback","640132934d00561d78518c4c","bdp_trlrn","Tue Mar 14 2023 13:34:34 GMT-0400 (Eastern Daylight Time)","723718","Untrustworthy,Trustworthy","html-keyboard-response","197","399376","0.0-19.0-3.19","","null","","<div class='trialDiv'><img src='trustrating_stim/white_00757_941201_fa_edt.bmp'><br><font class='baseline'><strong>Brian</strong><p>Received: <strong>8</strong></font> &nbsp; &nbsp; &nbsp; &nbsp; &nbsp; &nbsp;<font class='posOutcome'>Shared back: <strong>4</strong></font></font><div class='respPicDiv'><img src='img/responseButtonOffersNo0_wht.png' class='respPic'></div></div>","null","7","Brian","3","Shared","0.2,0.8","8","0.2","trustrating_stim/white_00757_941201_fa_edt.bmp","3","101","20"
"","","","decision","640132934d00561d78518c4c","bdp_trlrn","Tue Mar 14 2023 13:34:34 GMT-0400 (Eastern Daylight Time)","723718","Untrustworthy,Trustworthy","html-keyboard-response","198","401699","0.0-19.0-1.20","","2322","","<div class='trialDiv'><img src='trustrating_stim/white_mw084.bmp'><br><font class='baseline'><strong>Ethan</strong><p>Choose number of points to send.</font><div class='respPicDiv'><img src='img/responseButtonOffersNo0L.png' class='respPic'></div></div>","4","7","Ethan","6","Shared","0.8,0.35","11","0.8","trustrating_stim/white_mw084.bmp","4.5","106","21"
"","","","decisionFB","640132934d00561d78518c4c","bdp_trlrn","Tue Mar 14 2023 13:34:34 GMT-0400 (Eastern Daylight Time)","723718","Untrustworthy,Trustworthy","html-keyboard-response","199","401962","0.0-19.0-2.20","","null","","<div class='trialDiv'><img src='trustrating_stim/white_mw084.bmp'><br><font class='baseline'><strong>Ethan</strong><p>Choose number of points to send.</font><div class='respPicDiv'><img src='img/responseButtonOffersNo0L4.png' class='respPic'></div></div>","null","7","Ethan","6","Shared","0.8,0.35","11","0.8","trustrating_stim/white_mw084.bmp","4.5","102","21"
"","","","feedback","640132934d00561d78518c4c","bdp_trlrn","Tue Mar 14 2023 13:34:34 GMT-0400 (Eastern Daylight Time)","723718","Untrustworthy,Trustworthy","html-keyboard-response","200","402974","0.0-19.0-3.20","","null","","<div class='trialDiv'><img src='trustrating_stim/white_mw084.bmp'><br><font class='baseline'><strong>Ethan</strong><p>Received: <strong>16</strong></font> &nbsp; &nbsp; &nbsp; &nbsp; &nbsp; &nbsp;<font class='posOutcome'>Shared back: <strong>8</strong></font></font><div class='respPicDiv'><img src='img/responseButtonOffersNo0_wht.png' class='respPic'></div></div>","null","7","Ethan","6","Shared","0.8,0.35","11","0.8","trustrating_stim/white_mw084.bmp","4.5","110","21"
"","","","decision","640132934d00561d78518c4c","bdp_trlrn","Tue Mar 14 2023 13:34:34 GMT-0400 (Eastern Daylight Time)","723718","Untrustworthy,Trustworthy","html-keyboard-response","201","404558","0.0-19.0-1.21","","1583","","<div class='trialDiv'><img src='trustrating_stim/white_00757_941201_fa_edt.bmp'><br><font class='baseline'><strong>Brian</strong><p>Choose number of points to send.</font><div class='respPicDiv'><img src='img/responseButtonOffersNo0L.png' class='respPic'></div></div>","5","8","Brian","3","Shared","0.2,0.8","8","0.2","trustrating_stim/white_00757_941201_fa_edt.bmp","3","115","22"
"","","","decisionFB","640132934d00561d78518c4c","bdp_trlrn","Tue Mar 14 2023 13:34:34 GMT-0400 (Eastern Daylight Time)","723718","Untrustworthy,Trustworthy","html-keyboard-response","202","404817","0.0-19.0-2.21","","null","","<div class='trialDiv'><img src='trustrating_stim/white_00757_941201_fa_edt.bmp'><br><font class='baseline'><strong>Brian</strong><p>Choose number of points to send.</font><div class='respPicDiv'><img src='img/responseButtonOffersNo0L5.png' class='respPic'></div></div>","null","8","Brian","3","Shared","0.2,0.8","8","0.2","trustrating_stim/white_00757_941201_fa_edt.bmp","3","110","22"
"","","","feedback","640132934d00561d78518c4c","bdp_trlrn","Tue Mar 14 2023 13:34:34 GMT-0400 (Eastern Daylight Time)","723718","Untrustworthy,Trustworthy","html-keyboard-response","203","405825","0.0-19.0-3.21","","null","","<div class='trialDiv'><img src='trustrating_stim/white_00757_941201_fa_edt.bmp'><br><font class='baseline'><strong>Brian</strong><p>Received: <strong>20</strong></font> &nbsp; &nbsp; &nbsp; &nbsp; &nbsp; &nbsp;<font class='posOutcome'>Shared back: <strong>10</strong></font></font><div class='respPicDiv'><img src='img/responseButtonOffersNo0_wht.png' class='respPic'></div></div>","null","8","Brian","3","Shared","0.2,0.8","8","0.2","trustrating_stim/white_00757_941201_fa_edt.bmp","3","120","22"
"","","","decision","640132934d00561d78518c4c","bdp_trlrn","Tue Mar 14 2023 13:34:34 GMT-0400 (Eastern Daylight Time)","723718","Untrustworthy,Trustworthy","html-keyboard-response","204","411150","0.0-19.0-1.22","","5325","","<div class='trialDiv'><img src='trustrating_stim/white_mw084.bmp'><br><font class='baseline'><strong>Ethan</strong><p>Choose number of points to send.</font><div class='respPicDiv'><img src='img/responseButtonOffersNo0L.png' class='respPic'></div></div>","3","8","Ethan","6","Shared","0.8,0.35","11","0.8","trustrating_stim/white_mw084.bmp","4.5","125","23"
"","","","decisionFB","640132934d00561d78518c4c","bdp_trlrn","Tue Mar 14 2023 13:34:34 GMT-0400 (Eastern Daylight Time)","723718","Untrustworthy,Trustworthy","html-keyboard-response","205","411402","0.0-19.0-2.22","","null","","<div class='trialDiv'><img src='trustrating_stim/white_mw084.bmp'><br><font class='baseline'><strong>Ethan</strong><p>Choose number of points to send.</font><div class='respPicDiv'><img src='img/responseButtonOffersNo0L3.png' class='respPic'></div></div>","null","8","Ethan","6","Shared","0.8,0.35","11","0.8","trustrating_stim/white_mw084.bmp","4.5","122","23"
"","","","feedback","640132934d00561d78518c4c","bdp_trlrn","Tue Mar 14 2023 13:34:34 GMT-0400 (Eastern Daylight Time)","723718","Untrustworthy,Trustworthy","html-keyboard-response","206","412409","0.0-19.0-3.22","","null","","<div class='trialDiv'><img src='trustrating_stim/white_mw084.bmp'><br><font class='baseline'><strong>Ethan</strong><p>Received: <strong>12</strong></font> &nbsp; &nbsp; &nbsp; &nbsp; &nbsp; &nbsp;<font class='posOutcome'>Shared back: <strong>6</strong></font></font><div class='respPicDiv'><img src='img/responseButtonOffersNo0_wht.png' class='respPic'></div></div>","null","8","Ethan","6","Shared","0.8,0.35","11","0.8","trustrating_stim/white_mw084.bmp","4.5","128","23"
"","","","decision","640132934d00561d78518c4c","bdp_trlrn","Tue Mar 14 2023 13:34:34 GMT-0400 (Eastern Daylight Time)","723718","Untrustworthy,Trustworthy","html-keyboard-response","207","413489","0.0-19.0-1.23","","1079","","<div class='trialDiv'><img src='trustrating_stim/white_mw066.bmp'><br><font class='baseline'><strong>Lucas</strong><p>Choose number of points to send.</font><div class='respPicDiv'><img src='img/responseButtonOffersNo0L.png' class='respPic'></div></div>","4","8","Lucas","8","Kept","0.2,0.65","12","0.2","trustrating_stim/white_mw066.bmp","6","133","24"
"","","","decisionFB","640132934d00561d78518c4c","bdp_trlrn","Tue Mar 14 2023 13:34:34 GMT-0400 (Eastern Daylight Time)","723718","Untrustworthy,Trustworthy","html-keyboard-response","208","413742","0.0-19.0-2.23","","null","","<div class='trialDiv'><img src='trustrating_stim/white_mw066.bmp'><br><font class='baseline'><strong>Lucas</strong><p>Choose number of points to send.</font><div class='respPicDiv'><img src='img/responseButtonOffersNo0L4.png' class='respPic'></div></div>","null","8","Lucas","8","Kept","0.2,0.65","12","0.2","trustrating_stim/white_mw066.bmp","6","129","24"
"","","","feedback","640132934d00561d78518c4c","bdp_trlrn","Tue Mar 14 2023 13:34:34 GMT-0400 (Eastern Daylight Time)","723718","Untrustworthy,Trustworthy","html-keyboard-response","209","414748","0.0-19.0-3.23","","null","","<div class='trialDiv'><img src='trustrating_stim/white_mw066.bmp'><br><font class='baseline'><strong>Lucas</strong><p>Received: <strong>16</strong></font> &nbsp; &nbsp; &nbsp; &nbsp; &nbsp; &nbsp;<font class='negOutcome'>Shared back: <strong>0</strong></font></font><div class='respPicDiv'><img src='img/responseButtonOffersNo0_wht.png' class='respPic'></div></div>","null","8","Lucas","8","Kept","0.2,0.65","12","0.2","trustrating_stim/white_mw066.bmp","6","129","24"
"","","","decision","640132934d00561d78518c4c","bdp_trlrn","Tue Mar 14 2023 13:34:34 GMT-0400 (Eastern Daylight Time)","723718","Untrustworthy,Trustworthy","html-keyboard-response","210","415838","0.0-19.0-1.24","","1088","","<div class='trialDiv'><img src='trustrating_stim/white_00757_941201_fa_edt.bmp'><br><font class='baseline'><strong>Brian</strong><p>Choose number of points to send.</font><div class='respPicDiv'><img src='img/responseButtonOffersNo0L.png' class='respPic'></div></div>","5","9","Brian","3","Kept","0.2,0.8","8","0.2","trustrating_stim/white_00757_941201_fa_edt.bmp","3","134","25"
"","","","decisionFB","640132934d00561d78518c4c","bdp_trlrn","Tue Mar 14 2023 13:34:34 GMT-0400 (Eastern Daylight Time)","723718","Untrustworthy,Trustworthy","html-keyboard-response","211","416096","0.0-19.0-2.24","","null","","<div class='trialDiv'><img src='trustrating_stim/white_00757_941201_fa_edt.bmp'><br><font class='baseline'><strong>Brian</strong><p>Choose number of points to send.</font><div class='respPicDiv'><img src='img/responseButtonOffersNo0L5.png' class='respPic'></div></div>","null","9","Brian","3","Kept","0.2,0.8","8","0.2","trustrating_stim/white_00757_941201_fa_edt.bmp","3","129","25"
"","","","feedback","640132934d00561d78518c4c","bdp_trlrn","Tue Mar 14 2023 13:34:34 GMT-0400 (Eastern Daylight Time)","723718","Untrustworthy,Trustworthy","html-keyboard-response","212","417105","0.0-19.0-3.24","","null","","<div class='trialDiv'><img src='trustrating_stim/white_00757_941201_fa_edt.bmp'><br><font class='baseline'><strong>Brian</strong><p>Received: <strong>20</strong></font> &nbsp; &nbsp; &nbsp; &nbsp; &nbsp; &nbsp;<font class='negOutcome'>Shared back: <strong>0</strong></font></font><div class='respPicDiv'><img src='img/responseButtonOffersNo0_wht.png' class='respPic'></div></div>","null","9","Brian","3","Kept","0.2,0.8","8","0.2","trustrating_stim/white_00757_941201_fa_edt.bmp","3","129","25"
"","","","decision","640132934d00561d78518c4c","bdp_trlrn","Tue Mar 14 2023 13:34:34 GMT-0400 (Eastern Daylight Time)","723718","Untrustworthy,Trustworthy","html-keyboard-response","213","418451","0.0-19.0-1.25","","1345","","<div class='trialDiv'><img src='trustrating_stim/white_mw084.bmp'><br><font class='baseline'><strong>Ethan</strong><p>Choose number of points to send.</font><div class='respPicDiv'><img src='img/responseButtonOffersNo0L.png' class='respPic'></div></div>","3","9","Ethan","6","Kept","0.8,0.35","11","0.8","trustrating_stim/white_mw084.bmp","4.5","134","26"
"","","","decisionFB","640132934d00561d78518c4c","bdp_trlrn","Tue Mar 14 2023 13:34:34 GMT-0400 (Eastern Daylight Time)","723718","Untrustworthy,Trustworthy","html-keyboard-response","214","418707","0.0-19.0-2.25","","null","","<div class='trialDiv'><img src='trustrating_stim/white_mw084.bmp'><br><font class='baseline'><strong>Ethan</strong><p>Choose number of points to send.</font><div class='respPicDiv'><img src='img/responseButtonOffersNo0L3.png' class='respPic'></div></div>","null","9","Ethan","6","Kept","0.8,0.35","11","0.8","trustrating_stim/white_mw084.bmp","4.5","131","26"
"","","","feedback","640132934d00561d78518c4c","bdp_trlrn","Tue Mar 14 2023 13:34:34 GMT-0400 (Eastern Daylight Time)","723718","Untrustworthy,Trustworthy","html-keyboard-response","215","419715","0.0-19.0-3.25","","null","","<div class='trialDiv'><img src='trustrating_stim/white_mw084.bmp'><br><font class='baseline'><strong>Ethan</strong><p>Received: <strong>12</strong></font> &nbsp; &nbsp; &nbsp; &nbsp; &nbsp; &nbsp;<font class='negOutcome'>Shared back: <strong>0</strong></font></font><div class='respPicDiv'><img src='img/responseButtonOffersNo0_wht.png' class='respPic'></div></div>","null","9","Ethan","6","Kept","0.8,0.35","11","0.8","trustrating_stim/white_mw084.bmp","4.5","131","26"
"","","","decision","640132934d00561d78518c4c","bdp_trlrn","Tue Mar 14 2023 13:34:34 GMT-0400 (Eastern Daylight Time)","723718","Untrustworthy,Trustworthy","html-keyboard-response","216","420650","0.0-19.0-1.26","","935","","<div class='trialDiv'><img src='trustrating_stim/white_mw066.bmp'><br><font class='baseline'><strong>Lucas</strong><p>Choose number of points to send.</font><div class='respPicDiv'><img src='img/responseButtonOffersNo0L.png' class='respPic'></div></div>","4","9","Lucas","8","Kept","0.2,0.65","12","0.2","trustrating_stim/white_mw066.bmp","6","136","27"
"","","","decisionFB","640132934d00561d78518c4c","bdp_trlrn","Tue Mar 14 2023 13:34:34 GMT-0400 (Eastern Daylight Time)","723718","Untrustworthy,Trustworthy","html-keyboard-response","217","420909","0.0-19.0-2.26","","null","","<div class='trialDiv'><img src='trustrating_stim/white_mw066.bmp'><br><font class='baseline'><strong>Lucas</strong><p>Choose number of points to send.</font><div class='respPicDiv'><img src='img/responseButtonOffersNo0L4.png' class='respPic'></div></div>","null","9","Lucas","8","Kept","0.2,0.65","12","0.2","trustrating_stim/white_mw066.bmp","6","132","27"
"","","","feedback","640132934d00561d78518c4c","bdp_trlrn","Tue Mar 14 2023 13:34:34 GMT-0400 (Eastern Daylight Time)","723718","Untrustworthy,Trustworthy","html-keyboard-response","218","421917","0.0-19.0-3.26","","null","","<div class='trialDiv'><img src='trustrating_stim/white_mw066.bmp'><br><font class='baseline'><strong>Lucas</strong><p>Received: <strong>16</strong></font> &nbsp; &nbsp; &nbsp; &nbsp; &nbsp; &nbsp;<font class='negOutcome'>Shared back: <strong>0</strong></font></font><div class='respPicDiv'><img src='img/responseButtonOffersNo0_wht.png' class='respPic'></div></div>","null","9","Lucas","8","Kept","0.2,0.65","12","0.2","trustrating_stim/white_mw066.bmp","6","132","27"
"","","","decision","640132934d00561d78518c4c","bdp_trlrn","Tue Mar 14 2023 13:34:34 GMT-0400 (Eastern Daylight Time)","723718","Untrustworthy,Trustworthy","html-keyboard-response","219","423083","0.0-19.0-1.27","","1165","","<div class='trialDiv'><img src='trustrating_stim/white_00757_941201_fa_edt.bmp'><br><font class='baseline'><strong>Brian</strong><p>Choose number of points to send.</font><div class='respPicDiv'><img src='img/responseButtonOffersNo0L.png' class='respPic'></div></div>","5","10","Brian","3","Shared","0.2,0.8","8","0.2","trustrating_stim/white_00757_941201_fa_edt.bmp","3","137","28"
"","","","decisionFB","640132934d00561d78518c4c","bdp_trlrn","Tue Mar 14 2023 13:34:34 GMT-0400 (Eastern Daylight Time)","723718","Untrustworthy,Trustworthy","html-keyboard-response","220","423342","0.0-19.0-2.27","","null","","<div class='trialDiv'><img src='trustrating_stim/white_00757_941201_fa_edt.bmp'><br><font class='baseline'><strong>Brian</strong><p>Choose number of points to send.</font><div class='respPicDiv'><img src='img/responseButtonOffersNo0L5.png' class='respPic'></div></div>","null","10","Brian","3","Shared","0.2,0.8","8","0.2","trustrating_stim/white_00757_941201_fa_edt.bmp","3","132","28"
"","","","feedback","640132934d00561d78518c4c","bdp_trlrn","Tue Mar 14 2023 13:34:34 GMT-0400 (Eastern Daylight Time)","723718","Untrustworthy,Trustworthy","html-keyboard-response","221","424351","0.0-19.0-3.27","","null","","<div class='trialDiv'><img src='trustrating_stim/white_00757_941201_fa_edt.bmp'><br><font class='baseline'><strong>Brian</strong><p>Received: <strong>20</strong></font> &nbsp; &nbsp; &nbsp; &nbsp; &nbsp; &nbsp;<font class='posOutcome'>Shared back: <strong>10</strong></font></font><div class='respPicDiv'><img src='img/responseButtonOffersNo0_wht.png' class='respPic'></div></div>","null","10","Brian","3","Shared","0.2,0.8","8","0.2","trustrating_stim/white_00757_941201_fa_edt.bmp","3","142","28"
