"trial_type","trial_index","time_elapsed","internal_node_id","subject_id","task","startTime","totalTime","labels","view_history","rt","event","trial","time","trialtype","success","stimulus","key_press","aground","name","faceID","outcome","agenttype","agentswpt","agentcurrpshare","face","avgRating","point_total","round"
"pavlovia","0","1","0.0-0.0","63034df51d918e1e3b97e5ce","bdp_trlrn","Wed Mar 15 2023 23:42:29 GMT-0400 (Eastern Daylight Time)","821024","Untrustworthy,Trustworthy","","","","","","","","","","","","","","","","","","","",""
"instructions","1","4869","0.0-1.0","63034df51d918e1e3b97e5ce","bdp_trlrn","Wed Mar 15 2023 23:42:29 GMT-0400 (Eastern Daylight Time)","821024","Untrustworthy,Trustworthy","[{""page_index"":0,""viewing_time"":4868}]","4868","","","","","","","","","","","","","","","","","",""
"","","","","63034df51d918e1e3b97e5ce","bdp_trlrn","Wed Mar 15 2023 23:42:29 GMT-0400 (Eastern Daylight Time)","821024","Untrustworthy,Trustworthy","","","fullscreenenter","2","7963","fullscreenenter","","","","","","","","","","","","","",""
"fullscreen","2","8956","0.0-2.0","63034df51d918e1e3b97e5ce","bdp_trlrn","Wed Mar 15 2023 23:42:29 GMT-0400 (Eastern Daylight Time)","821024","Untrustworthy,Trustworthy","","","","","","","true","","","","","","","","","","","","",""
"instructions","3","19493","0.0-4.0","63034df51d918e1e3b97e5ce","bdp_trlrn","Wed Mar 15 2023 23:42:29 GMT-0400 (Eastern Daylight Time)","821024","Untrustworthy,Trustworthy","[{""page_index"":0,""viewing_time"":8394},{""page_index"":1,""viewing_time"":2142}]","10536","","","","","","","","","","","","","","","","","",""
"instructions","4","23357","0.0-5.0","63034df51d918e1e3b97e5ce","bdp_trlrn","Wed Mar 15 2023 23:42:29 GMT-0400 (Eastern Daylight Time)","821024","Untrustworthy,Trustworthy","[{""page_index"":0,""viewing_time"":3864}]","3864","","","","","","","","","","","","","","","","","",""
"image-keyboard-response","5","27970","0.0-6.0-1.0","63034df51d918e1e3b97e5ce","bdp_trlrn","Wed Mar 15 2023 23:42:29 GMT-0400 (Eastern Daylight Time)","821024","Untrustworthy,Trustworthy","","4504","","","","rating","","trustrating_stim/white_00898_960530_fa_edt.bmp","4","","","","","","","","","","",""
"image-keyboard-response","6","28186","0.0-6.0-2.0","63034df51d918e1e3b97e5ce","bdp_trlrn","Wed Mar 15 2023 23:42:29 GMT-0400 (Eastern Daylight Time)","821024","Untrustworthy,Trustworthy","","null","","","","ratingFB","","trustrating_stim/white_00898_960530_fa_edt.bmp","null","","","","","","","","","","",""
"image-keyboard-response","7","30482","0.0-6.0-1.1","63034df51d918e1e3b97e5ce","bdp_trlrn","Wed Mar 15 2023 23:42:29 GMT-0400 (Eastern Daylight Time)","821024","Untrustworthy,Trustworthy","","2184","","","","rating","","trustrating_stim/white_mw056.bmp","3","","","","","","","","","","",""
"image-keyboard-response","8","30690","0.0-6.0-2.1","63034df51d918e1e3b97e5ce","bdp_trlrn","Wed Mar 15 2023 23:42:29 GMT-0400 (Eastern Daylight Time)","821024","Untrustworthy,Trustworthy","","null","","","","ratingFB","","trustrating_stim/white_mw056.bmp","null","","","","","","","","","","",""
"image-keyboard-response","9","34004","0.0-6.0-1.2","63034df51d918e1e3b97e5ce","bdp_trlrn","Wed Mar 15 2023 23:42:29 GMT-0400 (Eastern Daylight Time)","821024","Untrustworthy,Trustworthy","","3213","","","","rating","","trustrating_stim/white_mw046.bmp","3","","","","","","","","","","",""
"image-keyboard-response","10","34205","0.0-6.0-2.2","63034df51d918e1e3b97e5ce","bdp_trlrn","Wed Mar 15 2023 23:42:29 GMT-0400 (Eastern Daylight Time)","821024","Untrustworthy,Trustworthy","","null","","","","ratingFB","","trustrating_stim/white_mw046.bmp","null","","","","","","","","","","",""
"image-keyboard-response","11","38443","0.0-6.0-1.3","63034df51d918e1e3b97e5ce","bdp_trlrn","Wed Mar 15 2023 23:42:29 GMT-0400 (Eastern Daylight Time)","821024","Untrustworthy,Trustworthy","","4136","","","","rating","","trustrating_stim/white_00129_931230_fb_edt.bmp","5","","","","","","","","","","",""
"image-keyboard-response","12","38645","0.0-6.0-2.3","63034df51d918e1e3b97e5ce","bdp_trlrn","Wed Mar 15 2023 23:42:29 GMT-0400 (Eastern Daylight Time)","821024","Untrustworthy,Trustworthy","","null","","","","ratingFB","","trustrating_stim/white_00129_931230_fb_edt.bmp","null","","","","","","","","","","",""
"image-keyboard-response","13","42073","0.0-6.0-1.4","63034df51d918e1e3b97e5ce","bdp_trlrn","Wed Mar 15 2023 23:42:29 GMT-0400 (Eastern Daylight Time)","821024","Untrustworthy,Trustworthy","","3327","","","","rating","","trustrating_stim/white_00785_941205_fb_edt.bmp","2","","","","","","","","","","",""
"image-keyboard-response","14","42276","0.0-6.0-2.4","63034df51d918e1e3b97e5ce","bdp_trlrn","Wed Mar 15 2023 23:42:29 GMT-0400 (Eastern Daylight Time)","821024","Untrustworthy,Trustworthy","","null","","","","ratingFB","","trustrating_stim/white_00785_941205_fb_edt.bmp","null","","","","","","","","","","",""
"image-keyboard-response","15","45172","0.0-6.0-1.5","63034df51d918e1e3b97e5ce","bdp_trlrn","Wed Mar 15 2023 23:42:29 GMT-0400 (Eastern Daylight Time)","821024","Untrustworthy,Trustworthy","","2795","","","","rating","","trustrating_stim/white_mw063.bmp","2","","","","","","","","","","",""
"image-keyboard-response","16","45375","0.0-6.0-2.5","63034df51d918e1e3b97e5ce","bdp_trlrn","Wed Mar 15 2023 23:42:29 GMT-0400 (Eastern Daylight Time)","821024","Untrustworthy,Trustworthy","","null","","","","ratingFB","","trustrating_stim/white_mw063.bmp","null","","","","","","","","","","",""
"image-keyboard-response","17","47938","0.0-6.0-1.6","63034df51d918e1e3b97e5ce","bdp_trlrn","Wed Mar 15 2023 23:42:29 GMT-0400 (Eastern Daylight Time)","821024","Untrustworthy,Trustworthy","","2461","","","","rating","","trustrating_stim/white_00109_931230_fa_edt.bmp","7","","","","","","","","","","",""
"image-keyboard-response","18","48139","0.0-6.0-2.6","63034df51d918e1e3b97e5ce","bdp_trlrn","Wed Mar 15 2023 23:42:29 GMT-0400 (Eastern Daylight Time)","821024","Untrustworthy,Trustworthy","","null","","","","ratingFB","","trustrating_stim/white_00109_931230_fa_edt.bmp","null","","","","","","","","","","",""
"image-keyboard-response","19","50770","0.0-6.0-1.7","63034df51d918e1e3b97e5ce","bdp_trlrn","Wed Mar 15 2023 23:42:29 GMT-0400 (Eastern Daylight Time)","821024","Untrustworthy,Trustworthy","","2530","","","","rating","","trustrating_stim/white_mw071.bmp","3","","","","","","","","","","",""
"image-keyboard-response","20","50972","0.0-6.0-2.7","63034df51d918e1e3b97e5ce","bdp_trlrn","Wed Mar 15 2023 23:42:29 GMT-0400 (Eastern Daylight Time)","821024","Untrustworthy,Trustworthy","","null","","","","ratingFB","","trustrating_stim/white_mw071.bmp","null","","","","","","","","","","",""
"image-keyboard-response","21","54199","0.0-6.0-1.8","63034df51d918e1e3b97e5ce","bdp_trlrn","Wed Mar 15 2023 23:42:29 GMT-0400 (Eastern Daylight Time)","821024","Untrustworthy,Trustworthy","","3124","","","","rating","","trustrating_stim/white_mw053.bmp","6","","","","","","","","","","",""
"image-keyboard-response","22","54401","0.0-6.0-2.8","63034df51d918e1e3b97e5ce","bdp_trlrn","Wed Mar 15 2023 23:42:29 GMT-0400 (Eastern Daylight Time)","821024","Untrustworthy,Trustworthy","","null","","","","ratingFB","","trustrating_stim/white_mw053.bmp","null","","","","","","","","","","",""
"image-keyboard-response","23","56717","0.0-6.0-1.9","63034df51d918e1e3b97e5ce","bdp_trlrn","Wed Mar 15 2023 23:42:29 GMT-0400 (Eastern Daylight Time)","821024","Untrustworthy,Trustworthy","","2214","","","","rating","","trustrating_stim/white_mw099.bmp","4","","","","","","","","","","",""
"image-keyboard-response","24","56918","0.0-6.0-2.9","63034df51d918e1e3b97e5ce","bdp_trlrn","Wed Mar 15 2023 23:42:29 GMT-0400 (Eastern Daylight Time)","821024","Untrustworthy,Trustworthy","","null","","","","ratingFB","","trustrating_stim/white_mw099.bmp","null","","","","","","","","","","",""
"image-keyboard-response","25","61664","0.0-6.0-1.10","63034df51d918e1e3b97e5ce","bdp_trlrn","Wed Mar 15 2023 23:42:29 GMT-0400 (Eastern Daylight Time)","821024","Untrustworthy,Trustworthy","","4643","","","","rating","","trustrating_stim/white_mw048.bmp","1","","","","","","","","","","",""
"image-keyboard-response","26","61865","0.0-6.0-2.10","63034df51d918e1e3b97e5ce","bdp_trlrn","Wed Mar 15 2023 23:42:29 GMT-0400 (Eastern Daylight Time)","821024","Untrustworthy,Trustworthy","","null","","","","ratingFB","","trustrating_stim/white_mw048.bmp","null","","","","","","","","","","",""
"image-keyboard-response","27","64764","0.0-6.0-1.11","63034df51d918e1e3b97e5ce","bdp_trlrn","Wed Mar 15 2023 23:42:29 GMT-0400 (Eastern Daylight Time)","821024","Untrustworthy,Trustworthy","","2798","","","","rating","","trustrating_stim/white_mw035.bmp","4","","","","","","","","","","",""
"image-keyboard-response","28","64965","0.0-6.0-2.11","63034df51d918e1e3b97e5ce","bdp_trlrn","Wed Mar 15 2023 23:42:29 GMT-0400 (Eastern Daylight Time)","821024","Untrustworthy,Trustworthy","","null","","","","ratingFB","","trustrating_stim/white_mw035.bmp","null","","","","","","","","","","",""
"image-keyboard-response","29","68744","0.0-6.0-1.12","63034df51d918e1e3b97e5ce","bdp_trlrn","Wed Mar 15 2023 23:42:29 GMT-0400 (Eastern Daylight Time)","821024","Untrustworthy,Trustworthy","","3678","","","","rating","","trustrating_stim/white_00519_940519_fb_edt.bmp","7","","","","","","","","","","",""
"image-keyboard-response","30","68947","0.0-6.0-2.12","63034df51d918e1e3b97e5ce","bdp_trlrn","Wed Mar 15 2023 23:42:29 GMT-0400 (Eastern Daylight Time)","821024","Untrustworthy,Trustworthy","","null","","","","ratingFB","","trustrating_stim/white_00519_940519_fb_edt.bmp","null","","","","","","","","","","",""
"image-keyboard-response","31","70872","0.0-6.0-1.13","63034df51d918e1e3b97e5ce","bdp_trlrn","Wed Mar 15 2023 23:42:29 GMT-0400 (Eastern Daylight Time)","821024","Untrustworthy,Trustworthy","","1824","","","","rating","","trustrating_stim/white_00120_931230_fa_edt.bmp","6","","","","","","","","","","",""
"image-keyboard-response","32","71074","0.0-6.0-2.13","63034df51d918e1e3b97e5ce","bdp_trlrn","Wed Mar 15 2023 23:42:29 GMT-0400 (Eastern Daylight Time)","821024","Untrustworthy,Trustworthy","","null","","","","ratingFB","","trustrating_stim/white_00120_931230_fa_edt.bmp","null","","","","","","","","","","",""
"image-keyboard-response","33","73725","0.0-6.0-1.14","63034df51d918e1e3b97e5ce","bdp_trlrn","Wed Mar 15 2023 23:42:29 GMT-0400 (Eastern Daylight Time)","821024","Untrustworthy,Trustworthy","","2549","","","","rating","","trustrating_stim/white_00761_941201_fb_edt.bmp","7","","","","","","","","","","",""
"image-keyboard-response","34","73927","0.0-6.0-2.14","63034df51d918e1e3b97e5ce","bdp_trlrn","Wed Mar 15 2023 23:42:29 GMT-0400 (Eastern Daylight Time)","821024","Untrustworthy,Trustworthy","","null","","","","ratingFB","","trustrating_stim/white_00761_941201_fb_edt.bmp","null","","","","","","","","","","",""
"image-keyboard-response","35","76111","0.0-6.0-1.15","63034df51d918e1e3b97e5ce","bdp_trlrn","Wed Mar 15 2023 23:42:29 GMT-0400 (Eastern Daylight Time)","821024","Untrustworthy,Trustworthy","","2083","","","","rating","","trustrating_stim/white_mw033.bmp","4","","","","","","","","","","",""
"image-keyboard-response","36","76312","0.0-6.0-2.15","63034df51d918e1e3b97e5ce","bdp_trlrn","Wed Mar 15 2023 23:42:29 GMT-0400 (Eastern Daylight Time)","821024","Untrustworthy,Trustworthy","","null","","","","ratingFB","","trustrating_stim/white_mw033.bmp","null","","","","","","","","","","",""
"image-keyboard-response","37","78435","0.0-6.0-1.16","63034df51d918e1e3b97e5ce","bdp_trlrn","Wed Mar 15 2023 23:42:29 GMT-0400 (Eastern Daylight Time)","821024","Untrustworthy,Trustworthy","","2021","","","","rating","","trustrating_stim/white_00299_940422_fa_edt.bmp","3","","","","","","","","","","",""
"image-keyboard-response","38","78638","0.0-6.0-2.16","63034df51d918e1e3b97e5ce","bdp_trlrn","Wed Mar 15 2023 23:42:29 GMT-0400 (Eastern Daylight Time)","821024","Untrustworthy,Trustworthy","","null","","","","ratingFB","","trustrating_stim/white_00299_940422_fa_edt.bmp","null","","","","","","","","","","",""
"image-keyboard-response","39","80930","0.0-6.0-1.17","63034df51d918e1e3b97e5ce","bdp_trlrn","Wed Mar 15 2023 23:42:29 GMT-0400 (Eastern Daylight Time)","821024","Untrustworthy,Trustworthy","","2190","","","","rating","","trustrating_stim/white_00340_940422_fa_edt.bmp","3","","","","","","","","","","",""
"image-keyboard-response","40","81131","0.0-6.0-2.17","63034df51d918e1e3b97e5ce","bdp_trlrn","Wed Mar 15 2023 23:42:29 GMT-0400 (Eastern Daylight Time)","821024","Untrustworthy,Trustworthy","","null","","","","ratingFB","","trustrating_stim/white_00340_940422_fa_edt.bmp","null","","","","","","","","","","",""
"image-keyboard-response","41","83752","0.0-6.0-1.18","63034df51d918e1e3b97e5ce","bdp_trlrn","Wed Mar 15 2023 23:42:29 GMT-0400 (Eastern Daylight Time)","821024","Untrustworthy,Trustworthy","","2520","","","","rating","","trustrating_stim/white_mw084.bmp","2","","","","","","","","","","",""
"image-keyboard-response","42","83954","0.0-6.0-2.18","63034df51d918e1e3b97e5ce","bdp_trlrn","Wed Mar 15 2023 23:42:29 GMT-0400 (Eastern Daylight Time)","821024","Untrustworthy,Trustworthy","","null","","","","ratingFB","","trustrating_stim/white_mw084.bmp","null","","","","","","","","","","",""
"image-keyboard-response","43","87552","0.0-6.0-1.19","63034df51d918e1e3b97e5ce","bdp_trlrn","Wed Mar 15 2023 23:42:29 GMT-0400 (Eastern Daylight Time)","821024","Untrustworthy,Trustworthy","","3497","","","","rating","","trustrating_stim/white_00223_940128_fb_edt.bmp","4","","","","","","","","","","",""
"image-keyboard-response","44","87754","0.0-6.0-2.19","63034df51d918e1e3b97e5ce","bdp_trlrn","Wed Mar 15 2023 23:42:29 GMT-0400 (Eastern Daylight Time)","821024","Untrustworthy,Trustworthy","","null","","","","ratingFB","","trustrating_stim/white_00223_940128_fb_edt.bmp","null","","","","","","","","","","",""
"image-keyboard-response","45","90704","0.0-6.0-1.20","63034df51d918e1e3b97e5ce","bdp_trlrn","Wed Mar 15 2023 23:42:29 GMT-0400 (Eastern Daylight Time)","821024","Untrustworthy,Trustworthy","","2849","","","","rating","","trustrating_stim/white_00602_940928_fb_edt.bmp","6","","","","","","","","","","",""
"image-keyboard-response","46","90906","0.0-6.0-2.20","63034df51d918e1e3b97e5ce","bdp_trlrn","Wed Mar 15 2023 23:42:29 GMT-0400 (Eastern Daylight Time)","821024","Untrustworthy,Trustworthy","","null","","","","ratingFB","","trustrating_stim/white_00602_940928_fb_edt.bmp","null","","","","","","","","","","",""
"image-keyboard-response","47","93172","0.0-6.0-1.21","63034df51d918e1e3b97e5ce","bdp_trlrn","Wed Mar 15 2023 23:42:29 GMT-0400 (Eastern Daylight Time)","821024","Untrustworthy,Trustworthy","","2164","","","","rating","","trustrating_stim/white_mw049.bmp","4","","","","","","","","","","",""
"image-keyboard-response","48","93374","0.0-6.0-2.21","63034df51d918e1e3b97e5ce","bdp_trlrn","Wed Mar 15 2023 23:42:29 GMT-0400 (Eastern Daylight Time)","821024","Untrustworthy,Trustworthy","","null","","","","ratingFB","","trustrating_stim/white_mw049.bmp","null","","","","","","","","","","",""
"image-keyboard-response","49","97003","0.0-6.0-1.22","63034df51d918e1e3b97e5ce","bdp_trlrn","Wed Mar 15 2023 23:42:29 GMT-0400 (Eastern Daylight Time)","821024","Untrustworthy,Trustworthy","","3528","","","","rating","","trustrating_stim/white_mw089.bmp","2","","","","","","","","","","",""
"image-keyboard-response","50","97204","0.0-6.0-2.22","63034df51d918e1e3b97e5ce","bdp_trlrn","Wed Mar 15 2023 23:42:29 GMT-0400 (Eastern Daylight Time)","821024","Untrustworthy,Trustworthy","","null","","","","ratingFB","","trustrating_stim/white_mw089.bmp","null","","","","","","","","","","",""
"image-keyboard-response","51","101166","0.0-6.0-1.23","63034df51d918e1e3b97e5ce","bdp_trlrn","Wed Mar 15 2023 23:42:29 GMT-0400 (Eastern Daylight Time)","821024","Untrustworthy,Trustworthy","","3860","","","","rating","","trustrating_stim/white_mw097.bmp","3","","","","","","","","","","",""
"image-keyboard-response","52","101367","0.0-6.0-2.23","63034df51d918e1e3b97e5ce","bdp_trlrn","Wed Mar 15 2023 23:42:29 GMT-0400 (Eastern Daylight Time)","821024","Untrustworthy,Trustworthy","","null","","","","ratingFB","","trustrating_stim/white_mw097.bmp","null","","","","","","","","","","",""
"image-keyboard-response","53","103990","0.0-6.0-1.24","63034df51d918e1e3b97e5ce","bdp_trlrn","Wed Mar 15 2023 23:42:29 GMT-0400 (Eastern Daylight Time)","821024","Untrustworthy,Trustworthy","","2521","","","","rating","","trustrating_stim/white_00659_941121_fa_edt.bmp","3","","","","","","","","","","",""
"image-keyboard-response","54","104192","0.0-6.0-2.24","63034df51d918e1e3b97e5ce","bdp_trlrn","Wed Mar 15 2023 23:42:29 GMT-0400 (Eastern Daylight Time)","821024","Untrustworthy,Trustworthy","","null","","","","ratingFB","","trustrating_stim/white_00659_941121_fa_edt.bmp","null","","","","","","","","","","",""
"image-keyboard-response","55","109415","0.0-6.0-1.25","63034df51d918e1e3b97e5ce","bdp_trlrn","Wed Mar 15 2023 23:42:29 GMT-0400 (Eastern Daylight Time)","821024","Untrustworthy,Trustworthy","","5120","","","","rating","","trustrating_stim/white_00757_941201_fa_edt.bmp","4","","","","","","","","","","",""
"image-keyboard-response","56","109616","0.0-6.0-2.25","63034df51d918e1e3b97e5ce","bdp_trlrn","Wed Mar 15 2023 23:42:29 GMT-0400 (Eastern Daylight Time)","821024","Untrustworthy,Trustworthy","","null","","","","ratingFB","","trustrating_stim/white_00757_941201_fa_edt.bmp","null","","","","","","","","","","",""
"image-keyboard-response","57","114417","0.0-6.0-1.26","63034df51d918e1e3b97e5ce","bdp_trlrn","Wed Mar 15 2023 23:42:29 GMT-0400 (Eastern Daylight Time)","821024","Untrustworthy,Trustworthy","","4699","","","","rating","","trustrating_stim/white_00807_941205_fb_edt.bmp","5","","","","","","","","","","",""
"image-keyboard-response","58","114618","0.0-6.0-2.26","63034df51d918e1e3b97e5ce","bdp_trlrn","Wed Mar 15 2023 23:42:29 GMT-0400 (Eastern Daylight Time)","821024","Untrustworthy,Trustworthy","","null","","","","ratingFB","","trustrating_stim/white_00807_941205_fb_edt.bmp","null","","","","","","","","","","",""
"image-keyboard-response","59","117257","0.0-6.0-1.27","63034df51d918e1e3b97e5ce","bdp_trlrn","Wed Mar 15 2023 23:42:29 GMT-0400 (Eastern Daylight Time)","821024","Untrustworthy,Trustworthy","","2538","","","","rating","","trustrating_stim/white_mw066.bmp","6","","","","","","","","","","",""
"image-keyboard-response","60","117460","0.0-6.0-2.27","63034df51d918e1e3b97e5ce","bdp_trlrn","Wed Mar 15 2023 23:42:29 GMT-0400 (Eastern Daylight Time)","821024","Untrustworthy,Trustworthy","","null","","","","ratingFB","","trustrating_stim/white_mw066.bmp","null","","","","","","","","","","",""
"image-keyboard-response","61","118935","0.0-6.0-1.28","63034df51d918e1e3b97e5ce","bdp_trlrn","Wed Mar 15 2023 23:42:29 GMT-0400 (Eastern Daylight Time)","821024","Untrustworthy,Trustworthy","","1374","","","","rating","","trustrating_stim/white_mw060.bmp","3","","","","","","","","","","",""
"image-keyboard-response","62","119137","0.0-6.0-2.28","63034df51d918e1e3b97e5ce","bdp_trlrn","Wed Mar 15 2023 23:42:29 GMT-0400 (Eastern Daylight Time)","821024","Untrustworthy,Trustworthy","","null","","","","ratingFB","","trustrating_stim/white_mw060.bmp","null","","","","","","","","","","",""
"image-keyboard-response","63","120910","0.0-6.0-1.29","63034df51d918e1e3b97e5ce","bdp_trlrn","Wed Mar 15 2023 23:42:29 GMT-0400 (Eastern Daylight Time)","821024","Untrustworthy,Trustworthy","","1672","","","","rating","","trustrating_stim/white_00577_940928_fa_edt.bmp","4","","","","","","","","","","",""
"image-keyboard-response","64","121111","0.0-6.0-2.29","63034df51d918e1e3b97e5ce","bdp_trlrn","Wed Mar 15 2023 23:42:29 GMT-0400 (Eastern Daylight Time)","821024","Untrustworthy,Trustworthy","","null","","","","ratingFB","","trustrating_stim/white_00577_940928_fa_edt.bmp","null","","","","","","","","","","",""
"image-keyboard-response","65","122704","0.0-6.0-1.30","63034df51d918e1e3b97e5ce","bdp_trlrn","Wed Mar 15 2023 23:42:29 GMT-0400 (Eastern Daylight Time)","821024","Untrustworthy,Trustworthy","","1492","","","","rating","","trustrating_stim/white_mw035.bmp","3","","","","","","","","","","",""
"image-keyboard-response","66","122906","0.0-6.0-2.30","63034df51d918e1e3b97e5ce","bdp_trlrn","Wed Mar 15 2023 23:42:29 GMT-0400 (Eastern Daylight Time)","821024","Untrustworthy,Trustworthy","","null","","","","ratingFB","","trustrating_stim/white_mw035.bmp","null","","","","","","","","","","",""
"image-keyboard-response","67","124976","0.0-6.0-1.31","63034df51d918e1e3b97e5ce","bdp_trlrn","Wed Mar 15 2023 23:42:29 GMT-0400 (Eastern Daylight Time)","821024","Untrustworthy,Trustworthy","","1969","","","","rating","","trustrating_stim/white_00340_940422_fa_edt.bmp","3","","","","","","","","","","",""
"image-keyboard-response","68","125178","0.0-6.0-2.31","63034df51d918e1e3b97e5ce","bdp_trlrn","Wed Mar 15 2023 23:42:29 GMT-0400 (Eastern Daylight Time)","821024","Untrustworthy,Trustworthy","","null","","","","ratingFB","","trustrating_stim/white_00340_940422_fa_edt.bmp","null","","","","","","","","","","",""
"image-keyboard-response","69","127236","0.0-6.0-1.32","63034df51d918e1e3b97e5ce","bdp_trlrn","Wed Mar 15 2023 23:42:29 GMT-0400 (Eastern Daylight Time)","821024","Untrustworthy,Trustworthy","","1957","","","","rating","","trustrating_stim/white_mw048.bmp","2","","","","","","","","","","",""
"image-keyboard-response","70","127439","0.0-6.0-2.32","63034df51d918e1e3b97e5ce","bdp_trlrn","Wed Mar 15 2023 23:42:29 GMT-0400 (Eastern Daylight Time)","821024","Untrustworthy,Trustworthy","","null","","","","ratingFB","","trustrating_stim/white_mw048.bmp","null","","","","","","","","","","",""
"image-keyboard-response","71","132321","0.0-6.0-1.33","63034df51d918e1e3b97e5ce","bdp_trlrn","Wed Mar 15 2023 23:42:29 GMT-0400 (Eastern Daylight Time)","821024","Untrustworthy,Trustworthy","","4781","","","","rating","","trustrating_stim/white_00602_940928_fb_edt.bmp","7","","","","","","","","","","",""
"image-keyboard-response","72","132524","0.0-6.0-2.33","63034df51d918e1e3b97e5ce","bdp_trlrn","Wed Mar 15 2023 23:42:29 GMT-0400 (Eastern Daylight Time)","821024","Untrustworthy,Trustworthy","","null","","","","ratingFB","","trustrating_stim/white_00602_940928_fb_edt.bmp","null","","","","","","","","","","",""
"image-keyboard-response","73","136001","0.0-6.0-1.34","63034df51d918e1e3b97e5ce","bdp_trlrn","Wed Mar 15 2023 23:42:29 GMT-0400 (Eastern Daylight Time)","821024","Untrustworthy,Trustworthy","","3376","","","","rating","","trustrating_stim/white_00120_931230_fa_edt.bmp","7","","","","","","","","","","",""
"image-keyboard-response","74","136207","0.0-6.0-2.34","63034df51d918e1e3b97e5ce","bdp_trlrn","Wed Mar 15 2023 23:42:29 GMT-0400 (Eastern Daylight Time)","821024","Untrustworthy,Trustworthy","","null","","","","ratingFB","","trustrating_stim/white_00120_931230_fa_edt.bmp","null","","","","","","","","","","",""
"image-keyboard-response","75","139032","0.0-6.0-1.35","63034df51d918e1e3b97e5ce","bdp_trlrn","Wed Mar 15 2023 23:42:29 GMT-0400 (Eastern Daylight Time)","821024","Untrustworthy,Trustworthy","","2724","","","","rating","","trustrating_stim/white_00129_931230_fb_edt.bmp","5","","","","","","","","","","",""
"image-keyboard-response","76","139235","0.0-6.0-2.35","63034df51d918e1e3b97e5ce","bdp_trlrn","Wed Mar 15 2023 23:42:29 GMT-0400 (Eastern Daylight Time)","821024","Untrustworthy,Trustworthy","","null","","","","ratingFB","","trustrating_stim/white_00129_931230_fb_edt.bmp","null","","","","","","","","","","",""
"image-keyboard-response","77","141302","0.0-6.0-1.36","63034df51d918e1e3b97e5ce","bdp_trlrn","Wed Mar 15 2023 23:42:29 GMT-0400 (Eastern Daylight Time)","821024","Untrustworthy,Trustworthy","","1965","","","","rating","","trustrating_stim/white_00109_931230_fa_edt.bmp","6","","","","","","","","","","",""
"image-keyboard-response","78","141514","0.0-6.0-2.36","63034df51d918e1e3b97e5ce","bdp_trlrn","Wed Mar 15 2023 23:42:29 GMT-0400 (Eastern Daylight Time)","821024","Untrustworthy,Trustworthy","","null","","","","ratingFB","","trustrating_stim/white_00109_931230_fa_edt.bmp","null","","","","","","","","","","",""
"image-keyboard-response","79","143606","0.0-6.0-1.37","63034df51d918e1e3b97e5ce","bdp_trlrn","Wed Mar 15 2023 23:42:29 GMT-0400 (Eastern Daylight Time)","821024","Untrustworthy,Trustworthy","","1982","","","","rating","","trustrating_stim/white_00577_940928_fa_edt.bmp","3","","","","","","","","","","",""
"image-keyboard-response","80","143807","0.0-6.0-2.37","63034df51d918e1e3b97e5ce","bdp_trlrn","Wed Mar 15 2023 23:42:29 GMT-0400 (Eastern Daylight Time)","821024","Untrustworthy,Trustworthy","","null","","","","ratingFB","","trustrating_stim/white_00577_940928_fa_edt.bmp","null","","","","","","","","","","",""
"image-keyboard-response","81","148101","0.0-6.0-1.38","63034df51d918e1e3b97e5ce","bdp_trlrn","Wed Mar 15 2023 23:42:29 GMT-0400 (Eastern Daylight Time)","821024","Untrustworthy,Trustworthy","","4193","","","","rating","","trustrating_stim/white_mw053.bmp","6","","","","","","","","","","",""
"image-keyboard-response","82","148317","0.0-6.0-2.38","63034df51d918e1e3b97e5ce","bdp_trlrn","Wed Mar 15 2023 23:42:29 GMT-0400 (Eastern Daylight Time)","821024","Untrustworthy,Trustworthy","","null","","","","ratingFB","","trustrating_stim/white_mw053.bmp","null","","","","","","","","","","",""
"image-keyboard-response","83","150493","0.0-6.0-1.39","63034df51d918e1e3b97e5ce","bdp_trlrn","Wed Mar 15 2023 23:42:29 GMT-0400 (Eastern Daylight Time)","821024","Untrustworthy,Trustworthy","","2074","","","","rating","","trustrating_stim/white_mw049.bmp","4","","","","","","","","","","",""
"image-keyboard-response","84","150694","0.0-6.0-2.39","63034df51d918e1e3b97e5ce","bdp_trlrn","Wed Mar 15 2023 23:42:29 GMT-0400 (Eastern Daylight Time)","821024","Untrustworthy,Trustworthy","","null","","","","ratingFB","","trustrating_stim/white_mw049.bmp","null","","","","","","","","","","",""
"image-keyboard-response","85","151823","0.0-6.0-1.40","63034df51d918e1e3b97e5ce","bdp_trlrn","Wed Mar 15 2023 23:42:29 GMT-0400 (Eastern Daylight Time)","821024","Untrustworthy,Trustworthy","","1027","","","","rating","","trustrating_stim/white_00757_941201_fa_edt.bmp","3","","","","","","","","","","",""
"image-keyboard-response","86","152024","0.0-6.0-2.40","63034df51d918e1e3b97e5ce","bdp_trlrn","Wed Mar 15 2023 23:42:29 GMT-0400 (Eastern Daylight Time)","821024","Untrustworthy,Trustworthy","","null","","","","ratingFB","","trustrating_stim/white_00757_941201_fa_edt.bmp","null","","","","","","","","","","",""
"image-keyboard-response","87","153357","0.0-6.0-1.41","63034df51d918e1e3b97e5ce","bdp_trlrn","Wed Mar 15 2023 23:42:29 GMT-0400 (Eastern Daylight Time)","821024","Untrustworthy,Trustworthy","","1230","","","","rating","","trustrating_stim/white_mw099.bmp","2","","","","","","","","","","",""
"image-keyboard-response","88","153559","0.0-6.0-2.41","63034df51d918e1e3b97e5ce","bdp_trlrn","Wed Mar 15 2023 23:42:29 GMT-0400 (Eastern Daylight Time)","821024","Untrustworthy,Trustworthy","","null","","","","ratingFB","","trustrating_stim/white_mw099.bmp","null","","","","","","","","","","",""
"image-keyboard-response","89","156224","0.0-6.0-1.42","63034df51d918e1e3b97e5ce","bdp_trlrn","Wed Mar 15 2023 23:42:29 GMT-0400 (Eastern Daylight Time)","821024","Untrustworthy,Trustworthy","","2563","","","","rating","","trustrating_stim/white_mw071.bmp","3","","","","","","","","","","",""
"image-keyboard-response","90","156425","0.0-6.0-2.42","63034df51d918e1e3b97e5ce","bdp_trlrn","Wed Mar 15 2023 23:42:29 GMT-0400 (Eastern Daylight Time)","821024","Untrustworthy,Trustworthy","","null","","","","ratingFB","","trustrating_stim/white_mw071.bmp","null","","","","","","","","","","",""
"image-keyboard-response","91","158918","0.0-6.0-1.43","63034df51d918e1e3b97e5ce","bdp_trlrn","Wed Mar 15 2023 23:42:29 GMT-0400 (Eastern Daylight Time)","821024","Untrustworthy,Trustworthy","","2391","","","","rating","","trustrating_stim/white_00785_941205_fb_edt.bmp","3","","","","","","","","","","",""
"image-keyboard-response","92","159119","0.0-6.0-2.43","63034df51d918e1e3b97e5ce","bdp_trlrn","Wed Mar 15 2023 23:42:29 GMT-0400 (Eastern Daylight Time)","821024","Untrustworthy,Trustworthy","","null","","","","ratingFB","","trustrating_stim/white_00785_941205_fb_edt.bmp","null","","","","","","","","","","",""
"image-keyboard-response","93","164891","0.0-6.0-1.44","63034df51d918e1e3b97e5ce","bdp_trlrn","Wed Mar 15 2023 23:42:29 GMT-0400 (Eastern Daylight Time)","821024","Untrustworthy,Trustworthy","","5670","","","","rating","","trustrating_stim/white_00519_940519_fb_edt.bmp","5","","","","","","","","","","",""
"image-keyboard-response","94","165094","0.0-6.0-2.44","63034df51d918e1e3b97e5ce","bdp_trlrn","Wed Mar 15 2023 23:42:29 GMT-0400 (Eastern Daylight Time)","821024","Untrustworthy,Trustworthy","","null","","","","ratingFB","","trustrating_stim/white_00519_940519_fb_edt.bmp","null","","","","","","","","","","",""
"image-keyboard-response","95","167751","0.0-6.0-1.45","63034df51d918e1e3b97e5ce","bdp_trlrn","Wed Mar 15 2023 23:42:29 GMT-0400 (Eastern Daylight Time)","821024","Untrustworthy,Trustworthy","","2555","","","","rating","","trustrating_stim/white_00898_960530_fa_edt.bmp","4","","","","","","","","","","",""
"image-keyboard-response","96","167953","0.0-6.0-2.45","63034df51d918e1e3b97e5ce","bdp_trlrn","Wed Mar 15 2023 23:42:29 GMT-0400 (Eastern Daylight Time)","821024","Untrustworthy,Trustworthy","","null","","","","ratingFB","","trustrating_stim/white_00898_960530_fa_edt.bmp","null","","","","","","","","","","",""
"image-keyboard-response","97","171032","0.0-6.0-1.46","63034df51d918e1e3b97e5ce","bdp_trlrn","Wed Mar 15 2023 23:42:29 GMT-0400 (Eastern Daylight Time)","821024","Untrustworthy,Trustworthy","","2977","","","","rating","","trustrating_stim/white_mw060.bmp","4","","","","","","","","","","",""
"image-keyboard-response","98","171233","0.0-6.0-2.46","63034df51d918e1e3b97e5ce","bdp_trlrn","Wed Mar 15 2023 23:42:29 GMT-0400 (Eastern Daylight Time)","821024","Untrustworthy,Trustworthy","","null","","","","ratingFB","","trustrating_stim/white_mw060.bmp","null","","","","","","","","","","",""
"image-keyboard-response","99","174658","0.0-6.0-1.47","63034df51d918e1e3b97e5ce","bdp_trlrn","Wed Mar 15 2023 23:42:29 GMT-0400 (Eastern Daylight Time)","821024","Untrustworthy,Trustworthy","","3322","","","","rating","","trustrating_stim/white_mw084.bmp","5","","","","","","","","","","",""
"image-keyboard-response","100","174859","0.0-6.0-2.47","63034df51d918e1e3b97e5ce","bdp_trlrn","Wed Mar 15 2023 23:42:29 GMT-0400 (Eastern Daylight Time)","821024","Untrustworthy,Trustworthy","","null","","","","ratingFB","","trustrating_stim/white_mw084.bmp","null","","","","","","","","","","",""
"image-keyboard-response","101","176722","0.0-6.0-1.48","63034df51d918e1e3b97e5ce","bdp_trlrn","Wed Mar 15 2023 23:42:29 GMT-0400 (Eastern Daylight Time)","821024","Untrustworthy,Trustworthy","","1760","","","","rating","","trustrating_stim/white_00223_940128_fb_edt.bmp","3","","","","","","","","","","",""
"image-keyboard-response","102","176924","0.0-6.0-2.48","63034df51d918e1e3b97e5ce","bdp_trlrn","Wed Mar 15 2023 23:42:29 GMT-0400 (Eastern Daylight Time)","821024","Untrustworthy,Trustworthy","","null","","","","ratingFB","","trustrating_stim/white_00223_940128_fb_edt.bmp","null","","","","","","","","","","",""
"image-keyboard-response","103","179963","0.0-6.0-1.49","63034df51d918e1e3b97e5ce","bdp_trlrn","Wed Mar 15 2023 23:42:29 GMT-0400 (Eastern Daylight Time)","821024","Untrustworthy,Trustworthy","","2936","","","","rating","","trustrating_stim/white_mw033.bmp","2","","","","","","","","","","",""
"image-keyboard-response","104","180164","0.0-6.0-2.49","63034df51d918e1e3b97e5ce","bdp_trlrn","Wed Mar 15 2023 23:42:29 GMT-0400 (Eastern Daylight Time)","821024","Untrustworthy,Trustworthy","","null","","","","ratingFB","","trustrating_stim/white_mw033.bmp","null","","","","","","","","","","",""
"image-keyboard-response","105","183371","0.0-6.0-1.50","63034df51d918e1e3b97e5ce","bdp_trlrn","Wed Mar 15 2023 23:42:29 GMT-0400 (Eastern Daylight Time)","821024","Untrustworthy,Trustworthy","","3105","","","","rating","","trustrating_stim/white_mw063.bmp","3","","","","","","","","","","",""
"image-keyboard-response","106","183573","0.0-6.0-2.50","63034df51d918e1e3b97e5ce","bdp_trlrn","Wed Mar 15 2023 23:42:29 GMT-0400 (Eastern Daylight Time)","821024","Untrustworthy,Trustworthy","","null","","","","ratingFB","","trustrating_stim/white_mw063.bmp","null","","","","","","","","","","",""
"image-keyboard-response","107","186949","0.0-6.0-1.51","63034df51d918e1e3b97e5ce","bdp_trlrn","Wed Mar 15 2023 23:42:29 GMT-0400 (Eastern Daylight Time)","821024","Untrustworthy,Trustworthy","","3274","","","","rating","","trustrating_stim/white_mw046.bmp","4","","","","","","","","","","",""
"image-keyboard-response","108","187150","0.0-6.0-2.51","63034df51d918e1e3b97e5ce","bdp_trlrn","Wed Mar 15 2023 23:42:29 GMT-0400 (Eastern Daylight Time)","821024","Untrustworthy,Trustworthy","","null","","","","ratingFB","","trustrating_stim/white_mw046.bmp","null","","","","","","","","","","",""
"image-keyboard-response","109","190736","0.0-6.0-1.52","63034df51d918e1e3b97e5ce","bdp_trlrn","Wed Mar 15 2023 23:42:29 GMT-0400 (Eastern Daylight Time)","821024","Untrustworthy,Trustworthy","","3484","","","","rating","","trustrating_stim/white_mw097.bmp","3","","","","","","","","","","",""
"image-keyboard-response","110","190937","0.0-6.0-2.52","63034df51d918e1e3b97e5ce","bdp_trlrn","Wed Mar 15 2023 23:42:29 GMT-0400 (Eastern Daylight Time)","821024","Untrustworthy,Trustworthy","","null","","","","ratingFB","","trustrating_stim/white_mw097.bmp","null","","","","","","","","","","",""
"image-keyboard-response","111","195320","0.0-6.0-1.53","63034df51d918e1e3b97e5ce","bdp_trlrn","Wed Mar 15 2023 23:42:29 GMT-0400 (Eastern Daylight Time)","821024","Untrustworthy,Trustworthy","","4281","","","","rating","","trustrating_stim/white_mw056.bmp","3","","","","","","","","","","",""
"image-keyboard-response","112","195522","0.0-6.0-2.53","63034df51d918e1e3b97e5ce","bdp_trlrn","Wed Mar 15 2023 23:42:29 GMT-0400 (Eastern Daylight Time)","821024","Untrustworthy,Trustworthy","","null","","","","ratingFB","","trustrating_stim/white_mw056.bmp","null","","","","","","","","","","",""
"image-keyboard-response","113","200007","0.0-6.0-1.54","63034df51d918e1e3b97e5ce","bdp_trlrn","Wed Mar 15 2023 23:42:29 GMT-0400 (Eastern Daylight Time)","821024","Untrustworthy,Trustworthy","","4384","","","","rating","","trustrating_stim/white_00807_941205_fb_edt.bmp","4","","","","","","","","","","",""
"image-keyboard-response","114","200209","0.0-6.0-2.54","63034df51d918e1e3b97e5ce","bdp_trlrn","Wed Mar 15 2023 23:42:29 GMT-0400 (Eastern Daylight Time)","821024","Untrustworthy,Trustworthy","","null","","","","ratingFB","","trustrating_stim/white_00807_941205_fb_edt.bmp","null","","","","","","","","","","",""
"image-keyboard-response","115","203281","0.0-6.0-1.55","63034df51d918e1e3b97e5ce","bdp_trlrn","Wed Mar 15 2023 23:42:29 GMT-0400 (Eastern Daylight Time)","821024","Untrustworthy,Trustworthy","","2971","","","","rating","","trustrating_stim/white_00299_940422_fa_edt.bmp","4","","","","","","","","","","",""
"image-keyboard-response","116","203483","0.0-6.0-2.55","63034df51d918e1e3b97e5ce","bdp_trlrn","Wed Mar 15 2023 23:42:29 GMT-0400 (Eastern Daylight Time)","821024","Untrustworthy,Trustworthy","","null","","","","ratingFB","","trustrating_stim/white_00299_940422_fa_edt.bmp","null","","","","","","","","","","",""
"image-keyboard-response","117","208776","0.0-6.0-1.56","63034df51d918e1e3b97e5ce","bdp_trlrn","Wed Mar 15 2023 23:42:29 GMT-0400 (Eastern Daylight Time)","821024","Untrustworthy,Trustworthy","","5191","","","","rating","","trustrating_stim/white_mw089.bmp","3","","","","","","","","","","",""
"image-keyboard-response","118","208977","0.0-6.0-2.56","63034df51d918e1e3b97e5ce","bdp_trlrn","Wed Mar 15 2023 23:42:29 GMT-0400 (Eastern Daylight Time)","821024","Untrustworthy,Trustworthy","","null","","","","ratingFB","","trustrating_stim/white_mw089.bmp","null","","","","","","","","","","",""
"image-keyboard-response","119","211415","0.0-6.0-1.57","63034df51d918e1e3b97e5ce","bdp_trlrn","Wed Mar 15 2023 23:42:29 GMT-0400 (Eastern Daylight Time)","821024","Untrustworthy,Trustworthy","","2337","","","","rating","","trustrating_stim/white_00761_941201_fb_edt.bmp","6","","","","","","","","","","",""
"image-keyboard-response","120","211616","0.0-6.0-2.57","63034df51d918e1e3b97e5ce","bdp_trlrn","Wed Mar 15 2023 23:42:29 GMT-0400 (Eastern Daylight Time)","821024","Untrustworthy,Trustworthy","","null","","","","ratingFB","","trustrating_stim/white_00761_941201_fb_edt.bmp","null","","","","","","","","","","",""
"image-keyboard-response","121","213568","0.0-6.0-1.58","63034df51d918e1e3b97e5ce","bdp_trlrn","Wed Mar 15 2023 23:42:29 GMT-0400 (Eastern Daylight Time)","821024","Untrustworthy,Trustworthy","","1849","","","","rating","","trustrating_stim/white_00659_941121_fa_edt.bmp","5","","","","","","","","","","",""
"image-keyboard-response","122","213770","0.0-6.0-2.58","63034df51d918e1e3b97e5ce","bdp_trlrn","Wed Mar 15 2023 23:42:29 GMT-0400 (Eastern Daylight Time)","821024","Untrustworthy,Trustworthy","","null","","","","ratingFB","","trustrating_stim/white_00659_941121_fa_edt.bmp","null","","","","","","","","","","",""
"image-keyboard-response","123","217320","0.0-6.0-1.59","63034df51d918e1e3b97e5ce","bdp_trlrn","Wed Mar 15 2023 23:42:29 GMT-0400 (Eastern Daylight Time)","821024","Untrustworthy,Trustworthy","","3448","","","","rating","","trustrating_stim/white_mw066.bmp","6","","","","","","","","","","",""
"image-keyboard-response","124","217532","0.0-6.0-2.59","63034df51d918e1e3b97e5ce","bdp_trlrn","Wed Mar 15 2023 23:42:29 GMT-0400 (Eastern Daylight Time)","821024","Untrustworthy,Trustworthy","","null","","","","ratingFB","","trustrating_stim/white_mw066.bmp","null","","","","","","","","","","",""
"instructions","125","218824","0.0-7.0","63034df51d918e1e3b97e5ce","bdp_trlrn","Wed Mar 15 2023 23:42:29 GMT-0400 (Eastern Daylight Time)","821024","Untrustworthy,Trustworthy","[{""page_index"":0,""viewing_time"":1191}]","1191","","","","","","","","","","","","","","","","","",""
"instructions","126","343017","0.0-8.0","63034df51d918e1e3b97e5ce","bdp_trlrn","Wed Mar 15 2023 23:42:29 GMT-0400 (Eastern Daylight Time)","821024","Untrustworthy,Trustworthy","[{""page_index"":0,""viewing_time"":26766},{""page_index"":1,""viewing_time"":37327},{""page_index"":2,""viewing_time"":7181},{""page_index"":3,""viewing_time"":13778},{""page_index"":4,""viewing_time"":3240},{""page_index"":5,""viewing_time"":10061},{""page_index"":6,""viewing_time"":23005},{""page_index"":7,""viewing_time"":2734}]","124092","","","","","","","","","","","","","","","","","",""
"html-keyboard-response","127","353056","0.0-9.0","63034df51d918e1e3b97e5ce","bdp_trlrn","Wed Mar 15 2023 23:42:29 GMT-0400 (Eastern Daylight Time)","821024","Untrustworthy,Trustworthy","","10037","","","","","","<div class='header' style='text-align:left; position: absolute; top: 5%; left: 5%;'><small>Task 3 of 5</small></div><div class='instruxDiv'><p><strong>1) What is the minimum number of points you can choose to send to your partner?</strong></p><p>a) 0</p><p>b) 1</p><p>c) 5</p>","B","","","","","","","","","","",""
"html-keyboard-response","128","354796","0.0-10.0","63034df51d918e1e3b97e5ce","bdp_trlrn","Wed Mar 15 2023 23:42:29 GMT-0400 (Eastern Daylight Time)","821024","Untrustworthy,Trustworthy","","1638","","","","","","<div class='header' style='text-align:left; position: absolute; top: 5%; left: 5%;'><small>Task 3 of 5</small></div><div class='instruxDiv'><p><strong>1) What is the minimum number of points you can choose to send to your partner?</strong></p><p>a) 0</p><p style='color:#00FF00'>b) 1</p><p>c) 5</p><h3 style='color:#00FF00'>Correct!</h3><h3 class='center-content'>The correct response is b).</h3><h3 class='center-content'>The minimum number of points you can choose to send to your partner is 1 point.</h3><p><em>Press SPACEBAR to continue</em></p></div>"," ","","","","","","","","","","",""
"html-keyboard-response","129","360970","0.0-11.0","63034df51d918e1e3b97e5ce","bdp_trlrn","Wed Mar 15 2023 23:42:29 GMT-0400 (Eastern Daylight Time)","821024","Untrustworthy,Trustworthy","","6073","","","","","","<div class='header' style='text-align:left; position: absolute; top: 5%; left: 5%;'><small>Task 3 of 5</small></div><div class='instruxDiv'><p><strong>2) What is the maximum number of points you can choose to send to your partner?</strong></p><p>a) 8</p><p>b) 5</p><p>c) 3</p>","B","","","","","","","","","","",""
"html-keyboard-response","130","361937","0.0-12.0","63034df51d918e1e3b97e5ce","bdp_trlrn","Wed Mar 15 2023 23:42:29 GMT-0400 (Eastern Daylight Time)","821024","Untrustworthy,Trustworthy","","862","","","","","","<div class='header' style='text-align:left; position: absolute; top: 5%; left: 5%;'><small>Task 3 of 5</small></div><div class='instruxDiv'><p><strong>2) What is the maximum number of points you can choose to send to your partner?</strong></p><p>a) 8</p><p style='color:#00FF00'>b) 5</p><p>c) 3</p><h3 style='color:#00FF00'>Correct!</h3><h3 class='center-content'>The correct response is b).</h3><h3 class='center-content'>The maximum number of points you can choose to send to your partner is 5 points.</h3><p><em>Press SPACEBAR to continue</em></p></div>"," ","","","","","","","","","","",""
"html-keyboard-response","131","368161","0.0-13.0","63034df51d918e1e3b97e5ce","bdp_trlrn","Wed Mar 15 2023 23:42:29 GMT-0400 (Eastern Daylight Time)","821024","Untrustworthy,Trustworthy","","6123","","","","","","<div class='header' style='text-align:left; position: absolute; top: 5%; left: 5%;'><small>Task 3 of 5</small></div><div class='instruxDiv'><p><strong>3) What happens to the amount of points you send to your partner?</strong></p><p>a) Nothing</p><p>b) It doubles</p><p>c) It quadruples</p>","C","","","","","","","","","","",""
"html-keyboard-response","132","369197","0.0-14.0","63034df51d918e1e3b97e5ce","bdp_trlrn","Wed Mar 15 2023 23:42:29 GMT-0400 (Eastern Daylight Time)","821024","Untrustworthy,Trustworthy","","934","","","","","","<div class='header' style='text-align:left; position: absolute; top: 5%; left: 5%;'><small>Task 3 of 5</small></div><div class='instruxDiv'><p><strong>3) What happens to the amount of points you send to your partner?</strong></p><p>a) Nothing</p><p>b) It doubles</p><p style='color:#00FF00'>c) It quadruples</p><h3 style='color:#00FF00'>Correct!</h3><h3 class='center-content'>The correct response is c).</h3><h3 class='center-content'>The amount of points you send to your partner quadruples.</h3><p><em>Press SPACEBAR to continue</em></p></div>"," ","","","","","","","","","","",""
"html-keyboard-response","133","387355","0.0-15.0","63034df51d918e1e3b97e5ce","bdp_trlrn","Wed Mar 15 2023 23:42:29 GMT-0400 (Eastern Daylight Time)","821024","Untrustworthy,Trustworthy","","18057","","","","","","<div class='header' style='text-align:left; position: absolute; top: 5%; left: 5%;'><small>Task 3 of 5</small></div><div class='instruxDiv'><p><strong>4) If you decided to share 4 out of 5 points with your partner, and they decided to share half of the amount they received with you, how many points would you receive back from them on this round?</strong></p><p>a) 16</p><p>b) 0</p><p>c) 8</p>","C","","","","","","","","","","",""
"html-keyboard-response","134","390865","0.0-16.0","63034df51d918e1e3b97e5ce","bdp_trlrn","Wed Mar 15 2023 23:42:29 GMT-0400 (Eastern Daylight Time)","821024","Untrustworthy,Trustworthy","","3408","","","","","","<div class='header' style='text-align:left; position: absolute; top: 5%; left: 5%;'><small>Task 3 of 5</small></div><div class='instruxDiv'><p><strong>4) If you decided to share 4 out of 5 points with your partner, and they decided to share half of the amount they received with you, how many points would you receive back from them on this round?</strong></p><p>a) 16</p><p>b) 0</p><p style='color:#00FF00'>c) 8</p><h3 style='color:#00FF00'>Correct!</h3><h3 class='center-content'>The correct response is c).</h3><h3 class='center-content'>If you shared 4 out of 5 points with your partner and they decided to share half of the amount they received with you, you would receive 8 points back (i.e. (4 x 4)/2 = 8).</h3><p><em>Press SPACEBAR to continue</em></p></div>"," ","","","","","","","","","","",""
"html-keyboard-response","135","395968","0.0-17.0","63034df51d918e1e3b97e5ce","bdp_trlrn","Wed Mar 15 2023 23:42:29 GMT-0400 (Eastern Daylight Time)","821024","Untrustworthy,Trustworthy","","null","","","","","","<div class='header' style='text-align:left; position: absolute; top: 5%; left: 5%;'><small>Task 3 of 5</small></div><div class='instruxDiv'><p>Thank you for completing the quiz<p>These are the actual partners you will be interacting with in the next block:<p><div class='tc' align='center'><img class='introPic' src='trustrating_stim/white_00785_941205_fb_edt.bmp'><br><strong>Brian</strong></div><div class='bl' align='center'><img class='introPic' src='trustrating_stim/white_mw035.bmp'><br><strong>Marcus</strong></div><div class='br' align='center'><img class='introPic' src='trustrating_stim/white_00602_940928_fb_edt.bmp'><br><strong>Ryan</strong></div></div><p>Across <strong>66 rounds</strong> you will interact with each partner <strong>22 times</strong> (in random order).<p style='align:center; color:white'><font <em>Press SPACEBAR to continue</em></p>","null","","","","","","","","","","",""
"instructions","136","398210","0.0-18.0","63034df51d918e1e3b97e5ce","bdp_trlrn","Wed Mar 15 2023 23:42:29 GMT-0400 (Eastern Daylight Time)","821024","Untrustworthy,Trustworthy","[{""page_index"":0,""viewing_time"":192},{""page_index"":1,""viewing_time"":2050}]","2242","","","","","","","","","","","","","","","","","",""
"html-keyboard-response","137","403427","0.0-19.0-1.0","63034df51d918e1e3b97e5ce","bdp_trlrn","Wed Mar 15 2023 23:42:29 GMT-0400 (Eastern Daylight Time)","821024","Untrustworthy,Trustworthy","","5116","","","","decision","","<div class='trialDiv'><img src='trustrating_stim/white_mw035.bmp'><br><font class='baseline'><strong>Marcus</strong><p>Choose number of points to send.</font><div class='respPicDiv'><img src='img/responseButtonOffersNo0L.png' class='respPic'></div></div>","3","1","Marcus","6","Shared","0.8,0.35","10","0.8","trustrating_stim/white_mw035.bmp","3.5","5","1"
"html-keyboard-response","138","403679","0.0-19.0-2.0","63034df51d918e1e3b97e5ce","bdp_trlrn","Wed Mar 15 2023 23:42:29 GMT-0400 (Eastern Daylight Time)","821024","Untrustworthy,Trustworthy","","null","","","","decisionFB","","<div class='trialDiv'><img src='trustrating_stim/white_mw035.bmp'><br><font class='baseline'><strong>Marcus</strong><p>Choose number of points to send.</font><div class='respPicDiv'><img src='img/responseButtonOffersNo0L3.png' class='respPic'></div></div>","null","1","Marcus","6","Shared","0.8,0.35","10","0.8","trustrating_stim/white_mw035.bmp","3.5","2","1"
"html-keyboard-response","139","404688","0.0-19.0-3.0","63034df51d918e1e3b97e5ce","bdp_trlrn","Wed Mar 15 2023 23:42:29 GMT-0400 (Eastern Daylight Time)","821024","Untrustworthy,Trustworthy","","null","","","","feedback","","<div class='trialDiv'><img src='trustrating_stim/white_mw035.bmp'><br><font class='baseline'><strong>Marcus</strong><p>Received: <strong>12</strong></font> &nbsp; &nbsp; &nbsp; &nbsp; &nbsp; &nbsp;<font class='posOutcome'>Shared back: <strong>6</strong></font></font><div class='respPicDiv'><img src='img/responseButtonOffersNo0_wht.png' class='respPic'></div></div>","null","1","Marcus","6","Shared","0.8,0.35","10","0.8","trustrating_stim/white_mw035.bmp","3.5","8","1"
"html-keyboard-response","140","406879","0.0-19.0-1.1","63034df51d918e1e3b97e5ce","bdp_trlrn","Wed Mar 15 2023 23:42:29 GMT-0400 (Eastern Daylight Time)","821024","Untrustworthy,Trustworthy","","2191","","","","decision","","<div class='trialDiv'><img src='trustrating_stim/white_00785_941205_fb_edt.bmp'><br><font class='baseline'><strong>Brian</strong><p>Choose number of points to send.</font><div class='respPicDiv'><img src='img/responseButtonOffersNo0L.png' class='respPic'></div></div>","3","1","Brian","1","Shared","0.65,0.35","10","0.65","trustrating_stim/white_00785_941205_fb_edt.bmp","2.5","13","2"
"html-keyboard-response","141","407131","0.0-19.0-2.1","63034df51d918e1e3b97e5ce","bdp_trlrn","Wed Mar 15 2023 23:42:29 GMT-0400 (Eastern Daylight Time)","821024","Untrustworthy,Trustworthy","","null","","","","decisionFB","","<div class='trialDiv'><img src='trustrating_stim/white_00785_941205_fb_edt.bmp'><br><font class='baseline'><strong>Brian</strong><p>Choose number of points to send.</font><div class='respPicDiv'><img src='img/responseButtonOffersNo0L3.png' class='respPic'></div></div>","null","1","Brian","1","Shared","0.65,0.35","10","0.65","trustrating_stim/white_00785_941205_fb_edt.bmp","2.5","10","2"
"html-keyboard-response","142","408132","0.0-19.0-3.1","63034df51d918e1e3b97e5ce","bdp_trlrn","Wed Mar 15 2023 23:42:29 GMT-0400 (Eastern Daylight Time)","821024","Untrustworthy,Trustworthy","","null","","","","feedback","","<div class='trialDiv'><img src='trustrating_stim/white_00785_941205_fb_edt.bmp'><br><font class='baseline'><strong>Brian</strong><p>Received: <strong>12</strong></font> &nbsp; &nbsp; &nbsp; &nbsp; &nbsp; &nbsp;<font class='posOutcome'>Shared back: <strong>6</strong></font></font><div class='respPicDiv'><img src='img/responseButtonOffersNo0_wht.png' class='respPic'></div></div>","null","1","Brian","1","Shared","0.65,0.35","10","0.65","trustrating_stim/white_00785_941205_fb_edt.bmp","2.5","16","2"
"html-keyboard-response","143","409460","0.0-19.0-1.2","63034df51d918e1e3b97e5ce","bdp_trlrn","Wed Mar 15 2023 23:42:29 GMT-0400 (Eastern Daylight Time)","821024","Untrustworthy,Trustworthy","","1328","","","","decision","","<div class='trialDiv'><img src='trustrating_stim/white_00602_940928_fb_edt.bmp'><br><font class='baseline'><strong>Ryan</strong><p>Choose number of points to send.</font><div class='respPicDiv'><img src='img/responseButtonOffersNo0L.png' class='respPic'></div></div>","3","1","Ryan","10","Kept","0.35,0.8","11","0.35","trustrating_stim/white_00602_940928_fb_edt.bmp","6.5","21","3"
"html-keyboard-response","144","409712","0.0-19.0-2.2","63034df51d918e1e3b97e5ce","bdp_trlrn","Wed Mar 15 2023 23:42:29 GMT-0400 (Eastern Daylight Time)","821024","Untrustworthy,Trustworthy","","null","","","","decisionFB","","<div class='trialDiv'><img src='trustrating_stim/white_00602_940928_fb_edt.bmp'><br><font class='baseline'><strong>Ryan</strong><p>Choose number of points to send.</font><div class='respPicDiv'><img src='img/responseButtonOffersNo0L3.png' class='respPic'></div></div>","null","1","Ryan","10","Kept","0.35,0.8","11","0.35","trustrating_stim/white_00602_940928_fb_edt.bmp","6.5","18","3"
"html-keyboard-response","145","410713","0.0-19.0-3.2","63034df51d918e1e3b97e5ce","bdp_trlrn","Wed Mar 15 2023 23:42:29 GMT-0400 (Eastern Daylight Time)","821024","Untrustworthy,Trustworthy","","null","","","","feedback","","<div class='trialDiv'><img src='trustrating_stim/white_00602_940928_fb_edt.bmp'><br><font class='baseline'><strong>Ryan</strong><p>Received: <strong>12</strong></font> &nbsp; &nbsp; &nbsp; &nbsp; &nbsp; &nbsp;<font class='negOutcome'>Shared back: <strong>0</strong></font></font><div class='respPicDiv'><img src='img/responseButtonOffersNo0_wht.png' class='respPic'></div></div>","null","1","Ryan","10","Kept","0.35,0.8","11","0.35","trustrating_stim/white_00602_940928_fb_edt.bmp","6.5","18","3"
"html-keyboard-response","146","412966","0.0-19.0-1.3","63034df51d918e1e3b97e5ce","bdp_trlrn","Wed Mar 15 2023 23:42:29 GMT-0400 (Eastern Daylight Time)","821024","Untrustworthy,Trustworthy","","2253","","","","decision","","<div class='trialDiv'><img src='trustrating_stim/white_00785_941205_fb_edt.bmp'><br><font class='baseline'><strong>Brian</strong><p>Choose number of points to send.</font><div class='respPicDiv'><img src='img/responseButtonOffersNo0L.png' class='respPic'></div></div>","3","2","Brian","1","Shared","0.65,0.35","10","0.65","trustrating_stim/white_00785_941205_fb_edt.bmp","2.5","23","4"
"html-keyboard-response","147","413217","0.0-19.0-2.3","63034df51d918e1e3b97e5ce","bdp_trlrn","Wed Mar 15 2023 23:42:29 GMT-0400 (Eastern Daylight Time)","821024","Untrustworthy,Trustworthy","","null","","","","decisionFB","","<div class='trialDiv'><img src='trustrating_stim/white_00785_941205_fb_edt.bmp'><br><font class='baseline'><strong>Brian</strong><p>Choose number of points to send.</font><div class='respPicDiv'><img src='img/responseButtonOffersNo0L3.png' class='respPic'></div></div>","null","2","Brian","1","Shared","0.65,0.35","10","0.65","trustrating_stim/white_00785_941205_fb_edt.bmp","2.5","20","4"
"html-keyboard-response","148","414219","0.0-19.0-3.3","63034df51d918e1e3b97e5ce","bdp_trlrn","Wed Mar 15 2023 23:42:29 GMT-0400 (Eastern Daylight Time)","821024","Untrustworthy,Trustworthy","","null","","","","feedback","","<div class='trialDiv'><img src='trustrating_stim/white_00785_941205_fb_edt.bmp'><br><font class='baseline'><strong>Brian</strong><p>Received: <strong>12</strong></font> &nbsp; &nbsp; &nbsp; &nbsp; &nbsp; &nbsp;<font class='posOutcome'>Shared back: <strong>6</strong></font></font><div class='respPicDiv'><img src='img/responseButtonOffersNo0_wht.png' class='respPic'></div></div>","null","2","Brian","1","Shared","0.65,0.35","10","0.65","trustrating_stim/white_00785_941205_fb_edt.bmp","2.5","26","4"
"html-keyboard-response","149","416691","0.0-19.0-1.4","63034df51d918e1e3b97e5ce","bdp_trlrn","Wed Mar 15 2023 23:42:29 GMT-0400 (Eastern Daylight Time)","821024","Untrustworthy,Trustworthy","","2471","","","","decision","","<div class='trialDiv'><img src='trustrating_stim/white_mw035.bmp'><br><font class='baseline'><strong>Marcus</strong><p>Choose number of points to send.</font><div class='respPicDiv'><img src='img/responseButtonOffersNo0L.png' class='respPic'></div></div>","3","2","Marcus","6","Shared","0.8,0.35","10","0.8","trustrating_stim/white_mw035.bmp","3.5","31","5"
"html-keyboard-response","150","416951","0.0-19.0-2.4","63034df51d918e1e3b97e5ce","bdp_trlrn","Wed Mar 15 2023 23:42:29 GMT-0400 (Eastern Daylight Time)","821024","Untrustworthy,Trustworthy","","null","","","","decisionFB","","<div class='trialDiv'><img src='trustrating_stim/white_mw035.bmp'><br><font class='baseline'><strong>Marcus</strong><p>Choose number of points to send.</font><div class='respPicDiv'><img src='img/responseButtonOffersNo0L3.png' class='respPic'></div></div>","null","2","Marcus","6","Shared","0.8,0.35","10","0.8","trustrating_stim/white_mw035.bmp","3.5","28","5"
"html-keyboard-response","151","417952","0.0-19.0-3.4","63034df51d918e1e3b97e5ce","bdp_trlrn","Wed Mar 15 2023 23:42:29 GMT-0400 (Eastern Daylight Time)","821024","Untrustworthy,Trustworthy","","null","","","","feedback","","<div class='trialDiv'><img src='trustrating_stim/white_mw035.bmp'><br><font class='baseline'><strong>Marcus</strong><p>Received: <strong>12</strong></font> &nbsp; &nbsp; &nbsp; &nbsp; &nbsp; &nbsp;<font class='posOutcome'>Shared back: <strong>6</strong></font></font><div class='respPicDiv'><img src='img/responseButtonOffersNo0_wht.png' class='respPic'></div></div>","null","2","Marcus","6","Shared","0.8,0.35","10","0.8","trustrating_stim/white_mw035.bmp","3.5","34","5"
"html-keyboard-response","152","419534","0.0-19.0-1.5","63034df51d918e1e3b97e5ce","bdp_trlrn","Wed Mar 15 2023 23:42:29 GMT-0400 (Eastern Daylight Time)","821024","Untrustworthy,Trustworthy","","1581","","","","decision","","<div class='trialDiv'><img src='trustrating_stim/white_00602_940928_fb_edt.bmp'><br><font class='baseline'><strong>Ryan</strong><p>Choose number of points to send.</font><div class='respPicDiv'><img src='img/responseButtonOffersNo0L.png' class='respPic'></div></div>","2","2","Ryan","10","Kept","0.35,0.8","11","0.35","trustrating_stim/white_00602_940928_fb_edt.bmp","6.5","39","6"
"html-keyboard-response","153","419784","0.0-19.0-2.5","63034df51d918e1e3b97e5ce","bdp_trlrn","Wed Mar 15 2023 23:42:29 GMT-0400 (Eastern Daylight Time)","821024","Untrustworthy,Trustworthy","","null","","","","decisionFB","","<div class='trialDiv'><img src='trustrating_stim/white_00602_940928_fb_edt.bmp'><br><font class='baseline'><strong>Ryan</strong><p>Choose number of points to send.</font><div class='respPicDiv'><img src='img/responseButtonOffersNo0L2.png' class='respPic'></div></div>","null","2","Ryan","10","Kept","0.35,0.8","11","0.35","trustrating_stim/white_00602_940928_fb_edt.bmp","6.5","37","6"
"html-keyboard-response","154","420785","0.0-19.0-3.5","63034df51d918e1e3b97e5ce","bdp_trlrn","Wed Mar 15 2023 23:42:29 GMT-0400 (Eastern Daylight Time)","821024","Untrustworthy,Trustworthy","","null","","","","feedback","","<div class='trialDiv'><img src='trustrating_stim/white_00602_940928_fb_edt.bmp'><br><font class='baseline'><strong>Ryan</strong><p>Received: <strong>8</strong></font> &nbsp; &nbsp; &nbsp; &nbsp; &nbsp; &nbsp;<font class='negOutcome'>Shared back: <strong>0</strong></font></font><div class='respPicDiv'><img src='img/responseButtonOffersNo0_wht.png' class='respPic'></div></div>","null","2","Ryan","10","Kept","0.35,0.8","11","0.35","trustrating_stim/white_00602_940928_fb_edt.bmp","6.5","37","6"
"html-keyboard-response","155","421916","0.0-19.0-1.6","63034df51d918e1e3b97e5ce","bdp_trlrn","Wed Mar 15 2023 23:42:29 GMT-0400 (Eastern Daylight Time)","821024","Untrustworthy,Trustworthy","","1130","","","","decision","","<div class='trialDiv'><img src='trustrating_stim/white_mw035.bmp'><br><font class='baseline'><strong>Marcus</strong><p>Choose number of points to send.</font><div class='respPicDiv'><img src='img/responseButtonOffersNo0L.png' class='respPic'></div></div>","4","3","Marcus","6","Shared","0.8,0.35","10","0.8","trustrating_stim/white_mw035.bmp","3.5","42","7"
"html-keyboard-response","156","422168","0.0-19.0-2.6","63034df51d918e1e3b97e5ce","bdp_trlrn","Wed Mar 15 2023 23:42:29 GMT-0400 (Eastern Daylight Time)","821024","Untrustworthy,Trustworthy","","null","","","","decisionFB","","<div class='trialDiv'><img src='trustrating_stim/white_mw035.bmp'><br><font class='baseline'><strong>Marcus</strong><p>Choose number of points to send.</font><div class='respPicDiv'><img src='img/responseButtonOffersNo0L4.png' class='respPic'></div></div>","null","3","Marcus","6","Shared","0.8,0.35","10","0.8","trustrating_stim/white_mw035.bmp","3.5","38","7"
"html-keyboard-response","157","423170","0.0-19.0-3.6","63034df51d918e1e3b97e5ce","bdp_trlrn","Wed Mar 15 2023 23:42:29 GMT-0400 (Eastern Daylight Time)","821024","Untrustworthy,Trustworthy","","null","","","","feedback","","<div class='trialDiv'><img src='trustrating_stim/white_mw035.bmp'><br><font class='baseline'><strong>Marcus</strong><p>Received: <strong>16</strong></font> &nbsp; &nbsp; &nbsp; &nbsp; &nbsp; &nbsp;<font class='posOutcome'>Shared back: <strong>8</strong></font></font><div class='respPicDiv'><img src='img/responseButtonOffersNo0_wht.png' class='respPic'></div></div>","null","3","Marcus","6","Shared","0.8,0.35","10","0.8","trustrating_stim/white_mw035.bmp","3.5","46","7"
"html-keyboard-response","158","425157","0.0-19.0-1.7","63034df51d918e1e3b97e5ce","bdp_trlrn","Wed Mar 15 2023 23:42:29 GMT-0400 (Eastern Daylight Time)","821024","Untrustworthy,Trustworthy","","1986","","","","decision","","<div class='trialDiv'><img src='trustrating_stim/white_00785_941205_fb_edt.bmp'><br><font class='baseline'><strong>Brian</strong><p>Choose number of points to send.</font><div class='respPicDiv'><img src='img/responseButtonOffersNo0L.png' class='respPic'></div></div>","4","3","Brian","1","Kept","0.65,0.35","10","0.65","trustrating_stim/white_00785_941205_fb_edt.bmp","2.5","51","8"
"html-keyboard-response","159","425408","0.0-19.0-2.7","63034df51d918e1e3b97e5ce","bdp_trlrn","Wed Mar 15 2023 23:42:29 GMT-0400 (Eastern Daylight Time)","821024","Untrustworthy,Trustworthy","","null","","","","decisionFB","","<div class='trialDiv'><img src='trustrating_stim/white_00785_941205_fb_edt.bmp'><br><font class='baseline'><strong>Brian</strong><p>Choose number of points to send.</font><div class='respPicDiv'><img src='img/responseButtonOffersNo0L4.png' class='respPic'></div></div>","null","3","Brian","1","Kept","0.65,0.35","10","0.65","trustrating_stim/white_00785_941205_fb_edt.bmp","2.5","47","8"
"html-keyboard-response","160","426409","0.0-19.0-3.7","63034df51d918e1e3b97e5ce","bdp_trlrn","Wed Mar 15 2023 23:42:29 GMT-0400 (Eastern Daylight Time)","821024","Untrustworthy,Trustworthy","","null","","","","feedback","","<div class='trialDiv'><img src='trustrating_stim/white_00785_941205_fb_edt.bmp'><br><font class='baseline'><strong>Brian</strong><p>Received: <strong>16</strong></font> &nbsp; &nbsp; &nbsp; &nbsp; &nbsp; &nbsp;<font class='negOutcome'>Shared back: <strong>0</strong></font></font><div class='respPicDiv'><img src='img/responseButtonOffersNo0_wht.png' class='respPic'></div></div>","null","3","Brian","1","Kept","0.65,0.35","10","0.65","trustrating_stim/white_00785_941205_fb_edt.bmp","2.5","47","8"
"html-keyboard-response","161","428004","0.0-19.0-1.8","63034df51d918e1e3b97e5ce","bdp_trlrn","Wed Mar 15 2023 23:42:29 GMT-0400 (Eastern Daylight Time)","821024","Untrustworthy,Trustworthy","","1595","","","","decision","","<div class='trialDiv'><img src='trustrating_stim/white_00602_940928_fb_edt.bmp'><br><font class='baseline'><strong>Ryan</strong><p>Choose number of points to send.</font><div class='respPicDiv'><img src='img/responseButtonOffersNo0L.png' class='respPic'></div></div>","3","3","Ryan","10","Shared","0.35,0.8","11","0.35","trustrating_stim/white_00602_940928_fb_edt.bmp","6.5","52","9"
"html-keyboard-response","162","428256","0.0-19.0-2.8","63034df51d918e1e3b97e5ce","bdp_trlrn","Wed Mar 15 2023 23:42:29 GMT-0400 (Eastern Daylight Time)","821024","Untrustworthy,Trustworthy","","null","","","","decisionFB","","<div class='trialDiv'><img src='trustrating_stim/white_00602_940928_fb_edt.bmp'><br><font class='baseline'><strong>Ryan</strong><p>Choose number of points to send.</font><div class='respPicDiv'><img src='img/responseButtonOffersNo0L3.png' class='respPic'></div></div>","null","3","Ryan","10","Shared","0.35,0.8","11","0.35","trustrating_stim/white_00602_940928_fb_edt.bmp","6.5","49","9"
"html-keyboard-response","163","429268","0.0-19.0-3.8","63034df51d918e1e3b97e5ce","bdp_trlrn","Wed Mar 15 2023 23:42:29 GMT-0400 (Eastern Daylight Time)","821024","Untrustworthy,Trustworthy","","null","","","","feedback","","<div class='trialDiv'><img src='trustrating_stim/white_00602_940928_fb_edt.bmp'><br><font class='baseline'><strong>Ryan</strong><p>Received: <strong>12</strong></font> &nbsp; &nbsp; &nbsp; &nbsp; &nbsp; &nbsp;<font class='posOutcome'>Shared back: <strong>6</strong></font></font><div class='respPicDiv'><img src='img/responseButtonOffersNo0_wht.png' class='respPic'></div></div>","null","3","Ryan","10","Shared","0.35,0.8","11","0.35","trustrating_stim/white_00602_940928_fb_edt.bmp","6.5","55","9"
"html-keyboard-response","164","431035","0.0-19.0-1.9","63034df51d918e1e3b97e5ce","bdp_trlrn","Wed Mar 15 2023 23:42:29 GMT-0400 (Eastern Daylight Time)","821024","Untrustworthy,Trustworthy","","1767","","","","decision","","<div class='trialDiv'><img src='trustrating_stim/white_mw035.bmp'><br><font class='baseline'><strong>Marcus</strong><p>Choose number of points to send.</font><div class='respPicDiv'><img src='img/responseButtonOffersNo0L.png' class='respPic'></div></div>","5","4","Marcus","6","Shared","0.8,0.35","10","0.8","trustrating_stim/white_mw035.bmp","3.5","60","10"
"html-keyboard-response","165","431287","0.0-19.0-2.9","63034df51d918e1e3b97e5ce","bdp_trlrn","Wed Mar 15 2023 23:42:29 GMT-0400 (Eastern Daylight Time)","821024","Untrustworthy,Trustworthy","","null","","","","decisionFB","","<div class='trialDiv'><img src='trustrating_stim/white_mw035.bmp'><br><font class='baseline'><strong>Marcus</strong><p>Choose number of points to send.</font><div class='respPicDiv'><img src='img/responseButtonOffersNo0L5.png' class='respPic'></div></div>","null","4","Marcus","6","Shared","0.8,0.35","10","0.8","trustrating_stim/white_mw035.bmp","3.5","55","10"
"html-keyboard-response","166","432288","0.0-19.0-3.9","63034df51d918e1e3b97e5ce","bdp_trlrn","Wed Mar 15 2023 23:42:29 GMT-0400 (Eastern Daylight Time)","821024","Untrustworthy,Trustworthy","","null","","","","feedback","","<div class='trialDiv'><img src='trustrating_stim/white_mw035.bmp'><br><font class='baseline'><strong>Marcus</strong><p>Received: <strong>20</strong></font> &nbsp; &nbsp; &nbsp; &nbsp; &nbsp; &nbsp;<font class='posOutcome'>Shared back: <strong>10</strong></font></font><div class='respPicDiv'><img src='img/responseButtonOffersNo0_wht.png' class='respPic'></div></div>","null","4","Marcus","6","Shared","0.8,0.35","10","0.8","trustrating_stim/white_mw035.bmp","3.5","65","10"
"html-keyboard-response","167","436905","0.0-19.0-1.10","63034df51d918e1e3b97e5ce","bdp_trlrn","Wed Mar 15 2023 23:42:29 GMT-0400 (Eastern Daylight Time)","821024","Untrustworthy,Trustworthy","","4616","","","","decision","","<div class='trialDiv'><img src='trustrating_stim/white_00602_940928_fb_edt.bmp'><br><font class='baseline'><strong>Ryan</strong><p>Choose number of points to send.</font><div class='respPicDiv'><img src='img/responseButtonOffersNo0L.png' class='respPic'></div></div>","2","4","Ryan","10","Shared","0.35,0.8","11","0.35","trustrating_stim/white_00602_940928_fb_edt.bmp","6.5","70","11"
"html-keyboard-response","168","437156","0.0-19.0-2.10","63034df51d918e1e3b97e5ce","bdp_trlrn","Wed Mar 15 2023 23:42:29 GMT-0400 (Eastern Daylight Time)","821024","Untrustworthy,Trustworthy","","null","","","","decisionFB","","<div class='trialDiv'><img src='trustrating_stim/white_00602_940928_fb_edt.bmp'><br><font class='baseline'><strong>Ryan</strong><p>Choose number of points to send.</font><div class='respPicDiv'><img src='img/responseButtonOffersNo0L2.png' class='respPic'></div></div>","null","4","Ryan","10","Shared","0.35,0.8","11","0.35","trustrating_stim/white_00602_940928_fb_edt.bmp","6.5","68","11"
"html-keyboard-response","169","438157","0.0-19.0-3.10","63034df51d918e1e3b97e5ce","bdp_trlrn","Wed Mar 15 2023 23:42:29 GMT-0400 (Eastern Daylight Time)","821024","Untrustworthy,Trustworthy","","null","","","","feedback","","<div class='trialDiv'><img src='trustrating_stim/white_00602_940928_fb_edt.bmp'><br><font class='baseline'><strong>Ryan</strong><p>Received: <strong>8</strong></font> &nbsp; &nbsp; &nbsp; &nbsp; &nbsp; &nbsp;<font class='posOutcome'>Shared back: <strong>4</strong></font></font><div class='respPicDiv'><img src='img/responseButtonOffersNo0_wht.png' class='respPic'></div></div>","null","4","Ryan","10","Shared","0.35,0.8","11","0.35","trustrating_stim/white_00602_940928_fb_edt.bmp","6.5","72","11"
"html-keyboard-response","170","439320","0.0-19.0-1.11","63034df51d918e1e3b97e5ce","bdp_trlrn","Wed Mar 15 2023 23:42:29 GMT-0400 (Eastern Daylight Time)","821024","Untrustworthy,Trustworthy","","1162","","","","decision","","<div class='trialDiv'><img src='trustrating_stim/white_00785_941205_fb_edt.bmp'><br><font class='baseline'><strong>Brian</strong><p>Choose number of points to send.</font><div class='respPicDiv'><img src='img/responseButtonOffersNo0L.png' class='respPic'></div></div>","3","4","Brian","1","Shared","0.65,0.35","10","0.65","trustrating_stim/white_00785_941205_fb_edt.bmp","2.5","77","12"
"html-keyboard-response","171","439571","0.0-19.0-2.11","63034df51d918e1e3b97e5ce","bdp_trlrn","Wed Mar 15 2023 23:42:29 GMT-0400 (Eastern Daylight Time)","821024","Untrustworthy,Trustworthy","","null","","","","decisionFB","","<div class='trialDiv'><img src='trustrating_stim/white_00785_941205_fb_edt.bmp'><br><font class='baseline'><strong>Brian</strong><p>Choose number of points to send.</font><div class='respPicDiv'><img src='img/responseButtonOffersNo0L3.png' class='respPic'></div></div>","null","4","Brian","1","Shared","0.65,0.35","10","0.65","trustrating_stim/white_00785_941205_fb_edt.bmp","2.5","74","12"
"html-keyboard-response","172","440573","0.0-19.0-3.11","63034df51d918e1e3b97e5ce","bdp_trlrn","Wed Mar 15 2023 23:42:29 GMT-0400 (Eastern Daylight Time)","821024","Untrustworthy,Trustworthy","","null","","","","feedback","","<div class='trialDiv'><img src='trustrating_stim/white_00785_941205_fb_edt.bmp'><br><font class='baseline'><strong>Brian</strong><p>Received: <strong>12</strong></font> &nbsp; &nbsp; &nbsp; &nbsp; &nbsp; &nbsp;<font class='posOutcome'>Shared back: <strong>6</strong></font></font><div class='respPicDiv'><img src='img/responseButtonOffersNo0_wht.png' class='respPic'></div></div>","null","4","Brian","1","Shared","0.65,0.35","10","0.65","trustrating_stim/white_00785_941205_fb_edt.bmp","2.5","80","12"
"html-keyboard-response","173","445012","0.0-19.0-1.12","63034df51d918e1e3b97e5ce","bdp_trlrn","Wed Mar 15 2023 23:42:29 GMT-0400 (Eastern Daylight Time)","821024","Untrustworthy,Trustworthy","","4438","","","","decision","","<div class='trialDiv'><img src='trustrating_stim/white_00602_940928_fb_edt.bmp'><br><font class='baseline'><strong>Ryan</strong><p>Choose number of points to send.</font><div class='respPicDiv'><img src='img/responseButtonOffersNo0L.png' class='respPic'></div></div>","3","5","Ryan","10","Shared","0.35,0.8","11","0.35","trustrating_stim/white_00602_940928_fb_edt.bmp","6.5","85","13"
"html-keyboard-response","174","445264","0.0-19.0-2.12","63034df51d918e1e3b97e5ce","bdp_trlrn","Wed Mar 15 2023 23:42:29 GMT-0400 (Eastern Daylight Time)","821024","Untrustworthy,Trustworthy","","null","","","","decisionFB","","<div class='trialDiv'><img src='trustrating_stim/white_00602_940928_fb_edt.bmp'><br><font class='baseline'><strong>Ryan</strong><p>Choose number of points to send.</font><div class='respPicDiv'><img src='img/responseButtonOffersNo0L3.png' class='respPic'></div></div>","null","5","Ryan","10","Shared","0.35,0.8","11","0.35","trustrating_stim/white_00602_940928_fb_edt.bmp","6.5","82","13"
"html-keyboard-response","175","446266","0.0-19.0-3.12","63034df51d918e1e3b97e5ce","bdp_trlrn","Wed Mar 15 2023 23:42:29 GMT-0400 (Eastern Daylight Time)","821024","Untrustworthy,Trustworthy","","null","","","","feedback","","<div class='trialDiv'><img src='trustrating_stim/white_00602_940928_fb_edt.bmp'><br><font class='baseline'><strong>Ryan</strong><p>Received: <strong>12</strong></font> &nbsp; &nbsp; &nbsp; &nbsp; &nbsp; &nbsp;<font class='posOutcome'>Shared back: <strong>6</strong></font></font><div class='respPicDiv'><img src='img/responseButtonOffersNo0_wht.png' class='respPic'></div></div>","null","5","Ryan","10","Shared","0.35,0.8","11","0.35","trustrating_stim/white_00602_940928_fb_edt.bmp","6.5","88","13"
"html-keyboard-response","176","447579","0.0-19.0-1.13","63034df51d918e1e3b97e5ce","bdp_trlrn","Wed Mar 15 2023 23:42:29 GMT-0400 (Eastern Daylight Time)","821024","Untrustworthy,Trustworthy","","1312","","","","decision","","<div class='trialDiv'><img src='trustrating_stim/white_00785_941205_fb_edt.bmp'><br><font class='baseline'><strong>Brian</strong><p>Choose number of points to send.</font><div class='respPicDiv'><img src='img/responseButtonOffersNo0L.png' class='respPic'></div></div>","4","5","Brian","1","Shared","0.65,0.35","10","0.65","trustrating_stim/white_00785_941205_fb_edt.bmp","2.5","93","14"
"html-keyboard-response","177","447830","0.0-19.0-2.13","63034df51d918e1e3b97e5ce","bdp_trlrn","Wed Mar 15 2023 23:42:29 GMT-0400 (Eastern Daylight Time)","821024","Untrustworthy,Trustworthy","","null","","","","decisionFB","","<div class='trialDiv'><img src='trustrating_stim/white_00785_941205_fb_edt.bmp'><br><font class='baseline'><strong>Brian</strong><p>Choose number of points to send.</font><div class='respPicDiv'><img src='img/responseButtonOffersNo0L4.png' class='respPic'></div></div>","null","5","Brian","1","Shared","0.65,0.35","10","0.65","trustrating_stim/white_00785_941205_fb_edt.bmp","2.5","89","14"
"html-keyboard-response","178","448832","0.0-19.0-3.13","63034df51d918e1e3b97e5ce","bdp_trlrn","Wed Mar 15 2023 23:42:29 GMT-0400 (Eastern Daylight Time)","821024","Untrustworthy,Trustworthy","","null","","","","feedback","","<div class='trialDiv'><img src='trustrating_stim/white_00785_941205_fb_edt.bmp'><br><font class='baseline'><strong>Brian</strong><p>Received: <strong>16</strong></font> &nbsp; &nbsp; &nbsp; &nbsp; &nbsp; &nbsp;<font class='posOutcome'>Shared back: <strong>8</strong></font></font><div class='respPicDiv'><img src='img/responseButtonOffersNo0_wht.png' class='respPic'></div></div>","null","5","Brian","1","Shared","0.65,0.35","10","0.65","trustrating_stim/white_00785_941205_fb_edt.bmp","2.5","97","14"
"html-keyboard-response","179","450123","0.0-19.0-1.14","63034df51d918e1e3b97e5ce","bdp_trlrn","Wed Mar 15 2023 23:42:29 GMT-0400 (Eastern Daylight Time)","821024","Untrustworthy,Trustworthy","","1290","","","","decision","","<div class='trialDiv'><img src='trustrating_stim/white_mw035.bmp'><br><font class='baseline'><strong>Marcus</strong><p>Choose number of points to send.</font><div class='respPicDiv'><img src='img/responseButtonOffersNo0L.png' class='respPic'></div></div>","5","5","Marcus","6","Shared","0.8,0.35","10","0.8","trustrating_stim/white_mw035.bmp","3.5","102","15"
"html-keyboard-response","180","450375","0.0-19.0-2.14","63034df51d918e1e3b97e5ce","bdp_trlrn","Wed Mar 15 2023 23:42:29 GMT-0400 (Eastern Daylight Time)","821024","Untrustworthy,Trustworthy","","null","","","","decisionFB","","<div class='trialDiv'><img src='trustrating_stim/white_mw035.bmp'><br><font class='baseline'><strong>Marcus</strong><p>Choose number of points to send.</font><div class='respPicDiv'><img src='img/responseButtonOffersNo0L5.png' class='respPic'></div></div>","null","5","Marcus","6","Shared","0.8,0.35","10","0.8","trustrating_stim/white_mw035.bmp","3.5","97","15"
"html-keyboard-response","181","451377","0.0-19.0-3.14","63034df51d918e1e3b97e5ce","bdp_trlrn","Wed Mar 15 2023 23:42:29 GMT-0400 (Eastern Daylight Time)","821024","Untrustworthy,Trustworthy","","null","","","","feedback","","<div class='trialDiv'><img src='trustrating_stim/white_mw035.bmp'><br><font class='baseline'><strong>Marcus</strong><p>Received: <strong>20</strong></font> &nbsp; &nbsp; &nbsp; &nbsp; &nbsp; &nbsp;<font class='posOutcome'>Shared back: <strong>10</strong></font></font><div class='respPicDiv'><img src='img/responseButtonOffersNo0_wht.png' class='respPic'></div></div>","null","5","Marcus","6","Shared","0.8,0.35","10","0.8","trustrating_stim/white_mw035.bmp","3.5","107","15"
"html-keyboard-response","182","454717","0.0-19.0-1.15","63034df51d918e1e3b97e5ce","bdp_trlrn","Wed Mar 15 2023 23:42:29 GMT-0400 (Eastern Daylight Time)","821024","Untrustworthy,Trustworthy","","3339","","","","decision","","<div class='trialDiv'><img src='trustrating_stim/white_00602_940928_fb_edt.bmp'><br><font class='baseline'><strong>Ryan</strong><p>Choose number of points to send.</font><div class='respPicDiv'><img src='img/responseButtonOffersNo0L.png' class='respPic'></div></div>","3","6","Ryan","10","Shared","0.35,0.8","11","0.35","trustrating_stim/white_00602_940928_fb_edt.bmp","6.5","112","16"
"html-keyboard-response","183","454969","0.0-19.0-2.15","63034df51d918e1e3b97e5ce","bdp_trlrn","Wed Mar 15 2023 23:42:29 GMT-0400 (Eastern Daylight Time)","821024","Untrustworthy,Trustworthy","","null","","","","decisionFB","","<div class='trialDiv'><img src='trustrating_stim/white_00602_940928_fb_edt.bmp'><br><font class='baseline'><strong>Ryan</strong><p>Choose number of points to send.</font><div class='respPicDiv'><img src='img/responseButtonOffersNo0L3.png' class='respPic'></div></div>","null","6","Ryan","10","Shared","0.35,0.8","11","0.35","trustrating_stim/white_00602_940928_fb_edt.bmp","6.5","109","16"
"html-keyboard-response","184","455971","0.0-19.0-3.15","63034df51d918e1e3b97e5ce","bdp_trlrn","Wed Mar 15 2023 23:42:29 GMT-0400 (Eastern Daylight Time)","821024","Untrustworthy,Trustworthy","","null","","","","feedback","","<div class='trialDiv'><img src='trustrating_stim/white_00602_940928_fb_edt.bmp'><br><font class='baseline'><strong>Ryan</strong><p>Received: <strong>12</strong></font> &nbsp; &nbsp; &nbsp; &nbsp; &nbsp; &nbsp;<font class='posOutcome'>Shared back: <strong>6</strong></font></font><div class='respPicDiv'><img src='img/responseButtonOffersNo0_wht.png' class='respPic'></div></div>","null","6","Ryan","10","Shared","0.35,0.8","11","0.35","trustrating_stim/white_00602_940928_fb_edt.bmp","6.5","115","16"
"html-keyboard-response","185","456628","0.0-19.0-1.16","63034df51d918e1e3b97e5ce","bdp_trlrn","Wed Mar 15 2023 23:42:29 GMT-0400 (Eastern Daylight Time)","821024","Untrustworthy,Trustworthy","","656","","","","decision","","<div class='trialDiv'><img src='trustrating_stim/white_00785_941205_fb_edt.bmp'><br><font class='baseline'><strong>Brian</strong><p>Choose number of points to send.</font><div class='respPicDiv'><img src='img/responseButtonOffersNo0L.png' class='respPic'></div></div>","4","6","Brian","1","Shared","0.65,0.35","10","0.65","trustrating_stim/white_00785_941205_fb_edt.bmp","2.5","120","17"
"html-keyboard-response","186","456879","0.0-19.0-2.16","63034df51d918e1e3b97e5ce","bdp_trlrn","Wed Mar 15 2023 23:42:29 GMT-0400 (Eastern Daylight Time)","821024","Untrustworthy,Trustworthy","","null","","","","decisionFB","","<div class='trialDiv'><img src='trustrating_stim/white_00785_941205_fb_edt.bmp'><br><font class='baseline'><strong>Brian</strong><p>Choose number of points to send.</font><div class='respPicDiv'><img src='img/responseButtonOffersNo0L4.png' class='respPic'></div></div>","null","6","Brian","1","Shared","0.65,0.35","10","0.65","trustrating_stim/white_00785_941205_fb_edt.bmp","2.5","116","17"
"html-keyboard-response","187","457881","0.0-19.0-3.16","63034df51d918e1e3b97e5ce","bdp_trlrn","Wed Mar 15 2023 23:42:29 GMT-0400 (Eastern Daylight Time)","821024","Untrustworthy,Trustworthy","","null","","","","feedback","","<div class='trialDiv'><img src='trustrating_stim/white_00785_941205_fb_edt.bmp'><br><font class='baseline'><strong>Brian</strong><p>Received: <strong>16</strong></font> &nbsp; &nbsp; &nbsp; &nbsp; &nbsp; &nbsp;<font class='posOutcome'>Shared back: <strong>8</strong></font></font><div class='respPicDiv'><img src='img/responseButtonOffersNo0_wht.png' class='respPic'></div></div>","null","6","Brian","1","Shared","0.65,0.35","10","0.65","trustrating_stim/white_00785_941205_fb_edt.bmp","2.5","124","17"
"html-keyboard-response","188","458694","0.0-19.0-1.17","63034df51d918e1e3b97e5ce","bdp_trlrn","Wed Mar 15 2023 23:42:29 GMT-0400 (Eastern Daylight Time)","821024","Untrustworthy,Trustworthy","","812","","","","decision","","<div class='trialDiv'><img src='trustrating_stim/white_mw035.bmp'><br><font class='baseline'><strong>Marcus</strong><p>Choose number of points to send.</font><div class='respPicDiv'><img src='img/responseButtonOffersNo0L.png' class='respPic'></div></div>","5","6","Marcus","6","Kept","0.8,0.35","10","0.8","trustrating_stim/white_mw035.bmp","3.5","129","18"
"html-keyboard-response","189","458946","0.0-19.0-2.17","63034df51d918e1e3b97e5ce","bdp_trlrn","Wed Mar 15 2023 23:42:29 GMT-0400 (Eastern Daylight Time)","821024","Untrustworthy,Trustworthy","","null","","","","decisionFB","","<div class='trialDiv'><img src='trustrating_stim/white_mw035.bmp'><br><font class='baseline'><strong>Marcus</strong><p>Choose number of points to send.</font><div class='respPicDiv'><img src='img/responseButtonOffersNo0L5.png' class='respPic'></div></div>","null","6","Marcus","6","Kept","0.8,0.35","10","0.8","trustrating_stim/white_mw035.bmp","3.5","124","18"
"html-keyboard-response","190","459948","0.0-19.0-3.17","63034df51d918e1e3b97e5ce","bdp_trlrn","Wed Mar 15 2023 23:42:29 GMT-0400 (Eastern Daylight Time)","821024","Untrustworthy,Trustworthy","","null","","","","feedback","","<div class='trialDiv'><img src='trustrating_stim/white_mw035.bmp'><br><font class='baseline'><strong>Marcus</strong><p>Received: <strong>20</strong></font> &nbsp; &nbsp; &nbsp; &nbsp; &nbsp; &nbsp;<font class='negOutcome'>Shared back: <strong>0</strong></font></font><div class='respPicDiv'><img src='img/responseButtonOffersNo0_wht.png' class='respPic'></div></div>","null","6","Marcus","6","Kept","0.8,0.35","10","0.8","trustrating_stim/white_mw035.bmp","3.5","124","18"
"html-keyboard-response","191","461154","0.0-19.0-1.18","63034df51d918e1e3b97e5ce","bdp_trlrn","Wed Mar 15 2023 23:42:29 GMT-0400 (Eastern Daylight Time)","821024","Untrustworthy,Trustworthy","","1205","","","","decision","","<div class='trialDiv'><img src='trustrating_stim/white_00785_941205_fb_edt.bmp'><br><font class='baseline'><strong>Brian</strong><p>Choose number of points to send.</font><div class='respPicDiv'><img src='img/responseButtonOffersNo0L.png' class='respPic'></div></div>","4","7","Brian","1","Shared","0.65,0.35","10","0.65","trustrating_stim/white_00785_941205_fb_edt.bmp","2.5","129","19"
"html-keyboard-response","192","461406","0.0-19.0-2.18","63034df51d918e1e3b97e5ce","bdp_trlrn","Wed Mar 15 2023 23:42:29 GMT-0400 (Eastern Daylight Time)","821024","Untrustworthy,Trustworthy","","null","","","","decisionFB","","<div class='trialDiv'><img src='trustrating_stim/white_00785_941205_fb_edt.bmp'><br><font class='baseline'><strong>Brian</strong><p>Choose number of points to send.</font><div class='respPicDiv'><img src='img/responseButtonOffersNo0L4.png' class='respPic'></div></div>","null","7","Brian","1","Shared","0.65,0.35","10","0.65","trustrating_stim/white_00785_941205_fb_edt.bmp","2.5","125","19"
"html-keyboard-response","193","462407","0.0-19.0-3.18","63034df51d918e1e3b97e5ce","bdp_trlrn","Wed Mar 15 2023 23:42:29 GMT-0400 (Eastern Daylight Time)","821024","Untrustworthy,Trustworthy","","null","","","","feedback","","<div class='trialDiv'><img src='trustrating_stim/white_00785_941205_fb_edt.bmp'><br><font class='baseline'><strong>Brian</strong><p>Received: <strong>16</strong></font> &nbsp; &nbsp; &nbsp; &nbsp; &nbsp; &nbsp;<font class='posOutcome'>Shared back: <strong>8</strong></font></font><div class='respPicDiv'><img src='img/responseButtonOffersNo0_wht.png' class='respPic'></div></div>","null","7","Brian","1","Shared","0.65,0.35","10","0.65","trustrating_stim/white_00785_941205_fb_edt.bmp","2.5","133","19"
"html-keyboard-response","194","463868","0.0-19.0-1.19","63034df51d918e1e3b97e5ce","bdp_trlrn","Wed Mar 15 2023 23:42:29 GMT-0400 (Eastern Daylight Time)","821024","Untrustworthy,Trustworthy","","1460","","","","decision","","<div class='trialDiv'><img src='trustrating_stim/white_mw035.bmp'><br><font class='baseline'><strong>Marcus</strong><p>Choose number of points to send.</font><div class='respPicDiv'><img src='img/responseButtonOffersNo0L.png' class='respPic'></div></div>","5","7","Marcus","6","Shared","0.8,0.35","10","0.8","trustrating_stim/white_mw035.bmp","3.5","138","20"
"html-keyboard-response","195","464120","0.0-19.0-2.19","63034df51d918e1e3b97e5ce","bdp_trlrn","Wed Mar 15 2023 23:42:29 GMT-0400 (Eastern Daylight Time)","821024","Untrustworthy,Trustworthy","","null","","","","decisionFB","","<div class='trialDiv'><img src='trustrating_stim/white_mw035.bmp'><br><font class='baseline'><strong>Marcus</strong><p>Choose number of points to send.</font><div class='respPicDiv'><img src='img/responseButtonOffersNo0L5.png' class='respPic'></div></div>","null","7","Marcus","6","Shared","0.8,0.35","10","0.8","trustrating_stim/white_mw035.bmp","3.5","133","20"
"html-keyboard-response","196","465121","0.0-19.0-3.19","63034df51d918e1e3b97e5ce","bdp_trlrn","Wed Mar 15 2023 23:42:29 GMT-0400 (Eastern Daylight Time)","821024","Untrustworthy,Trustworthy","","null","","","","feedback","","<div class='trialDiv'><img src='trustrating_stim/white_mw035.bmp'><br><font class='baseline'><strong>Marcus</strong><p>Received: <strong>20</strong></font> &nbsp; &nbsp; &nbsp; &nbsp; &nbsp; &nbsp;<font class='posOutcome'>Shared back: <strong>10</strong></font></font><div class='respPicDiv'><img src='img/responseButtonOffersNo0_wht.png' class='respPic'></div></div>","null","7","Marcus","6","Shared","0.8,0.35","10","0.8","trustrating_stim/white_mw035.bmp","3.5","143","20"
"html-keyboard-response","197","466435","0.0-19.0-1.20","63034df51d918e1e3b97e5ce","bdp_trlrn","Wed Mar 15 2023 23:42:29 GMT-0400 (Eastern Daylight Time)","821024","Untrustworthy,Trustworthy","","1313","","","","decision","","<div class='trialDiv'><img src='trustrating_stim/white_00602_940928_fb_edt.bmp'><br><font class='baseline'><strong>Ryan</strong><p>Choose number of points to send.</font><div class='respPicDiv'><img src='img/responseButtonOffersNo0L.png' class='respPic'></div></div>","3","7","Ryan","10","Kept","0.35,0.8","11","0.35","trustrating_stim/white_00602_940928_fb_edt.bmp","6.5","148","21"
"html-keyboard-response","198","466687","0.0-19.0-2.20","63034df51d918e1e3b97e5ce","bdp_trlrn","Wed Mar 15 2023 23:42:29 GMT-0400 (Eastern Daylight Time)","821024","Untrustworthy,Trustworthy","","null","","","","decisionFB","","<div class='trialDiv'><img src='trustrating_stim/white_00602_940928_fb_edt.bmp'><br><font class='baseline'><strong>Ryan</strong><p>Choose number of points to send.</font><div class='respPicDiv'><img src='img/responseButtonOffersNo0L3.png' class='respPic'></div></div>","null","7","Ryan","10","Kept","0.35,0.8","11","0.35","trustrating_stim/white_00602_940928_fb_edt.bmp","6.5","145","21"
"html-keyboard-response","199","467690","0.0-19.0-3.20","63034df51d918e1e3b97e5ce","bdp_trlrn","Wed Mar 15 2023 23:42:29 GMT-0400 (Eastern Daylight Time)","821024","Untrustworthy,Trustworthy","","null","","","","feedback","","<div class='trialDiv'><img src='trustrating_stim/white_00602_940928_fb_edt.bmp'><br><font class='baseline'><strong>Ryan</strong><p>Received: <strong>12</strong></font> &nbsp; &nbsp; &nbsp; &nbsp; &nbsp; &nbsp;<font class='negOutcome'>Shared back: <strong>0</strong></font></font><div class='respPicDiv'><img src='img/responseButtonOffersNo0_wht.png' class='respPic'></div></div>","null","7","Ryan","10","Kept","0.35,0.8","11","0.35","trustrating_stim/white_00602_940928_fb_edt.bmp","6.5","145","21"
"html-keyboard-response","200","469357","0.0-19.0-1.21","63034df51d918e1e3b97e5ce","bdp_trlrn","Wed Mar 15 2023 23:42:29 GMT-0400 (Eastern Daylight Time)","821024","Untrustworthy,Trustworthy","","1667","","","","decision","","<div class='trialDiv'><img src='trustrating_stim/white_mw035.bmp'><br><font class='baseline'><strong>Marcus</strong><p>Choose number of points to send.</font><div class='respPicDiv'><img src='img/responseButtonOffersNo0L.png' class='respPic'></div></div>","4","8","Marcus","6","Kept","0.8,0.35","10","0.8","trustrating_stim/white_mw035.bmp","3.5","150","22"
"html-keyboard-response","201","469608","0.0-19.0-2.21","63034df51d918e1e3b97e5ce","bdp_trlrn","Wed Mar 15 2023 23:42:29 GMT-0400 (Eastern Daylight Time)","821024","Untrustworthy,Trustworthy","","null","","","","decisionFB","","<div class='trialDiv'><img src='trustrating_stim/white_mw035.bmp'><br><font class='baseline'><strong>Marcus</strong><p>Choose number of points to send.</font><div class='respPicDiv'><img src='img/responseButtonOffersNo0L4.png' class='respPic'></div></div>","null","8","Marcus","6","Kept","0.8,0.35","10","0.8","trustrating_stim/white_mw035.bmp","3.5","146","22"
"html-keyboard-response","202","470610","0.0-19.0-3.21","63034df51d918e1e3b97e5ce","bdp_trlrn","Wed Mar 15 2023 23:42:29 GMT-0400 (Eastern Daylight Time)","821024","Untrustworthy,Trustworthy","","null","","","","feedback","","<div class='trialDiv'><img src='trustrating_stim/white_mw035.bmp'><br><font class='baseline'><strong>Marcus</strong><p>Received: <strong>16</strong></font> &nbsp; &nbsp; &nbsp; &nbsp; &nbsp; &nbsp;<font class='negOutcome'>Shared back: <strong>0</strong></font></font><div class='respPicDiv'><img src='img/responseButtonOffersNo0_wht.png' class='respPic'></div></div>","null","8","Marcus","6","Kept","0.8,0.35","10","0.8","trustrating_stim/white_mw035.bmp","3.5","146","22"
"html-keyboard-response","203","473543","0.0-19.0-1.22","63034df51d918e1e3b97e5ce","bdp_trlrn","Wed Mar 15 2023 23:42:29 GMT-0400 (Eastern Daylight Time)","821024","Untrustworthy,Trustworthy","","2933","","","","decision","","<div class='trialDiv'><img src='trustrating_stim/white_00785_941205_fb_edt.bmp'><br><font class='baseline'><strong>Brian</strong><p>Choose number of points to send.</font><div class='respPicDiv'><img src='img/responseButtonOffersNo0L.png' class='respPic'></div></div>","4","8","Brian","1","Shared","0.65,0.35","10","0.65","trustrating_stim/white_00785_941205_fb_edt.bmp","2.5","151","23"
"html-keyboard-response","204","473794","0.0-19.0-2.22","63034df51d918e1e3b97e5ce","bdp_trlrn","Wed Mar 15 2023 23:42:29 GMT-0400 (Eastern Daylight Time)","821024","Untrustworthy,Trustworthy","","null","","","","decisionFB","","<div class='trialDiv'><img src='trustrating_stim/white_00785_941205_fb_edt.bmp'><br><font class='baseline'><strong>Brian</strong><p>Choose number of points to send.</font><div class='respPicDiv'><img src='img/responseButtonOffersNo0L4.png' class='respPic'></div></div>","null","8","Brian","1","Shared","0.65,0.35","10","0.65","trustrating_stim/white_00785_941205_fb_edt.bmp","2.5","147","23"
"html-keyboard-response","205","474795","0.0-19.0-3.22","63034df51d918e1e3b97e5ce","bdp_trlrn","Wed Mar 15 2023 23:42:29 GMT-0400 (Eastern Daylight Time)","821024","Untrustworthy,Trustworthy","","null","","","","feedback","","<div class='trialDiv'><img src='trustrating_stim/white_00785_941205_fb_edt.bmp'><br><font class='baseline'><strong>Brian</strong><p>Received: <strong>16</strong></font> &nbsp; &nbsp; &nbsp; &nbsp; &nbsp; &nbsp;<font class='posOutcome'>Shared back: <strong>8</strong></font></font><div class='respPicDiv'><img src='img/responseButtonOffersNo0_wht.png' class='respPic'></div></div>","null","8","Brian","1","Shared","0.65,0.35","10","0.65","trustrating_stim/white_00785_941205_fb_edt.bmp","2.5","155","23"
"html-keyboard-response","206","475906","0.0-19.0-1.23","63034df51d918e1e3b97e5ce","bdp_trlrn","Wed Mar 15 2023 23:42:29 GMT-0400 (Eastern Daylight Time)","821024","Untrustworthy,Trustworthy","","1110","","","","decision","","<div class='trialDiv'><img src='trustrating_stim/white_00602_940928_fb_edt.bmp'><br><font class='baseline'><strong>Ryan</strong><p>Choose number of points to send.</font><div class='respPicDiv'><img src='img/responseButtonOffersNo0L.png' class='respPic'></div></div>","3","8","Ryan","10","Kept","0.35,0.8","11","0.35","trustrating_stim/white_00602_940928_fb_edt.bmp","6.5","160","24"
"html-keyboard-response","207","476156","0.0-19.0-2.23","63034df51d918e1e3b97e5ce","bdp_trlrn","Wed Mar 15 2023 23:42:29 GMT-0400 (Eastern Daylight Time)","821024","Untrustworthy,Trustworthy","","null","","","","decisionFB","","<div class='trialDiv'><img src='trustrating_stim/white_00602_940928_fb_edt.bmp'><br><font class='baseline'><strong>Ryan</strong><p>Choose number of points to send.</font><div class='respPicDiv'><img src='img/responseButtonOffersNo0L3.png' class='respPic'></div></div>","null","8","Ryan","10","Kept","0.35,0.8","11","0.35","trustrating_stim/white_00602_940928_fb_edt.bmp","6.5","157","24"
"html-keyboard-response","208","477157","0.0-19.0-3.23","63034df51d918e1e3b97e5ce","bdp_trlrn","Wed Mar 15 2023 23:42:29 GMT-0400 (Eastern Daylight Time)","821024","Untrustworthy,Trustworthy","","null","","","","feedback","","<div class='trialDiv'><img src='trustrating_stim/white_00602_940928_fb_edt.bmp'><br><font class='baseline'><strong>Ryan</strong><p>Received: <strong>12</strong></font> &nbsp; &nbsp; &nbsp; &nbsp; &nbsp; &nbsp;<font class='negOutcome'>Shared back: <strong>0</strong></font></font><div class='respPicDiv'><img src='img/responseButtonOffersNo0_wht.png' class='respPic'></div></div>","null","8","Ryan","10","Kept","0.35,0.8","11","0.35","trustrating_stim/white_00602_940928_fb_edt.bmp","6.5","157","24"
"html-keyboard-response","209","479258","0.0-19.0-1.24","63034df51d918e1e3b97e5ce","bdp_trlrn","Wed Mar 15 2023 23:42:29 GMT-0400 (Eastern Daylight Time)","821024","Untrustworthy,Trustworthy","","2100","","","","decision","","<div class='trialDiv'><img src='trustrating_stim/white_00785_941205_fb_edt.bmp'><br><font class='baseline'><strong>Brian</strong><p>Choose number of points to send.</font><div class='respPicDiv'><img src='img/responseButtonOffersNo0L.png' class='respPic'></div></div>","4","9","Brian","1","Kept","0.65,0.35","10","0.65","trustrating_stim/white_00785_941205_fb_edt.bmp","2.5","162","25"
"html-keyboard-response","210","479509","0.0-19.0-2.24","63034df51d918e1e3b97e5ce","bdp_trlrn","Wed Mar 15 2023 23:42:29 GMT-0400 (Eastern Daylight Time)","821024","Untrustworthy,Trustworthy","","null","","","","decisionFB","","<div class='trialDiv'><img src='trustrating_stim/white_00785_941205_fb_edt.bmp'><br><font class='baseline'><strong>Brian</strong><p>Choose number of points to send.</font><div class='respPicDiv'><img src='img/responseButtonOffersNo0L4.png' class='respPic'></div></div>","null","9","Brian","1","Kept","0.65,0.35","10","0.65","trustrating_stim/white_00785_941205_fb_edt.bmp","2.5","158","25"
"html-keyboard-response","211","480511","0.0-19.0-3.24","63034df51d918e1e3b97e5ce","bdp_trlrn","Wed Mar 15 2023 23:42:29 GMT-0400 (Eastern Daylight Time)","821024","Untrustworthy,Trustworthy","","null","","","","feedback","","<div class='trialDiv'><img src='trustrating_stim/white_00785_941205_fb_edt.bmp'><br><font class='baseline'><strong>Brian</strong><p>Received: <strong>16</strong></font> &nbsp; &nbsp; &nbsp; &nbsp; &nbsp; &nbsp;<font class='negOutcome'>Shared back: <strong>0</strong></font></font><div class='respPicDiv'><img src='img/responseButtonOffersNo0_wht.png' class='respPic'></div></div>","null","9","Brian","1","Kept","0.65,0.35","10","0.65","trustrating_stim/white_00785_941205_fb_edt.bmp","2.5","158","25"
"html-keyboard-response","212","486020","0.0-19.0-1.25","63034df51d918e1e3b97e5ce","bdp_trlrn","Wed Mar 15 2023 23:42:29 GMT-0400 (Eastern Daylight Time)","821024","Untrustworthy,Trustworthy","","5508","","","","decision","","<div class='trialDiv'><img src='trustrating_stim/white_00602_940928_fb_edt.bmp'><br><font class='baseline'><strong>Ryan</strong><p>Choose number of points to send.</font><div class='respPicDiv'><img src='img/responseButtonOffersNo0L.png' class='respPic'></div></div>","5","9","Ryan","10","Kept","0.35,0.8","11","0.35","trustrating_stim/white_00602_940928_fb_edt.bmp","6.5","163","26"
"html-keyboard-response","213","486273","0.0-19.0-2.25","63034df51d918e1e3b97e5ce","bdp_trlrn","Wed Mar 15 2023 23:42:29 GMT-0400 (Eastern Daylight Time)","821024","Untrustworthy,Trustworthy","","null","","","","decisionFB","","<div class='trialDiv'><img src='trustrating_stim/white_00602_940928_fb_edt.bmp'><br><font class='baseline'><strong>Ryan</strong><p>Choose number of points to send.</font><div class='respPicDiv'><img src='img/responseButtonOffersNo0L5.png' class='respPic'></div></div>","null","9","Ryan","10","Kept","0.35,0.8","11","0.35","trustrating_stim/white_00602_940928_fb_edt.bmp","6.5","158","26"
"html-keyboard-response","214","487275","0.0-19.0-3.25","63034df51d918e1e3b97e5ce","bdp_trlrn","Wed Mar 15 2023 23:42:29 GMT-0400 (Eastern Daylight Time)","821024","Untrustworthy,Trustworthy","","null","","","","feedback","","<div class='trialDiv'><img src='trustrating_stim/white_00602_940928_fb_edt.bmp'><br><font class='baseline'><strong>Ryan</strong><p>Received: <strong>20</strong></font> &nbsp; &nbsp; &nbsp; &nbsp; &nbsp; &nbsp;<font class='negOutcome'>Shared back: <strong>0</strong></font></font><div class='respPicDiv'><img src='img/responseButtonOffersNo0_wht.png' class='respPic'></div></div>","null","9","Ryan","10","Kept","0.35,0.8","11","0.35","trustrating_stim/white_00602_940928_fb_edt.bmp","6.5","158","26"
"html-keyboard-response","215","487980","0.0-19.0-1.26","63034df51d918e1e3b97e5ce","bdp_trlrn","Wed Mar 15 2023 23:42:29 GMT-0400 (Eastern Daylight Time)","821024","Untrustworthy,Trustworthy","","705","","","","decision","","<div class='trialDiv'><img src='trustrating_stim/white_mw035.bmp'><br><font class='baseline'><strong>Marcus</strong><p>Choose number of points to send.</font><div class='respPicDiv'><img src='img/responseButtonOffersNo0L.png' class='respPic'></div></div>","5","9","Marcus","6","Shared","0.8,0.35","10","0.8","trustrating_stim/white_mw035.bmp","3.5","163","27"
"html-keyboard-response","216","488235","0.0-19.0-2.26","63034df51d918e1e3b97e5ce","bdp_trlrn","Wed Mar 15 2023 23:42:29 GMT-0400 (Eastern Daylight Time)","821024","Untrustworthy,Trustworthy","","null","","","","decisionFB","","<div class='trialDiv'><img src='trustrating_stim/white_mw035.bmp'><br><font class='baseline'><strong>Marcus</strong><p>Choose number of points to send.</font><div class='respPicDiv'><img src='img/responseButtonOffersNo0L5.png' class='respPic'></div></div>","null","9","Marcus","6","Shared","0.8,0.35","10","0.8","trustrating_stim/white_mw035.bmp","3.5","158","27"
"html-keyboard-response","217","489236","0.0-19.0-3.26","63034df51d918e1e3b97e5ce","bdp_trlrn","Wed Mar 15 2023 23:42:29 GMT-0400 (Eastern Daylight Time)","821024","Untrustworthy,Trustworthy","","null","","","","feedback","","<div class='trialDiv'><img src='trustrating_stim/white_mw035.bmp'><br><font class='baseline'><strong>Marcus</strong><p>Received: <strong>20</strong></font> &nbsp; &nbsp; &nbsp; &nbsp; &nbsp; &nbsp;<font class='posOutcome'>Shared back: <strong>10</strong></font></font><div class='respPicDiv'><img src='img/responseButtonOffersNo0_wht.png' class='respPic'></div></div>","null","9","Marcus","6","Shared","0.8,0.35","10","0.8","trustrating_stim/white_mw035.bmp","3.5","168","27"
"html-keyboard-response","218","490483","0.0-19.0-1.27","63034df51d918e1e3b97e5ce","bdp_trlrn","Wed Mar 15 2023 23:42:29 GMT-0400 (Eastern Daylight Time)","821024","Untrustworthy,Trustworthy","","1247","","","","decision","","<div class='trialDiv'><img src='trustrating_stim/white_00602_940928_fb_edt.bmp'><br><font class='baseline'><strong>Ryan</strong><p>Choose number of points to send.</font><div class='respPicDiv'><img src='img/responseButtonOffersNo0L.png' class='respPic'></div></div>","3","10","Ryan","10","Kept","0.35,0.8","11","0.35","trustrating_stim/white_00602_940928_fb_edt.bmp","6.5","173","28"
"html-keyboard-response","219","490735","0.0-19.0-2.27","63034df51d918e1e3b97e5ce","bdp_trlrn","Wed Mar 15 2023 23:42:29 GMT-0400 (Eastern Daylight Time)","821024","Untrustworthy,Trustworthy","","null","","","","decisionFB","","<div class='trialDiv'><img src='trustrating_stim/white_00602_940928_fb_edt.bmp'><br><font class='baseline'><strong>Ryan</strong><p>Choose number of points to send.</font><div class='respPicDiv'><img src='img/responseButtonOffersNo0L3.png' class='respPic'></div></div>","null","10","Ryan","10","Kept","0.35,0.8","11","0.35","trustrating_stim/white_00602_940928_fb_edt.bmp","6.5","170","28"
