"trial_type","trial_index","time_elapsed","internal_node_id","subject_id","task","startTime","totalTime","labels","view_history","rt","event","trial","time","trialtype","success","stimulus","key_press","aground","name","faceID","outcome","agenttype","agentswpt","agentcurrpshare","face","avgRating","point_total","round"
"pavlovia","0","6","0.0-0.0","60fcd5602ff7c8f0866ecd0c","bdp_trlrn","Mon Mar 13 2023 13:35:25 GMT-0400 (Eastern Daylight Time)","693263","Trustworthy,Untrustworthy","","","","","","","","","","","","","","","","","","","",""
"instructions","1","8785","0.0-1.0","60fcd5602ff7c8f0866ecd0c","bdp_trlrn","Mon Mar 13 2023 13:35:25 GMT-0400 (Eastern Daylight Time)","693263","Trustworthy,Untrustworthy","[{""page_index"":0,""viewing_time"":8777}]","8777","","","","","","","","","","","","","","","","","",""
"","","","","60fcd5602ff7c8f0866ecd0c","bdp_trlrn","Mon Mar 13 2023 13:35:25 GMT-0400 (Eastern Daylight Time)","693263","Trustworthy,Untrustworthy","","","fullscreenenter","2","11594","fullscreenenter","","","","","","","","","","","","","",""
"fullscreen","2","12569","0.0-2.0","60fcd5602ff7c8f0866ecd0c","bdp_trlrn","Mon Mar 13 2023 13:35:25 GMT-0400 (Eastern Daylight Time)","693263","Trustworthy,Untrustworthy","","","","","","","true","","","","","","","","","","","","",""
"instructions","3","43076","0.0-4.0","60fcd5602ff7c8f0866ecd0c","bdp_trlrn","Mon Mar 13 2023 13:35:25 GMT-0400 (Eastern Daylight Time)","693263","Trustworthy,Untrustworthy","[{""page_index"":0,""viewing_time"":13368},{""page_index"":1,""viewing_time"":17139}]","30507","","","","","","","","","","","","","","","","","",""
"instructions","4","44294","0.0-5.0","60fcd5602ff7c8f0866ecd0c","bdp_trlrn","Mon Mar 13 2023 13:35:25 GMT-0400 (Eastern Daylight Time)","693263","Trustworthy,Untrustworthy","[{""page_index"":0,""viewing_time"":1217}]","1217","","","","","","","","","","","","","","","","","",""
"image-keyboard-response","5","47729","0.0-6.0-1.0","60fcd5602ff7c8f0866ecd0c","bdp_trlrn","Mon Mar 13 2023 13:35:25 GMT-0400 (Eastern Daylight Time)","693263","Trustworthy,Untrustworthy","","3332","","","","rating","","trustrating_stim/white_00340_940422_fa_edt.bmp","9","","","","","","","","","","",""
"image-keyboard-response","6","47936","0.0-6.0-2.0","60fcd5602ff7c8f0866ecd0c","bdp_trlrn","Mon Mar 13 2023 13:35:25 GMT-0400 (Eastern Daylight Time)","693263","Trustworthy,Untrustworthy","","null","","","","ratingFB","","trustrating_stim/white_00340_940422_fa_edt.bmp","null","","","","","","","","","","",""
"image-keyboard-response","7","54185","0.0-6.0-1.1","60fcd5602ff7c8f0866ecd0c","bdp_trlrn","Mon Mar 13 2023 13:35:25 GMT-0400 (Eastern Daylight Time)","693263","Trustworthy,Untrustworthy","","6140","","","","rating","","trustrating_stim/white_mw049.bmp","5","","","","","","","","","","",""
"image-keyboard-response","8","54397","0.0-6.0-2.1","60fcd5602ff7c8f0866ecd0c","bdp_trlrn","Mon Mar 13 2023 13:35:25 GMT-0400 (Eastern Daylight Time)","693263","Trustworthy,Untrustworthy","","null","","","","ratingFB","","trustrating_stim/white_mw049.bmp","null","","","","","","","","","","",""
"image-keyboard-response","9","56733","0.0-6.0-1.2","60fcd5602ff7c8f0866ecd0c","bdp_trlrn","Mon Mar 13 2023 13:35:25 GMT-0400 (Eastern Daylight Time)","693263","Trustworthy,Untrustworthy","","2224","","","","rating","","trustrating_stim/white_mw046.bmp","7","","","","","","","","","","",""
"image-keyboard-response","10","56949","0.0-6.0-2.2","60fcd5602ff7c8f0866ecd0c","bdp_trlrn","Mon Mar 13 2023 13:35:25 GMT-0400 (Eastern Daylight Time)","693263","Trustworthy,Untrustworthy","","null","","","","ratingFB","","trustrating_stim/white_mw046.bmp","null","","","","","","","","","","",""
"image-keyboard-response","11","60148","0.0-6.0-1.3","60fcd5602ff7c8f0866ecd0c","bdp_trlrn","Mon Mar 13 2023 13:35:25 GMT-0400 (Eastern Daylight Time)","693263","Trustworthy,Untrustworthy","","3082","","","","rating","","trustrating_stim/white_00129_931230_fb_edt.bmp","4","","","","","","","","","","",""
"image-keyboard-response","12","60356","0.0-6.0-2.3","60fcd5602ff7c8f0866ecd0c","bdp_trlrn","Mon Mar 13 2023 13:35:25 GMT-0400 (Eastern Daylight Time)","693263","Trustworthy,Untrustworthy","","null","","","","ratingFB","","trustrating_stim/white_00129_931230_fb_edt.bmp","null","","","","","","","","","","",""
"image-keyboard-response","13","61791","0.0-6.0-1.4","60fcd5602ff7c8f0866ecd0c","bdp_trlrn","Mon Mar 13 2023 13:35:25 GMT-0400 (Eastern Daylight Time)","693263","Trustworthy,Untrustworthy","","1320","","","","rating","","trustrating_stim/white_00659_941121_fa_edt.bmp","9","","","","","","","","","","",""
"image-keyboard-response","14","62008","0.0-6.0-2.4","60fcd5602ff7c8f0866ecd0c","bdp_trlrn","Mon Mar 13 2023 13:35:25 GMT-0400 (Eastern Daylight Time)","693263","Trustworthy,Untrustworthy","","null","","","","ratingFB","","trustrating_stim/white_00659_941121_fa_edt.bmp","null","","","","","","","","","","",""
"image-keyboard-response","15","63178","0.0-6.0-1.5","60fcd5602ff7c8f0866ecd0c","bdp_trlrn","Mon Mar 13 2023 13:35:25 GMT-0400 (Eastern Daylight Time)","693263","Trustworthy,Untrustworthy","","1054","","","","rating","","trustrating_stim/white_00761_941201_fb_edt.bmp","9","","","","","","","","","","",""
"image-keyboard-response","16","63388","0.0-6.0-2.5","60fcd5602ff7c8f0866ecd0c","bdp_trlrn","Mon Mar 13 2023 13:35:25 GMT-0400 (Eastern Daylight Time)","693263","Trustworthy,Untrustworthy","","null","","","","ratingFB","","trustrating_stim/white_00761_941201_fb_edt.bmp","null","","","","","","","","","","",""
"image-keyboard-response","17","64516","0.0-6.0-1.6","60fcd5602ff7c8f0866ecd0c","bdp_trlrn","Mon Mar 13 2023 13:35:25 GMT-0400 (Eastern Daylight Time)","693263","Trustworthy,Untrustworthy","","1022","","","","rating","","trustrating_stim/white_00807_941205_fb_edt.bmp","9","","","","","","","","","","",""
"image-keyboard-response","18","64728","0.0-6.0-2.6","60fcd5602ff7c8f0866ecd0c","bdp_trlrn","Mon Mar 13 2023 13:35:25 GMT-0400 (Eastern Daylight Time)","693263","Trustworthy,Untrustworthy","","null","","","","ratingFB","","trustrating_stim/white_00807_941205_fb_edt.bmp","null","","","","","","","","","","",""
"image-keyboard-response","19","66915","0.0-6.0-1.7","60fcd5602ff7c8f0866ecd0c","bdp_trlrn","Mon Mar 13 2023 13:35:25 GMT-0400 (Eastern Daylight Time)","693263","Trustworthy,Untrustworthy","","2082","","","","rating","","trustrating_stim/white_00519_940519_fb_edt.bmp","7","","","","","","","","","","",""
"image-keyboard-response","20","67123","0.0-6.0-2.7","60fcd5602ff7c8f0866ecd0c","bdp_trlrn","Mon Mar 13 2023 13:35:25 GMT-0400 (Eastern Daylight Time)","693263","Trustworthy,Untrustworthy","","null","","","","ratingFB","","trustrating_stim/white_00519_940519_fb_edt.bmp","null","","","","","","","","","","",""
"image-keyboard-response","21","69563","0.0-6.0-1.8","60fcd5602ff7c8f0866ecd0c","bdp_trlrn","Mon Mar 13 2023 13:35:25 GMT-0400 (Eastern Daylight Time)","693263","Trustworthy,Untrustworthy","","2336","","","","rating","","trustrating_stim/white_00109_931230_fa_edt.bmp","4","","","","","","","","","","",""
"image-keyboard-response","22","69777","0.0-6.0-2.8","60fcd5602ff7c8f0866ecd0c","bdp_trlrn","Mon Mar 13 2023 13:35:25 GMT-0400 (Eastern Daylight Time)","693263","Trustworthy,Untrustworthy","","null","","","","ratingFB","","trustrating_stim/white_00109_931230_fa_edt.bmp","null","","","","","","","","","","",""
"image-keyboard-response","23","71299","0.0-6.0-1.9","60fcd5602ff7c8f0866ecd0c","bdp_trlrn","Mon Mar 13 2023 13:35:25 GMT-0400 (Eastern Daylight Time)","693263","Trustworthy,Untrustworthy","","1409","","","","rating","","trustrating_stim/white_mw066.bmp","7","","","","","","","","","","",""
"image-keyboard-response","24","71501","0.0-6.0-2.9","60fcd5602ff7c8f0866ecd0c","bdp_trlrn","Mon Mar 13 2023 13:35:25 GMT-0400 (Eastern Daylight Time)","693263","Trustworthy,Untrustworthy","","null","","","","ratingFB","","trustrating_stim/white_mw066.bmp","null","","","","","","","","","","",""
"image-keyboard-response","25","72651","0.0-6.0-1.10","60fcd5602ff7c8f0866ecd0c","bdp_trlrn","Mon Mar 13 2023 13:35:25 GMT-0400 (Eastern Daylight Time)","693263","Trustworthy,Untrustworthy","","1043","","","","rating","","trustrating_stim/white_mw097.bmp","9","","","","","","","","","","",""
"image-keyboard-response","26","72854","0.0-6.0-2.10","60fcd5602ff7c8f0866ecd0c","bdp_trlrn","Mon Mar 13 2023 13:35:25 GMT-0400 (Eastern Daylight Time)","693263","Trustworthy,Untrustworthy","","null","","","","ratingFB","","trustrating_stim/white_mw097.bmp","null","","","","","","","","","","",""
"image-keyboard-response","27","74614","0.0-6.0-1.11","60fcd5602ff7c8f0866ecd0c","bdp_trlrn","Mon Mar 13 2023 13:35:25 GMT-0400 (Eastern Daylight Time)","693263","Trustworthy,Untrustworthy","","1656","","","","rating","","trustrating_stim/white_mw099.bmp","8","","","","","","","","","","",""
"image-keyboard-response","28","74816","0.0-6.0-2.11","60fcd5602ff7c8f0866ecd0c","bdp_trlrn","Mon Mar 13 2023 13:35:25 GMT-0400 (Eastern Daylight Time)","693263","Trustworthy,Untrustworthy","","null","","","","ratingFB","","trustrating_stim/white_mw099.bmp","null","","","","","","","","","","",""
"image-keyboard-response","29","78161","0.0-6.0-1.12","60fcd5602ff7c8f0866ecd0c","bdp_trlrn","Mon Mar 13 2023 13:35:25 GMT-0400 (Eastern Daylight Time)","693263","Trustworthy,Untrustworthy","","3229","","","","rating","","trustrating_stim/white_mw033.bmp","8","","","","","","","","","","",""
"image-keyboard-response","30","78370","0.0-6.0-2.12","60fcd5602ff7c8f0866ecd0c","bdp_trlrn","Mon Mar 13 2023 13:35:25 GMT-0400 (Eastern Daylight Time)","693263","Trustworthy,Untrustworthy","","null","","","","ratingFB","","trustrating_stim/white_mw033.bmp","null","","","","","","","","","","",""
"image-keyboard-response","31","80612","0.0-6.0-1.13","60fcd5602ff7c8f0866ecd0c","bdp_trlrn","Mon Mar 13 2023 13:35:25 GMT-0400 (Eastern Daylight Time)","693263","Trustworthy,Untrustworthy","","2133","","","","rating","","trustrating_stim/white_00757_941201_fa_edt.bmp","7","","","","","","","","","","",""
"image-keyboard-response","32","80817","0.0-6.0-2.13","60fcd5602ff7c8f0866ecd0c","bdp_trlrn","Mon Mar 13 2023 13:35:25 GMT-0400 (Eastern Daylight Time)","693263","Trustworthy,Untrustworthy","","null","","","","ratingFB","","trustrating_stim/white_00757_941201_fa_edt.bmp","null","","","","","","","","","","",""
"image-keyboard-response","33","82261","0.0-6.0-1.14","60fcd5602ff7c8f0866ecd0c","bdp_trlrn","Mon Mar 13 2023 13:35:25 GMT-0400 (Eastern Daylight Time)","693263","Trustworthy,Untrustworthy","","1337","","","","rating","","trustrating_stim/white_mw048.bmp","8","","","","","","","","","","",""
"image-keyboard-response","34","82467","0.0-6.0-2.14","60fcd5602ff7c8f0866ecd0c","bdp_trlrn","Mon Mar 13 2023 13:35:25 GMT-0400 (Eastern Daylight Time)","693263","Trustworthy,Untrustworthy","","null","","","","ratingFB","","trustrating_stim/white_mw048.bmp","null","","","","","","","","","","",""
"image-keyboard-response","35","83919","0.0-6.0-1.15","60fcd5602ff7c8f0866ecd0c","bdp_trlrn","Mon Mar 13 2023 13:35:25 GMT-0400 (Eastern Daylight Time)","693263","Trustworthy,Untrustworthy","","1336","","","","rating","","trustrating_stim/white_00299_940422_fa_edt.bmp","5","","","","","","","","","","",""
"image-keyboard-response","36","84127","0.0-6.0-2.15","60fcd5602ff7c8f0866ecd0c","bdp_trlrn","Mon Mar 13 2023 13:35:25 GMT-0400 (Eastern Daylight Time)","693263","Trustworthy,Untrustworthy","","null","","","","ratingFB","","trustrating_stim/white_00299_940422_fa_edt.bmp","null","","","","","","","","","","",""
"image-keyboard-response","37","87112","0.0-6.0-1.16","60fcd5602ff7c8f0866ecd0c","bdp_trlrn","Mon Mar 13 2023 13:35:25 GMT-0400 (Eastern Daylight Time)","693263","Trustworthy,Untrustworthy","","2877","","","","rating","","trustrating_stim/white_00898_960530_fa_edt.bmp","3","","","","","","","","","","",""
"image-keyboard-response","38","87315","0.0-6.0-2.16","60fcd5602ff7c8f0866ecd0c","bdp_trlrn","Mon Mar 13 2023 13:35:25 GMT-0400 (Eastern Daylight Time)","693263","Trustworthy,Untrustworthy","","null","","","","ratingFB","","trustrating_stim/white_00898_960530_fa_edt.bmp","null","","","","","","","","","","",""
"image-keyboard-response","39","89172","0.0-6.0-1.17","60fcd5602ff7c8f0866ecd0c","bdp_trlrn","Mon Mar 13 2023 13:35:25 GMT-0400 (Eastern Daylight Time)","693263","Trustworthy,Untrustworthy","","1741","","","","rating","","trustrating_stim/white_mw053.bmp","5","","","","","","","","","","",""
"image-keyboard-response","40","89381","0.0-6.0-2.17","60fcd5602ff7c8f0866ecd0c","bdp_trlrn","Mon Mar 13 2023 13:35:25 GMT-0400 (Eastern Daylight Time)","693263","Trustworthy,Untrustworthy","","null","","","","ratingFB","","trustrating_stim/white_mw053.bmp","null","","","","","","","","","","",""
"image-keyboard-response","41","91273","0.0-6.0-1.18","60fcd5602ff7c8f0866ecd0c","bdp_trlrn","Mon Mar 13 2023 13:35:25 GMT-0400 (Eastern Daylight Time)","693263","Trustworthy,Untrustworthy","","1777","","","","rating","","trustrating_stim/white_00602_940928_fb_edt.bmp","4","","","","","","","","","","",""
"image-keyboard-response","42","91476","0.0-6.0-2.18","60fcd5602ff7c8f0866ecd0c","bdp_trlrn","Mon Mar 13 2023 13:35:25 GMT-0400 (Eastern Daylight Time)","693263","Trustworthy,Untrustworthy","","null","","","","ratingFB","","trustrating_stim/white_00602_940928_fb_edt.bmp","null","","","","","","","","","","",""
"image-keyboard-response","43","93079","0.0-6.0-1.19","60fcd5602ff7c8f0866ecd0c","bdp_trlrn","Mon Mar 13 2023 13:35:25 GMT-0400 (Eastern Daylight Time)","693263","Trustworthy,Untrustworthy","","1490","","","","rating","","trustrating_stim/white_mw089.bmp","8","","","","","","","","","","",""
"image-keyboard-response","44","93291","0.0-6.0-2.19","60fcd5602ff7c8f0866ecd0c","bdp_trlrn","Mon Mar 13 2023 13:35:25 GMT-0400 (Eastern Daylight Time)","693263","Trustworthy,Untrustworthy","","null","","","","ratingFB","","trustrating_stim/white_mw089.bmp","null","","","","","","","","","","",""
"image-keyboard-response","45","94881","0.0-6.0-1.20","60fcd5602ff7c8f0866ecd0c","bdp_trlrn","Mon Mar 13 2023 13:35:25 GMT-0400 (Eastern Daylight Time)","693263","Trustworthy,Untrustworthy","","1476","","","","rating","","trustrating_stim/white_00577_940928_fa_edt.bmp","8","","","","","","","","","","",""
"image-keyboard-response","46","95088","0.0-6.0-2.20","60fcd5602ff7c8f0866ecd0c","bdp_trlrn","Mon Mar 13 2023 13:35:25 GMT-0400 (Eastern Daylight Time)","693263","Trustworthy,Untrustworthy","","null","","","","ratingFB","","trustrating_stim/white_00577_940928_fa_edt.bmp","null","","","","","","","","","","",""
"image-keyboard-response","47","97240","0.0-6.0-1.21","60fcd5602ff7c8f0866ecd0c","bdp_trlrn","Mon Mar 13 2023 13:35:25 GMT-0400 (Eastern Daylight Time)","693263","Trustworthy,Untrustworthy","","2050","","","","rating","","trustrating_stim/white_mw035.bmp","7","","","","","","","","","","",""
"image-keyboard-response","48","97442","0.0-6.0-2.21","60fcd5602ff7c8f0866ecd0c","bdp_trlrn","Mon Mar 13 2023 13:35:25 GMT-0400 (Eastern Daylight Time)","693263","Trustworthy,Untrustworthy","","null","","","","ratingFB","","trustrating_stim/white_mw035.bmp","null","","","","","","","","","","",""
"image-keyboard-response","49","98753","0.0-6.0-1.22","60fcd5602ff7c8f0866ecd0c","bdp_trlrn","Mon Mar 13 2023 13:35:25 GMT-0400 (Eastern Daylight Time)","693263","Trustworthy,Untrustworthy","","1196","","","","rating","","trustrating_stim/white_mw063.bmp","7","","","","","","","","","","",""
"image-keyboard-response","50","98961","0.0-6.0-2.22","60fcd5602ff7c8f0866ecd0c","bdp_trlrn","Mon Mar 13 2023 13:35:25 GMT-0400 (Eastern Daylight Time)","693263","Trustworthy,Untrustworthy","","null","","","","ratingFB","","trustrating_stim/white_mw063.bmp","null","","","","","","","","","","",""
"image-keyboard-response","51","102021","0.0-6.0-1.23","60fcd5602ff7c8f0866ecd0c","bdp_trlrn","Mon Mar 13 2023 13:35:25 GMT-0400 (Eastern Daylight Time)","693263","Trustworthy,Untrustworthy","","2956","","","","rating","","trustrating_stim/white_mw084.bmp","7","","","","","","","","","","",""
"image-keyboard-response","52","102232","0.0-6.0-2.23","60fcd5602ff7c8f0866ecd0c","bdp_trlrn","Mon Mar 13 2023 13:35:25 GMT-0400 (Eastern Daylight Time)","693263","Trustworthy,Untrustworthy","","null","","","","ratingFB","","trustrating_stim/white_mw084.bmp","null","","","","","","","","","","",""
"image-keyboard-response","53","103313","0.0-6.0-1.24","60fcd5602ff7c8f0866ecd0c","bdp_trlrn","Mon Mar 13 2023 13:35:25 GMT-0400 (Eastern Daylight Time)","693263","Trustworthy,Untrustworthy","","972","","","","rating","","trustrating_stim/white_mw060.bmp","8","","","","","","","","","","",""
"image-keyboard-response","54","103517","0.0-6.0-2.24","60fcd5602ff7c8f0866ecd0c","bdp_trlrn","Mon Mar 13 2023 13:35:25 GMT-0400 (Eastern Daylight Time)","693263","Trustworthy,Untrustworthy","","null","","","","ratingFB","","trustrating_stim/white_mw060.bmp","null","","","","","","","","","","",""
"image-keyboard-response","55","105048","0.0-6.0-1.25","60fcd5602ff7c8f0866ecd0c","bdp_trlrn","Mon Mar 13 2023 13:35:25 GMT-0400 (Eastern Daylight Time)","693263","Trustworthy,Untrustworthy","","1427","","","","rating","","trustrating_stim/white_00785_941205_fb_edt.bmp","6","","","","","","","","","","",""
"image-keyboard-response","56","105262","0.0-6.0-2.25","60fcd5602ff7c8f0866ecd0c","bdp_trlrn","Mon Mar 13 2023 13:35:25 GMT-0400 (Eastern Daylight Time)","693263","Trustworthy,Untrustworthy","","null","","","","ratingFB","","trustrating_stim/white_00785_941205_fb_edt.bmp","null","","","","","","","","","","",""
"image-keyboard-response","57","106682","0.0-6.0-1.26","60fcd5602ff7c8f0866ecd0c","bdp_trlrn","Mon Mar 13 2023 13:35:25 GMT-0400 (Eastern Daylight Time)","693263","Trustworthy,Untrustworthy","","1312","","","","rating","","trustrating_stim/white_mw056.bmp","7","","","","","","","","","","",""
"image-keyboard-response","58","106884","0.0-6.0-2.26","60fcd5602ff7c8f0866ecd0c","bdp_trlrn","Mon Mar 13 2023 13:35:25 GMT-0400 (Eastern Daylight Time)","693263","Trustworthy,Untrustworthy","","null","","","","ratingFB","","trustrating_stim/white_mw056.bmp","null","","","","","","","","","","",""
"image-keyboard-response","59","109049","0.0-6.0-1.27","60fcd5602ff7c8f0866ecd0c","bdp_trlrn","Mon Mar 13 2023 13:35:25 GMT-0400 (Eastern Daylight Time)","693263","Trustworthy,Untrustworthy","","2051","","","","rating","","trustrating_stim/white_00223_940128_fb_edt.bmp","6","","","","","","","","","","",""
"image-keyboard-response","60","109254","0.0-6.0-2.27","60fcd5602ff7c8f0866ecd0c","bdp_trlrn","Mon Mar 13 2023 13:35:25 GMT-0400 (Eastern Daylight Time)","693263","Trustworthy,Untrustworthy","","null","","","","ratingFB","","trustrating_stim/white_00223_940128_fb_edt.bmp","null","","","","","","","","","","",""
"image-keyboard-response","61","111022","0.0-6.0-1.28","60fcd5602ff7c8f0866ecd0c","bdp_trlrn","Mon Mar 13 2023 13:35:25 GMT-0400 (Eastern Daylight Time)","693263","Trustworthy,Untrustworthy","","1666","","","","rating","","trustrating_stim/white_mw071.bmp","8","","","","","","","","","","",""
"image-keyboard-response","62","111226","0.0-6.0-2.28","60fcd5602ff7c8f0866ecd0c","bdp_trlrn","Mon Mar 13 2023 13:35:25 GMT-0400 (Eastern Daylight Time)","693263","Trustworthy,Untrustworthy","","null","","","","ratingFB","","trustrating_stim/white_mw071.bmp","null","","","","","","","","","","",""
"image-keyboard-response","63","112755","0.0-6.0-1.29","60fcd5602ff7c8f0866ecd0c","bdp_trlrn","Mon Mar 13 2023 13:35:25 GMT-0400 (Eastern Daylight Time)","693263","Trustworthy,Untrustworthy","","1421","","","","rating","","trustrating_stim/white_00120_931230_fa_edt.bmp","4","","","","","","","","","","",""
"image-keyboard-response","64","112959","0.0-6.0-2.29","60fcd5602ff7c8f0866ecd0c","bdp_trlrn","Mon Mar 13 2023 13:35:25 GMT-0400 (Eastern Daylight Time)","693263","Trustworthy,Untrustworthy","","null","","","","ratingFB","","trustrating_stim/white_00120_931230_fa_edt.bmp","null","","","","","","","","","","",""
"image-keyboard-response","65","115701","0.0-6.0-1.30","60fcd5602ff7c8f0866ecd0c","bdp_trlrn","Mon Mar 13 2023 13:35:25 GMT-0400 (Eastern Daylight Time)","693263","Trustworthy,Untrustworthy","","2628","","","","rating","","trustrating_stim/white_00519_940519_fb_edt.bmp","7","","","","","","","","","","",""
"image-keyboard-response","66","115912","0.0-6.0-2.30","60fcd5602ff7c8f0866ecd0c","bdp_trlrn","Mon Mar 13 2023 13:35:25 GMT-0400 (Eastern Daylight Time)","693263","Trustworthy,Untrustworthy","","null","","","","ratingFB","","trustrating_stim/white_00519_940519_fb_edt.bmp","null","","","","","","","","","","",""
"image-keyboard-response","67","125782","0.0-6.0-1.31","60fcd5602ff7c8f0866ecd0c","bdp_trlrn","Mon Mar 13 2023 13:35:25 GMT-0400 (Eastern Daylight Time)","693263","Trustworthy,Untrustworthy","","9760","","","","rating","","trustrating_stim/white_mw053.bmp","5","","","","","","","","","","",""
"image-keyboard-response","68","126000","0.0-6.0-2.31","60fcd5602ff7c8f0866ecd0c","bdp_trlrn","Mon Mar 13 2023 13:35:25 GMT-0400 (Eastern Daylight Time)","693263","Trustworthy,Untrustworthy","","null","","","","ratingFB","","trustrating_stim/white_mw053.bmp","null","","","","","","","","","","",""
"image-keyboard-response","69","130667","0.0-6.0-1.32","60fcd5602ff7c8f0866ecd0c","bdp_trlrn","Mon Mar 13 2023 13:35:25 GMT-0400 (Eastern Daylight Time)","693263","Trustworthy,Untrustworthy","","4562","","","","rating","","trustrating_stim/white_mw066.bmp","4","","","","","","","","","","",""
"image-keyboard-response","70","130883","0.0-6.0-2.32","60fcd5602ff7c8f0866ecd0c","bdp_trlrn","Mon Mar 13 2023 13:35:25 GMT-0400 (Eastern Daylight Time)","693263","Trustworthy,Untrustworthy","","null","","","","ratingFB","","trustrating_stim/white_mw066.bmp","null","","","","","","","","","","",""
"image-keyboard-response","71","132452","0.0-6.0-1.33","60fcd5602ff7c8f0866ecd0c","bdp_trlrn","Mon Mar 13 2023 13:35:25 GMT-0400 (Eastern Daylight Time)","693263","Trustworthy,Untrustworthy","","1463","","","","rating","","trustrating_stim/white_mw060.bmp","7","","","","","","","","","","",""
"image-keyboard-response","72","132667","0.0-6.0-2.33","60fcd5602ff7c8f0866ecd0c","bdp_trlrn","Mon Mar 13 2023 13:35:25 GMT-0400 (Eastern Daylight Time)","693263","Trustworthy,Untrustworthy","","null","","","","ratingFB","","trustrating_stim/white_mw060.bmp","null","","","","","","","","","","",""
"image-keyboard-response","73","136291","0.0-6.0-1.34","60fcd5602ff7c8f0866ecd0c","bdp_trlrn","Mon Mar 13 2023 13:35:25 GMT-0400 (Eastern Daylight Time)","693263","Trustworthy,Untrustworthy","","3520","","","","rating","","trustrating_stim/white_00223_940128_fb_edt.bmp","6","","","","","","","","","","",""
"image-keyboard-response","74","136508","0.0-6.0-2.34","60fcd5602ff7c8f0866ecd0c","bdp_trlrn","Mon Mar 13 2023 13:35:25 GMT-0400 (Eastern Daylight Time)","693263","Trustworthy,Untrustworthy","","null","","","","ratingFB","","trustrating_stim/white_00223_940128_fb_edt.bmp","null","","","","","","","","","","",""
"image-keyboard-response","75","138432","0.0-6.0-1.35","60fcd5602ff7c8f0866ecd0c","bdp_trlrn","Mon Mar 13 2023 13:35:25 GMT-0400 (Eastern Daylight Time)","693263","Trustworthy,Untrustworthy","","1809","","","","rating","","trustrating_stim/white_00659_941121_fa_edt.bmp","8","","","","","","","","","","",""
"image-keyboard-response","76","138639","0.0-6.0-2.35","60fcd5602ff7c8f0866ecd0c","bdp_trlrn","Mon Mar 13 2023 13:35:25 GMT-0400 (Eastern Daylight Time)","693263","Trustworthy,Untrustworthy","","null","","","","ratingFB","","trustrating_stim/white_00659_941121_fa_edt.bmp","null","","","","","","","","","","",""
"image-keyboard-response","77","140492","0.0-6.0-1.36","60fcd5602ff7c8f0866ecd0c","bdp_trlrn","Mon Mar 13 2023 13:35:25 GMT-0400 (Eastern Daylight Time)","693263","Trustworthy,Untrustworthy","","1744","","","","rating","","trustrating_stim/white_00109_931230_fa_edt.bmp","4","","","","","","","","","","",""
"image-keyboard-response","78","140700","0.0-6.0-2.36","60fcd5602ff7c8f0866ecd0c","bdp_trlrn","Mon Mar 13 2023 13:35:25 GMT-0400 (Eastern Daylight Time)","693263","Trustworthy,Untrustworthy","","null","","","","ratingFB","","trustrating_stim/white_00109_931230_fa_edt.bmp","null","","","","","","","","","","",""
"image-keyboard-response","79","142639","0.0-6.0-1.37","60fcd5602ff7c8f0866ecd0c","bdp_trlrn","Mon Mar 13 2023 13:35:25 GMT-0400 (Eastern Daylight Time)","693263","Trustworthy,Untrustworthy","","1824","","","","rating","","trustrating_stim/white_00761_941201_fb_edt.bmp","9","","","","","","","","","","",""
"image-keyboard-response","80","142851","0.0-6.0-2.37","60fcd5602ff7c8f0866ecd0c","bdp_trlrn","Mon Mar 13 2023 13:35:25 GMT-0400 (Eastern Daylight Time)","693263","Trustworthy,Untrustworthy","","null","","","","ratingFB","","trustrating_stim/white_00761_941201_fb_edt.bmp","null","","","","","","","","","","",""
"image-keyboard-response","81","145028","0.0-6.0-1.38","60fcd5602ff7c8f0866ecd0c","bdp_trlrn","Mon Mar 13 2023 13:35:25 GMT-0400 (Eastern Daylight Time)","693263","Trustworthy,Untrustworthy","","2065","","","","rating","","trustrating_stim/white_00120_931230_fa_edt.bmp","4","","","","","","","","","","",""
"image-keyboard-response","82","145232","0.0-6.0-2.38","60fcd5602ff7c8f0866ecd0c","bdp_trlrn","Mon Mar 13 2023 13:35:25 GMT-0400 (Eastern Daylight Time)","693263","Trustworthy,Untrustworthy","","null","","","","ratingFB","","trustrating_stim/white_00120_931230_fa_edt.bmp","null","","","","","","","","","","",""
"image-keyboard-response","83","146942","0.0-6.0-1.39","60fcd5602ff7c8f0866ecd0c","bdp_trlrn","Mon Mar 13 2023 13:35:25 GMT-0400 (Eastern Daylight Time)","693263","Trustworthy,Untrustworthy","","1603","","","","rating","","trustrating_stim/white_00785_941205_fb_edt.bmp","7","","","","","","","","","","",""
"image-keyboard-response","84","147159","0.0-6.0-2.39","60fcd5602ff7c8f0866ecd0c","bdp_trlrn","Mon Mar 13 2023 13:35:25 GMT-0400 (Eastern Daylight Time)","693263","Trustworthy,Untrustworthy","","null","","","","ratingFB","","trustrating_stim/white_00785_941205_fb_edt.bmp","null","","","","","","","","","","",""
"image-keyboard-response","85","149199","0.0-6.0-1.40","60fcd5602ff7c8f0866ecd0c","bdp_trlrn","Mon Mar 13 2023 13:35:25 GMT-0400 (Eastern Daylight Time)","693263","Trustworthy,Untrustworthy","","1934","","","","rating","","trustrating_stim/white_00898_960530_fa_edt.bmp","4","","","","","","","","","","",""
"image-keyboard-response","86","149410","0.0-6.0-2.40","60fcd5602ff7c8f0866ecd0c","bdp_trlrn","Mon Mar 13 2023 13:35:25 GMT-0400 (Eastern Daylight Time)","693263","Trustworthy,Untrustworthy","","null","","","","ratingFB","","trustrating_stim/white_00898_960530_fa_edt.bmp","null","","","","","","","","","","",""
"image-keyboard-response","87","151365","0.0-6.0-1.41","60fcd5602ff7c8f0866ecd0c","bdp_trlrn","Mon Mar 13 2023 13:35:25 GMT-0400 (Eastern Daylight Time)","693263","Trustworthy,Untrustworthy","","1851","","","","rating","","trustrating_stim/white_00129_931230_fb_edt.bmp","4","","","","","","","","","","",""
"image-keyboard-response","88","151567","0.0-6.0-2.41","60fcd5602ff7c8f0866ecd0c","bdp_trlrn","Mon Mar 13 2023 13:35:25 GMT-0400 (Eastern Daylight Time)","693263","Trustworthy,Untrustworthy","","null","","","","ratingFB","","trustrating_stim/white_00129_931230_fb_edt.bmp","null","","","","","","","","","","",""
"image-keyboard-response","89","153378","0.0-6.0-1.42","60fcd5602ff7c8f0866ecd0c","bdp_trlrn","Mon Mar 13 2023 13:35:25 GMT-0400 (Eastern Daylight Time)","693263","Trustworthy,Untrustworthy","","1706","","","","rating","","trustrating_stim/white_mw084.bmp","5","","","","","","","","","","",""
"image-keyboard-response","90","153583","0.0-6.0-2.42","60fcd5602ff7c8f0866ecd0c","bdp_trlrn","Mon Mar 13 2023 13:35:25 GMT-0400 (Eastern Daylight Time)","693263","Trustworthy,Untrustworthy","","null","","","","ratingFB","","trustrating_stim/white_mw084.bmp","null","","","","","","","","","","",""
"image-keyboard-response","91","154657","0.0-6.0-1.43","60fcd5602ff7c8f0866ecd0c","bdp_trlrn","Mon Mar 13 2023 13:35:25 GMT-0400 (Eastern Daylight Time)","693263","Trustworthy,Untrustworthy","","969","","","","rating","","trustrating_stim/white_mw089.bmp","8","","","","","","","","","","",""
"image-keyboard-response","92","154870","0.0-6.0-2.43","60fcd5602ff7c8f0866ecd0c","bdp_trlrn","Mon Mar 13 2023 13:35:25 GMT-0400 (Eastern Daylight Time)","693263","Trustworthy,Untrustworthy","","null","","","","ratingFB","","trustrating_stim/white_mw089.bmp","null","","","","","","","","","","",""
"image-keyboard-response","93","157051","0.0-6.0-1.44","60fcd5602ff7c8f0866ecd0c","bdp_trlrn","Mon Mar 13 2023 13:35:25 GMT-0400 (Eastern Daylight Time)","693263","Trustworthy,Untrustworthy","","2063","","","","rating","","trustrating_stim/white_mw056.bmp","7","","","","","","","","","","",""
"image-keyboard-response","94","157259","0.0-6.0-2.44","60fcd5602ff7c8f0866ecd0c","bdp_trlrn","Mon Mar 13 2023 13:35:25 GMT-0400 (Eastern Daylight Time)","693263","Trustworthy,Untrustworthy","","null","","","","ratingFB","","trustrating_stim/white_mw056.bmp","null","","","","","","","","","","",""
"image-keyboard-response","95","159241","0.0-6.0-1.45","60fcd5602ff7c8f0866ecd0c","bdp_trlrn","Mon Mar 13 2023 13:35:25 GMT-0400 (Eastern Daylight Time)","693263","Trustworthy,Untrustworthy","","1870","","","","rating","","trustrating_stim/white_00602_940928_fb_edt.bmp","4","","","","","","","","","","",""
"image-keyboard-response","96","159458","0.0-6.0-2.45","60fcd5602ff7c8f0866ecd0c","bdp_trlrn","Mon Mar 13 2023 13:35:25 GMT-0400 (Eastern Daylight Time)","693263","Trustworthy,Untrustworthy","","null","","","","ratingFB","","trustrating_stim/white_00602_940928_fb_edt.bmp","null","","","","","","","","","","",""
"image-keyboard-response","97","161297","0.0-6.0-1.46","60fcd5602ff7c8f0866ecd0c","bdp_trlrn","Mon Mar 13 2023 13:35:25 GMT-0400 (Eastern Daylight Time)","693263","Trustworthy,Untrustworthy","","1726","","","","rating","","trustrating_stim/white_00807_941205_fb_edt.bmp","6","","","","","","","","","","",""
"image-keyboard-response","98","161501","0.0-6.0-2.46","60fcd5602ff7c8f0866ecd0c","bdp_trlrn","Mon Mar 13 2023 13:35:25 GMT-0400 (Eastern Daylight Time)","693263","Trustworthy,Untrustworthy","","null","","","","ratingFB","","trustrating_stim/white_00807_941205_fb_edt.bmp","null","","","","","","","","","","",""
"image-keyboard-response","99","163035","0.0-6.0-1.47","60fcd5602ff7c8f0866ecd0c","bdp_trlrn","Mon Mar 13 2023 13:35:25 GMT-0400 (Eastern Daylight Time)","693263","Trustworthy,Untrustworthy","","1417","","","","rating","","trustrating_stim/white_00757_941201_fa_edt.bmp","8","","","","","","","","","","",""
"image-keyboard-response","100","163248","0.0-6.0-2.47","60fcd5602ff7c8f0866ecd0c","bdp_trlrn","Mon Mar 13 2023 13:35:25 GMT-0400 (Eastern Daylight Time)","693263","Trustworthy,Untrustworthy","","null","","","","ratingFB","","trustrating_stim/white_00757_941201_fa_edt.bmp","null","","","","","","","","","","",""
"image-keyboard-response","101","165333","0.0-6.0-1.48","60fcd5602ff7c8f0866ecd0c","bdp_trlrn","Mon Mar 13 2023 13:35:25 GMT-0400 (Eastern Daylight Time)","693263","Trustworthy,Untrustworthy","","1980","","","","rating","","trustrating_stim/white_mw049.bmp","7","","","","","","","","","","",""
"image-keyboard-response","102","165545","0.0-6.0-2.48","60fcd5602ff7c8f0866ecd0c","bdp_trlrn","Mon Mar 13 2023 13:35:25 GMT-0400 (Eastern Daylight Time)","693263","Trustworthy,Untrustworthy","","null","","","","ratingFB","","trustrating_stim/white_mw049.bmp","null","","","","","","","","","","",""
"image-keyboard-response","103","167714","0.0-6.0-1.49","60fcd5602ff7c8f0866ecd0c","bdp_trlrn","Mon Mar 13 2023 13:35:25 GMT-0400 (Eastern Daylight Time)","693263","Trustworthy,Untrustworthy","","2051","","","","rating","","trustrating_stim/white_mw035.bmp","6","","","","","","","","","","",""
"image-keyboard-response","104","167919","0.0-6.0-2.49","60fcd5602ff7c8f0866ecd0c","bdp_trlrn","Mon Mar 13 2023 13:35:25 GMT-0400 (Eastern Daylight Time)","693263","Trustworthy,Untrustworthy","","null","","","","ratingFB","","trustrating_stim/white_mw035.bmp","null","","","","","","","","","","",""
"image-keyboard-response","105","169222","0.0-6.0-1.50","60fcd5602ff7c8f0866ecd0c","bdp_trlrn","Mon Mar 13 2023 13:35:25 GMT-0400 (Eastern Daylight Time)","693263","Trustworthy,Untrustworthy","","1185","","","","rating","","trustrating_stim/white_00577_940928_fa_edt.bmp","7","","","","","","","","","","",""
"image-keyboard-response","106","169431","0.0-6.0-2.50","60fcd5602ff7c8f0866ecd0c","bdp_trlrn","Mon Mar 13 2023 13:35:25 GMT-0400 (Eastern Daylight Time)","693263","Trustworthy,Untrustworthy","","null","","","","ratingFB","","trustrating_stim/white_00577_940928_fa_edt.bmp","null","","","","","","","","","","",""
"image-keyboard-response","107","170892","0.0-6.0-1.51","60fcd5602ff7c8f0866ecd0c","bdp_trlrn","Mon Mar 13 2023 13:35:25 GMT-0400 (Eastern Daylight Time)","693263","Trustworthy,Untrustworthy","","1353","","","","rating","","trustrating_stim/white_00299_940422_fa_edt.bmp","7","","","","","","","","","","",""
"image-keyboard-response","108","171099","0.0-6.0-2.51","60fcd5602ff7c8f0866ecd0c","bdp_trlrn","Mon Mar 13 2023 13:35:25 GMT-0400 (Eastern Daylight Time)","693263","Trustworthy,Untrustworthy","","null","","","","ratingFB","","trustrating_stim/white_00299_940422_fa_edt.bmp","null","","","","","","","","","","",""
"image-keyboard-response","109","172877","0.0-6.0-1.52","60fcd5602ff7c8f0866ecd0c","bdp_trlrn","Mon Mar 13 2023 13:35:25 GMT-0400 (Eastern Daylight Time)","693263","Trustworthy,Untrustworthy","","1673","","","","rating","","trustrating_stim/white_mw063.bmp","8","","","","","","","","","","",""
"image-keyboard-response","110","173082","0.0-6.0-2.52","60fcd5602ff7c8f0866ecd0c","bdp_trlrn","Mon Mar 13 2023 13:35:25 GMT-0400 (Eastern Daylight Time)","693263","Trustworthy,Untrustworthy","","null","","","","ratingFB","","trustrating_stim/white_mw063.bmp","null","","","","","","","","","","",""
"image-keyboard-response","111","174584","0.0-6.0-1.53","60fcd5602ff7c8f0866ecd0c","bdp_trlrn","Mon Mar 13 2023 13:35:25 GMT-0400 (Eastern Daylight Time)","693263","Trustworthy,Untrustworthy","","1395","","","","rating","","trustrating_stim/white_mw071.bmp","8","","","","","","","","","","",""
"image-keyboard-response","112","174800","0.0-6.0-2.53","60fcd5602ff7c8f0866ecd0c","bdp_trlrn","Mon Mar 13 2023 13:35:25 GMT-0400 (Eastern Daylight Time)","693263","Trustworthy,Untrustworthy","","null","","","","ratingFB","","trustrating_stim/white_mw071.bmp","null","","","","","","","","","","",""
"image-keyboard-response","113","175992","0.0-6.0-1.54","60fcd5602ff7c8f0866ecd0c","bdp_trlrn","Mon Mar 13 2023 13:35:25 GMT-0400 (Eastern Daylight Time)","693263","Trustworthy,Untrustworthy","","1078","","","","rating","","trustrating_stim/white_mw048.bmp","8","","","","","","","","","","",""
"image-keyboard-response","114","176196","0.0-6.0-2.54","60fcd5602ff7c8f0866ecd0c","bdp_trlrn","Mon Mar 13 2023 13:35:25 GMT-0400 (Eastern Daylight Time)","693263","Trustworthy,Untrustworthy","","null","","","","ratingFB","","trustrating_stim/white_mw048.bmp","null","","","","","","","","","","",""
"image-keyboard-response","115","178455","0.0-6.0-1.55","60fcd5602ff7c8f0866ecd0c","bdp_trlrn","Mon Mar 13 2023 13:35:25 GMT-0400 (Eastern Daylight Time)","693263","Trustworthy,Untrustworthy","","2150","","","","rating","","trustrating_stim/white_mw033.bmp","8","","","","","","","","","","",""
"image-keyboard-response","116","178672","0.0-6.0-2.55","60fcd5602ff7c8f0866ecd0c","bdp_trlrn","Mon Mar 13 2023 13:35:25 GMT-0400 (Eastern Daylight Time)","693263","Trustworthy,Untrustworthy","","null","","","","ratingFB","","trustrating_stim/white_mw033.bmp","null","","","","","","","","","","",""
"image-keyboard-response","117","179541","0.0-6.0-1.56","60fcd5602ff7c8f0866ecd0c","bdp_trlrn","Mon Mar 13 2023 13:35:25 GMT-0400 (Eastern Daylight Time)","693263","Trustworthy,Untrustworthy","","759","","","","rating","","trustrating_stim/white_mw097.bmp","9","","","","","","","","","","",""
"image-keyboard-response","118","179744","0.0-6.0-2.56","60fcd5602ff7c8f0866ecd0c","bdp_trlrn","Mon Mar 13 2023 13:35:25 GMT-0400 (Eastern Daylight Time)","693263","Trustworthy,Untrustworthy","","null","","","","ratingFB","","trustrating_stim/white_mw097.bmp","null","","","","","","","","","","",""
"image-keyboard-response","119","181532","0.0-6.0-1.57","60fcd5602ff7c8f0866ecd0c","bdp_trlrn","Mon Mar 13 2023 13:35:25 GMT-0400 (Eastern Daylight Time)","693263","Trustworthy,Untrustworthy","","1678","","","","rating","","trustrating_stim/white_mw046.bmp","8","","","","","","","","","","",""
"image-keyboard-response","120","181748","0.0-6.0-2.57","60fcd5602ff7c8f0866ecd0c","bdp_trlrn","Mon Mar 13 2023 13:35:25 GMT-0400 (Eastern Daylight Time)","693263","Trustworthy,Untrustworthy","","null","","","","ratingFB","","trustrating_stim/white_mw046.bmp","null","","","","","","","","","","",""
"image-keyboard-response","121","182976","0.0-6.0-1.58","60fcd5602ff7c8f0866ecd0c","bdp_trlrn","Mon Mar 13 2023 13:35:25 GMT-0400 (Eastern Daylight Time)","693263","Trustworthy,Untrustworthy","","1115","","","","rating","","trustrating_stim/white_00340_940422_fa_edt.bmp","9","","","","","","","","","","",""
"image-keyboard-response","122","183189","0.0-6.0-2.58","60fcd5602ff7c8f0866ecd0c","bdp_trlrn","Mon Mar 13 2023 13:35:25 GMT-0400 (Eastern Daylight Time)","693263","Trustworthy,Untrustworthy","","null","","","","ratingFB","","trustrating_stim/white_00340_940422_fa_edt.bmp","null","","","","","","","","","","",""
"image-keyboard-response","123","184721","0.0-6.0-1.59","60fcd5602ff7c8f0866ecd0c","bdp_trlrn","Mon Mar 13 2023 13:35:25 GMT-0400 (Eastern Daylight Time)","693263","Trustworthy,Untrustworthy","","1418","","","","rating","","trustrating_stim/white_mw099.bmp","7","","","","","","","","","","",""
"image-keyboard-response","124","184931","0.0-6.0-2.59","60fcd5602ff7c8f0866ecd0c","bdp_trlrn","Mon Mar 13 2023 13:35:25 GMT-0400 (Eastern Daylight Time)","693263","Trustworthy,Untrustworthy","","null","","","","ratingFB","","trustrating_stim/white_mw099.bmp","null","","","","","","","","","","",""
"instructions","125","187023","0.0-7.0","60fcd5602ff7c8f0866ecd0c","bdp_trlrn","Mon Mar 13 2023 13:35:25 GMT-0400 (Eastern Daylight Time)","693263","Trustworthy,Untrustworthy","[{""page_index"":0,""viewing_time"":1978}]","1978","","","","","","","","","","","","","","","","","",""
"instructions","126","281485","0.0-8.0","60fcd5602ff7c8f0866ecd0c","bdp_trlrn","Mon Mar 13 2023 13:35:25 GMT-0400 (Eastern Daylight Time)","693263","Trustworthy,Untrustworthy","[{""page_index"":0,""viewing_time"":43541},{""page_index"":1,""viewing_time"":16868},{""page_index"":2,""viewing_time"":6953},{""page_index"":3,""viewing_time"":7118},{""page_index"":4,""viewing_time"":6},{""page_index"":5,""viewing_time"":12911},{""page_index"":6,""viewing_time"":12},{""page_index"":7,""viewing_time"":6948}]","94357","","","","","","","","","","","","","","","","","",""
"html-keyboard-response","127","288990","0.0-9.0","60fcd5602ff7c8f0866ecd0c","bdp_trlrn","Mon Mar 13 2023 13:35:25 GMT-0400 (Eastern Daylight Time)","693263","Trustworthy,Untrustworthy","","7503","","","","","","<div class='header' style='text-align:left; position: absolute; top: 5%; left: 5%;'><small>Task 2 of 5</small></div><div class='instruxDiv'><p><strong>1) What is the minimum number of points you can choose to send to your partner?</strong></p><p>a) 0</p><p>b) 1</p><p>c) 5</p>","A","","","","","","","","","","",""
"html-keyboard-response","128","292098","0.0-10.0","60fcd5602ff7c8f0866ecd0c","bdp_trlrn","Mon Mar 13 2023 13:35:25 GMT-0400 (Eastern Daylight Time)","693263","Trustworthy,Untrustworthy","","2992","","","","","","<div class='header' style='text-align:left; position: absolute; top: 5%; left: 5%;'><small>Task 2 of 5</small></div><div class='instruxDiv'><p><strong>1) What is the minimum number of points you can choose to send to your partner?</strong></p><p style='color:#FF0000'>a) 0</p><p>b) 1</p><p>c) 5</p><h3 style='color:#FF0000'>Incorrect!</h3><h3 class='center-content'>The correct response is b).</h3><h3 class='center-content'>The minimum number of points you can choose to send to your partner is 1 point.</h3><p><em>Press SPACEBAR to continue</em></p></div>"," ","","","","","","","","","","",""
"html-keyboard-response","129","295450","0.0-11.0","60fcd5602ff7c8f0866ecd0c","bdp_trlrn","Mon Mar 13 2023 13:35:25 GMT-0400 (Eastern Daylight Time)","693263","Trustworthy,Untrustworthy","","3237","","","","","","<div class='header' style='text-align:left; position: absolute; top: 5%; left: 5%;'><small>Task 2 of 5</small></div><div class='instruxDiv'><p><strong>2) What is the maximum number of points you can choose to send to your partner?</strong></p><p>a) 8</p><p>b) 5</p><p>c) 3</p>","B","","","","","","","","","","",""
"html-keyboard-response","130","296392","0.0-12.0","60fcd5602ff7c8f0866ecd0c","bdp_trlrn","Mon Mar 13 2023 13:35:25 GMT-0400 (Eastern Daylight Time)","693263","Trustworthy,Untrustworthy","","835","","","","","","<div class='header' style='text-align:left; position: absolute; top: 5%; left: 5%;'><small>Task 2 of 5</small></div><div class='instruxDiv'><p><strong>2) What is the maximum number of points you can choose to send to your partner?</strong></p><p>a) 8</p><p style='color:#00FF00'>b) 5</p><p>c) 3</p><h3 style='color:#00FF00'>Correct!</h3><h3 class='center-content'>The correct response is b).</h3><h3 class='center-content'>The maximum number of points you can choose to send to your partner is 5 points.</h3><p><em>Press SPACEBAR to continue</em></p></div>"," ","","","","","","","","","","",""
"html-keyboard-response","131","300414","0.0-13.0","60fcd5602ff7c8f0866ecd0c","bdp_trlrn","Mon Mar 13 2023 13:35:25 GMT-0400 (Eastern Daylight Time)","693263","Trustworthy,Untrustworthy","","3920","","","","","","<div class='header' style='text-align:left; position: absolute; top: 5%; left: 5%;'><small>Task 2 of 5</small></div><div class='instruxDiv'><p><strong>3) What happens to the amount of points you send to your partner?</strong></p><p>a) Nothing</p><p>b) It doubles</p><p>c) It quadruples</p>","C","","","","","","","","","","",""
"html-keyboard-response","132","301204","0.0-14.0","60fcd5602ff7c8f0866ecd0c","bdp_trlrn","Mon Mar 13 2023 13:35:25 GMT-0400 (Eastern Daylight Time)","693263","Trustworthy,Untrustworthy","","678","","","","","","<div class='header' style='text-align:left; position: absolute; top: 5%; left: 5%;'><small>Task 2 of 5</small></div><div class='instruxDiv'><p><strong>3) What happens to the amount of points you send to your partner?</strong></p><p>a) Nothing</p><p>b) It doubles</p><p style='color:#00FF00'>c) It quadruples</p><h3 style='color:#00FF00'>Correct!</h3><h3 class='center-content'>The correct response is c).</h3><h3 class='center-content'>The amount of points you send to your partner quadruples.</h3><p><em>Press SPACEBAR to continue</em></p></div>"," ","","","","","","","","","","",""
"html-keyboard-response","133","326003","0.0-15.0","60fcd5602ff7c8f0866ecd0c","bdp_trlrn","Mon Mar 13 2023 13:35:25 GMT-0400 (Eastern Daylight Time)","693263","Trustworthy,Untrustworthy","","24696","","","","","","<div class='header' style='text-align:left; position: absolute; top: 5%; left: 5%;'><small>Task 2 of 5</small></div><div class='instruxDiv'><p><strong>4) If you decided to share 4 out of 5 points with your partner, and they decided to share half of the amount they received with you, how many points would you receive back from them on this round?</strong></p><p>a) 16</p><p>b) 0</p><p>c) 8</p>","C","","","","","","","","","","",""
"html-keyboard-response","134","328738","0.0-16.0","60fcd5602ff7c8f0866ecd0c","bdp_trlrn","Mon Mar 13 2023 13:35:25 GMT-0400 (Eastern Daylight Time)","693263","Trustworthy,Untrustworthy","","2625","","","","","","<div class='header' style='text-align:left; position: absolute; top: 5%; left: 5%;'><small>Task 2 of 5</small></div><div class='instruxDiv'><p><strong>4) If you decided to share 4 out of 5 points with your partner, and they decided to share half of the amount they received with you, how many points would you receive back from them on this round?</strong></p><p>a) 16</p><p>b) 0</p><p style='color:#00FF00'>c) 8</p><h3 style='color:#00FF00'>Correct!</h3><h3 class='center-content'>The correct response is c).</h3><h3 class='center-content'>If you shared 4 out of 5 points with your partner and they decided to share half of the amount they received with you, you would receive 8 points back (i.e. (4 x 4)/2 = 8).</h3><p><em>Press SPACEBAR to continue</em></p></div>"," ","","","","","","","","","","",""
"html-keyboard-response","135","333857","0.0-17.0","60fcd5602ff7c8f0866ecd0c","bdp_trlrn","Mon Mar 13 2023 13:35:25 GMT-0400 (Eastern Daylight Time)","693263","Trustworthy,Untrustworthy","","null","","","","","","<div class='header' style='text-align:left; position: absolute; top: 5%; left: 5%;'><small>Task 2 of 5</small></div><div class='instruxDiv'><p>Thank you for completing the quiz<p>These are the actual partners you will be interacting with in the next block:<p><div class='tc' align='center'><img class='introPic' src='trustrating_stim/white_00120_931230_fa_edt.bmp'><br><strong>Joseph</strong></div><div class='bl' align='center'><img class='introPic' src='trustrating_stim/white_00807_941205_fb_edt.bmp'><br><strong>Ethan</strong></div><div class='br' align='center'><img class='introPic' src='trustrating_stim/white_00659_941121_fa_edt.bmp'><br><strong>Caleb</strong></div></div><p>Across <strong>66 rounds</strong> you will interact with each partner <strong>22 times</strong> (in random order).<p style='align:center; color:white'><font <em>Press SPACEBAR to continue</em></p>","null","","","","","","","","","","",""
"instructions","136","345560","0.0-18.0","60fcd5602ff7c8f0866ecd0c","bdp_trlrn","Mon Mar 13 2023 13:35:25 GMT-0400 (Eastern Daylight Time)","693263","Trustworthy,Untrustworthy","[{""page_index"":0,""viewing_time"":4369},{""page_index"":1,""viewing_time"":7332}]","11701","","","","","","","","","","","","","","","","","",""
"html-keyboard-response","137","348946","0.0-19.0-1.0","60fcd5602ff7c8f0866ecd0c","bdp_trlrn","Mon Mar 13 2023 13:35:25 GMT-0400 (Eastern Daylight Time)","693263","Trustworthy,Untrustworthy","","3278","","","","decision","","<div class='trialDiv'><img src='trustrating_stim/white_00659_941121_fa_edt.bmp'><br><font class='baseline'><strong>Caleb</strong><p>Choose number of points to send.</font><div class='respPicDiv'><img src='img/responseButtonOffersNo0L.png' class='respPic'></div></div>","2","1","Caleb","8","Kept","0.65,0.35","10","0.65","trustrating_stim/white_00659_941121_fa_edt.bmp","8.5","5","1"
"html-keyboard-response","138","349202","0.0-19.0-2.0","60fcd5602ff7c8f0866ecd0c","bdp_trlrn","Mon Mar 13 2023 13:35:25 GMT-0400 (Eastern Daylight Time)","693263","Trustworthy,Untrustworthy","","null","","","","decisionFB","","<div class='trialDiv'><img src='trustrating_stim/white_00659_941121_fa_edt.bmp'><br><font class='baseline'><strong>Caleb</strong><p>Choose number of points to send.</font><div class='respPicDiv'><img src='img/responseButtonOffersNo0L2.png' class='respPic'></div></div>","null","1","Caleb","8","Kept","0.65,0.35","10","0.65","trustrating_stim/white_00659_941121_fa_edt.bmp","8.5","3","1"
"html-keyboard-response","139","350208","0.0-19.0-3.0","60fcd5602ff7c8f0866ecd0c","bdp_trlrn","Mon Mar 13 2023 13:35:25 GMT-0400 (Eastern Daylight Time)","693263","Trustworthy,Untrustworthy","","null","","","","feedback","","<div class='trialDiv'><img src='trustrating_stim/white_00659_941121_fa_edt.bmp'><br><font class='baseline'><strong>Caleb</strong><p>Received: <strong>8</strong></font> &nbsp; &nbsp; &nbsp; &nbsp; &nbsp; &nbsp;<font class='negOutcome'>Shared back: <strong>0</strong></font></font><div class='respPicDiv'><img src='img/responseButtonOffersNo0_wht.png' class='respPic'></div></div>","null","1","Caleb","8","Kept","0.65,0.35","10","0.65","trustrating_stim/white_00659_941121_fa_edt.bmp","8.5","3","1"
"html-keyboard-response","140","355374","0.0-19.0-1.1","60fcd5602ff7c8f0866ecd0c","bdp_trlrn","Mon Mar 13 2023 13:35:25 GMT-0400 (Eastern Daylight Time)","693263","Trustworthy,Untrustworthy","","5165","","","","decision","","<div class='trialDiv'><img src='trustrating_stim/white_00807_941205_fb_edt.bmp'><br><font class='baseline'><strong>Ethan</strong><p>Choose number of points to send.</font><div class='respPicDiv'><img src='img/responseButtonOffersNo0L.png' class='respPic'></div></div>","2","1","Ethan","6","Shared","0.8,0.35","9","0.8","trustrating_stim/white_00807_941205_fb_edt.bmp","7.5","8","2"
"html-keyboard-response","141","355638","0.0-19.0-2.1","60fcd5602ff7c8f0866ecd0c","bdp_trlrn","Mon Mar 13 2023 13:35:25 GMT-0400 (Eastern Daylight Time)","693263","Trustworthy,Untrustworthy","","null","","","","decisionFB","","<div class='trialDiv'><img src='trustrating_stim/white_00807_941205_fb_edt.bmp'><br><font class='baseline'><strong>Ethan</strong><p>Choose number of points to send.</font><div class='respPicDiv'><img src='img/responseButtonOffersNo0L2.png' class='respPic'></div></div>","null","1","Ethan","6","Shared","0.8,0.35","9","0.8","trustrating_stim/white_00807_941205_fb_edt.bmp","7.5","6","2"
"html-keyboard-response","142","356644","0.0-19.0-3.1","60fcd5602ff7c8f0866ecd0c","bdp_trlrn","Mon Mar 13 2023 13:35:25 GMT-0400 (Eastern Daylight Time)","693263","Trustworthy,Untrustworthy","","null","","","","feedback","","<div class='trialDiv'><img src='trustrating_stim/white_00807_941205_fb_edt.bmp'><br><font class='baseline'><strong>Ethan</strong><p>Received: <strong>8</strong></font> &nbsp; &nbsp; &nbsp; &nbsp; &nbsp; &nbsp;<font class='posOutcome'>Shared back: <strong>4</strong></font></font><div class='respPicDiv'><img src='img/responseButtonOffersNo0_wht.png' class='respPic'></div></div>","null","1","Ethan","6","Shared","0.8,0.35","9","0.8","trustrating_stim/white_00807_941205_fb_edt.bmp","7.5","10","2"
"html-keyboard-response","143","359669","0.0-19.0-1.2","60fcd5602ff7c8f0866ecd0c","bdp_trlrn","Mon Mar 13 2023 13:35:25 GMT-0400 (Eastern Daylight Time)","693263","Trustworthy,Untrustworthy","","3024","","","","decision","","<div class='trialDiv'><img src='trustrating_stim/white_00120_931230_fa_edt.bmp'><br><font class='baseline'><strong>Joseph</strong><p>Choose number of points to send.</font><div class='respPicDiv'><img src='img/responseButtonOffersNo0L.png' class='respPic'></div></div>","3","1","Joseph","3","Kept","0.2,0.65","14","0.2","trustrating_stim/white_00120_931230_fa_edt.bmp","4","15","3"
"html-keyboard-response","144","359933","0.0-19.0-2.2","60fcd5602ff7c8f0866ecd0c","bdp_trlrn","Mon Mar 13 2023 13:35:25 GMT-0400 (Eastern Daylight Time)","693263","Trustworthy,Untrustworthy","","null","","","","decisionFB","","<div class='trialDiv'><img src='trustrating_stim/white_00120_931230_fa_edt.bmp'><br><font class='baseline'><strong>Joseph</strong><p>Choose number of points to send.</font><div class='respPicDiv'><img src='img/responseButtonOffersNo0L3.png' class='respPic'></div></div>","null","1","Joseph","3","Kept","0.2,0.65","14","0.2","trustrating_stim/white_00120_931230_fa_edt.bmp","4","12","3"
"html-keyboard-response","145","360948","0.0-19.0-3.2","60fcd5602ff7c8f0866ecd0c","bdp_trlrn","Mon Mar 13 2023 13:35:25 GMT-0400 (Eastern Daylight Time)","693263","Trustworthy,Untrustworthy","","null","","","","feedback","","<div class='trialDiv'><img src='trustrating_stim/white_00120_931230_fa_edt.bmp'><br><font class='baseline'><strong>Joseph</strong><p>Received: <strong>12</strong></font> &nbsp; &nbsp; &nbsp; &nbsp; &nbsp; &nbsp;<font class='negOutcome'>Shared back: <strong>0</strong></font></font><div class='respPicDiv'><img src='img/responseButtonOffersNo0_wht.png' class='respPic'></div></div>","null","1","Joseph","3","Kept","0.2,0.65","14","0.2","trustrating_stim/white_00120_931230_fa_edt.bmp","4","12","3"
"html-keyboard-response","146","364759","0.0-19.0-1.3","60fcd5602ff7c8f0866ecd0c","bdp_trlrn","Mon Mar 13 2023 13:35:25 GMT-0400 (Eastern Daylight Time)","693263","Trustworthy,Untrustworthy","","3809","","","","decision","","<div class='trialDiv'><img src='trustrating_stim/white_00807_941205_fb_edt.bmp'><br><font class='baseline'><strong>Ethan</strong><p>Choose number of points to send.</font><div class='respPicDiv'><img src='img/responseButtonOffersNo0L.png' class='respPic'></div></div>","3","2","Ethan","6","Kept","0.8,0.35","9","0.8","trustrating_stim/white_00807_941205_fb_edt.bmp","7.5","17","4"
"html-keyboard-response","147","365022","0.0-19.0-2.3","60fcd5602ff7c8f0866ecd0c","bdp_trlrn","Mon Mar 13 2023 13:35:25 GMT-0400 (Eastern Daylight Time)","693263","Trustworthy,Untrustworthy","","null","","","","decisionFB","","<div class='trialDiv'><img src='trustrating_stim/white_00807_941205_fb_edt.bmp'><br><font class='baseline'><strong>Ethan</strong><p>Choose number of points to send.</font><div class='respPicDiv'><img src='img/responseButtonOffersNo0L3.png' class='respPic'></div></div>","null","2","Ethan","6","Kept","0.8,0.35","9","0.8","trustrating_stim/white_00807_941205_fb_edt.bmp","7.5","14","4"
"html-keyboard-response","148","366033","0.0-19.0-3.3","60fcd5602ff7c8f0866ecd0c","bdp_trlrn","Mon Mar 13 2023 13:35:25 GMT-0400 (Eastern Daylight Time)","693263","Trustworthy,Untrustworthy","","null","","","","feedback","","<div class='trialDiv'><img src='trustrating_stim/white_00807_941205_fb_edt.bmp'><br><font class='baseline'><strong>Ethan</strong><p>Received: <strong>12</strong></font> &nbsp; &nbsp; &nbsp; &nbsp; &nbsp; &nbsp;<font class='negOutcome'>Shared back: <strong>0</strong></font></font><div class='respPicDiv'><img src='img/responseButtonOffersNo0_wht.png' class='respPic'></div></div>","null","2","Ethan","6","Kept","0.8,0.35","9","0.8","trustrating_stim/white_00807_941205_fb_edt.bmp","7.5","14","4"
"html-keyboard-response","149","367448","0.0-19.0-1.4","60fcd5602ff7c8f0866ecd0c","bdp_trlrn","Mon Mar 13 2023 13:35:25 GMT-0400 (Eastern Daylight Time)","693263","Trustworthy,Untrustworthy","","1413","","","","decision","","<div class='trialDiv'><img src='trustrating_stim/white_00120_931230_fa_edt.bmp'><br><font class='baseline'><strong>Joseph</strong><p>Choose number of points to send.</font><div class='respPicDiv'><img src='img/responseButtonOffersNo0L.png' class='respPic'></div></div>","2","2","Joseph","3","Kept","0.2,0.65","14","0.2","trustrating_stim/white_00120_931230_fa_edt.bmp","4","19","5"
"html-keyboard-response","150","367705","0.0-19.0-2.4","60fcd5602ff7c8f0866ecd0c","bdp_trlrn","Mon Mar 13 2023 13:35:25 GMT-0400 (Eastern Daylight Time)","693263","Trustworthy,Untrustworthy","","null","","","","decisionFB","","<div class='trialDiv'><img src='trustrating_stim/white_00120_931230_fa_edt.bmp'><br><font class='baseline'><strong>Joseph</strong><p>Choose number of points to send.</font><div class='respPicDiv'><img src='img/responseButtonOffersNo0L2.png' class='respPic'></div></div>","null","2","Joseph","3","Kept","0.2,0.65","14","0.2","trustrating_stim/white_00120_931230_fa_edt.bmp","4","17","5"
"html-keyboard-response","151","368717","0.0-19.0-3.4","60fcd5602ff7c8f0866ecd0c","bdp_trlrn","Mon Mar 13 2023 13:35:25 GMT-0400 (Eastern Daylight Time)","693263","Trustworthy,Untrustworthy","","null","","","","feedback","","<div class='trialDiv'><img src='trustrating_stim/white_00120_931230_fa_edt.bmp'><br><font class='baseline'><strong>Joseph</strong><p>Received: <strong>8</strong></font> &nbsp; &nbsp; &nbsp; &nbsp; &nbsp; &nbsp;<font class='negOutcome'>Shared back: <strong>0</strong></font></font><div class='respPicDiv'><img src='img/responseButtonOffersNo0_wht.png' class='respPic'></div></div>","null","2","Joseph","3","Kept","0.2,0.65","14","0.2","trustrating_stim/white_00120_931230_fa_edt.bmp","4","17","5"
"html-keyboard-response","152","371167","0.0-19.0-1.5","60fcd5602ff7c8f0866ecd0c","bdp_trlrn","Mon Mar 13 2023 13:35:25 GMT-0400 (Eastern Daylight Time)","693263","Trustworthy,Untrustworthy","","2448","","","","decision","","<div class='trialDiv'><img src='trustrating_stim/white_00659_941121_fa_edt.bmp'><br><font class='baseline'><strong>Caleb</strong><p>Choose number of points to send.</font><div class='respPicDiv'><img src='img/responseButtonOffersNo0L.png' class='respPic'></div></div>","2","2","Caleb","8","Kept","0.65,0.35","10","0.65","trustrating_stim/white_00659_941121_fa_edt.bmp","8.5","22","6"
"html-keyboard-response","153","371428","0.0-19.0-2.5","60fcd5602ff7c8f0866ecd0c","bdp_trlrn","Mon Mar 13 2023 13:35:25 GMT-0400 (Eastern Daylight Time)","693263","Trustworthy,Untrustworthy","","null","","","","decisionFB","","<div class='trialDiv'><img src='trustrating_stim/white_00659_941121_fa_edt.bmp'><br><font class='baseline'><strong>Caleb</strong><p>Choose number of points to send.</font><div class='respPicDiv'><img src='img/responseButtonOffersNo0L2.png' class='respPic'></div></div>","null","2","Caleb","8","Kept","0.65,0.35","10","0.65","trustrating_stim/white_00659_941121_fa_edt.bmp","8.5","20","6"
"html-keyboard-response","154","372432","0.0-19.0-3.5","60fcd5602ff7c8f0866ecd0c","bdp_trlrn","Mon Mar 13 2023 13:35:25 GMT-0400 (Eastern Daylight Time)","693263","Trustworthy,Untrustworthy","","null","","","","feedback","","<div class='trialDiv'><img src='trustrating_stim/white_00659_941121_fa_edt.bmp'><br><font class='baseline'><strong>Caleb</strong><p>Received: <strong>8</strong></font> &nbsp; &nbsp; &nbsp; &nbsp; &nbsp; &nbsp;<font class='negOutcome'>Shared back: <strong>0</strong></font></font><div class='respPicDiv'><img src='img/responseButtonOffersNo0_wht.png' class='respPic'></div></div>","null","2","Caleb","8","Kept","0.65,0.35","10","0.65","trustrating_stim/white_00659_941121_fa_edt.bmp","8.5","20","6"
"html-keyboard-response","155","373625","0.0-19.0-1.6","60fcd5602ff7c8f0866ecd0c","bdp_trlrn","Mon Mar 13 2023 13:35:25 GMT-0400 (Eastern Daylight Time)","693263","Trustworthy,Untrustworthy","","1192","","","","decision","","<div class='trialDiv'><img src='trustrating_stim/white_00807_941205_fb_edt.bmp'><br><font class='baseline'><strong>Ethan</strong><p>Choose number of points to send.</font><div class='respPicDiv'><img src='img/responseButtonOffersNo0L.png' class='respPic'></div></div>","2","3","Ethan","6","Kept","0.8,0.35","9","0.8","trustrating_stim/white_00807_941205_fb_edt.bmp","7.5","25","7"
"html-keyboard-response","156","373888","0.0-19.0-2.6","60fcd5602ff7c8f0866ecd0c","bdp_trlrn","Mon Mar 13 2023 13:35:25 GMT-0400 (Eastern Daylight Time)","693263","Trustworthy,Untrustworthy","","null","","","","decisionFB","","<div class='trialDiv'><img src='trustrating_stim/white_00807_941205_fb_edt.bmp'><br><font class='baseline'><strong>Ethan</strong><p>Choose number of points to send.</font><div class='respPicDiv'><img src='img/responseButtonOffersNo0L2.png' class='respPic'></div></div>","null","3","Ethan","6","Kept","0.8,0.35","9","0.8","trustrating_stim/white_00807_941205_fb_edt.bmp","7.5","23","7"
"html-keyboard-response","157","374897","0.0-19.0-3.6","60fcd5602ff7c8f0866ecd0c","bdp_trlrn","Mon Mar 13 2023 13:35:25 GMT-0400 (Eastern Daylight Time)","693263","Trustworthy,Untrustworthy","","null","","","","feedback","","<div class='trialDiv'><img src='trustrating_stim/white_00807_941205_fb_edt.bmp'><br><font class='baseline'><strong>Ethan</strong><p>Received: <strong>8</strong></font> &nbsp; &nbsp; &nbsp; &nbsp; &nbsp; &nbsp;<font class='negOutcome'>Shared back: <strong>0</strong></font></font><div class='respPicDiv'><img src='img/responseButtonOffersNo0_wht.png' class='respPic'></div></div>","null","3","Ethan","6","Kept","0.8,0.35","9","0.8","trustrating_stim/white_00807_941205_fb_edt.bmp","7.5","23","7"
"html-keyboard-response","158","375350","0.0-19.0-1.7","60fcd5602ff7c8f0866ecd0c","bdp_trlrn","Mon Mar 13 2023 13:35:25 GMT-0400 (Eastern Daylight Time)","693263","Trustworthy,Untrustworthy","","451","","","","decision","","<div class='trialDiv'><img src='trustrating_stim/white_00120_931230_fa_edt.bmp'><br><font class='baseline'><strong>Joseph</strong><p>Choose number of points to send.</font><div class='respPicDiv'><img src='img/responseButtonOffersNo0L.png' class='respPic'></div></div>","1","3","Joseph","3","Kept","0.2,0.65","14","0.2","trustrating_stim/white_00120_931230_fa_edt.bmp","4","28","8"
"html-keyboard-response","159","375614","0.0-19.0-2.7","60fcd5602ff7c8f0866ecd0c","bdp_trlrn","Mon Mar 13 2023 13:35:25 GMT-0400 (Eastern Daylight Time)","693263","Trustworthy,Untrustworthy","","null","","","","decisionFB","","<div class='trialDiv'><img src='trustrating_stim/white_00120_931230_fa_edt.bmp'><br><font class='baseline'><strong>Joseph</strong><p>Choose number of points to send.</font><div class='respPicDiv'><img src='img/responseButtonOffersNo0L1.png' class='respPic'></div></div>","null","3","Joseph","3","Kept","0.2,0.65","14","0.2","trustrating_stim/white_00120_931230_fa_edt.bmp","4","27","8"
"html-keyboard-response","160","376631","0.0-19.0-3.7","60fcd5602ff7c8f0866ecd0c","bdp_trlrn","Mon Mar 13 2023 13:35:25 GMT-0400 (Eastern Daylight Time)","693263","Trustworthy,Untrustworthy","","null","","","","feedback","","<div class='trialDiv'><img src='trustrating_stim/white_00120_931230_fa_edt.bmp'><br><font class='baseline'><strong>Joseph</strong><p>Received: <strong>4</strong></font> &nbsp; &nbsp; &nbsp; &nbsp; &nbsp; &nbsp;<font class='negOutcome'>Shared back: <strong>0</strong></font></font><div class='respPicDiv'><img src='img/responseButtonOffersNo0_wht.png' class='respPic'></div></div>","null","3","Joseph","3","Kept","0.2,0.65","14","0.2","trustrating_stim/white_00120_931230_fa_edt.bmp","4","27","8"
"html-keyboard-response","161","377737","0.0-19.0-1.8","60fcd5602ff7c8f0866ecd0c","bdp_trlrn","Mon Mar 13 2023 13:35:25 GMT-0400 (Eastern Daylight Time)","693263","Trustworthy,Untrustworthy","","1103","","","","decision","","<div class='trialDiv'><img src='trustrating_stim/white_00659_941121_fa_edt.bmp'><br><font class='baseline'><strong>Caleb</strong><p>Choose number of points to send.</font><div class='respPicDiv'><img src='img/responseButtonOffersNo0L.png' class='respPic'></div></div>","1","3","Caleb","8","Kept","0.65,0.35","10","0.65","trustrating_stim/white_00659_941121_fa_edt.bmp","8.5","32","9"
"html-keyboard-response","162","377989","0.0-19.0-2.8","60fcd5602ff7c8f0866ecd0c","bdp_trlrn","Mon Mar 13 2023 13:35:25 GMT-0400 (Eastern Daylight Time)","693263","Trustworthy,Untrustworthy","","null","","","","decisionFB","","<div class='trialDiv'><img src='trustrating_stim/white_00659_941121_fa_edt.bmp'><br><font class='baseline'><strong>Caleb</strong><p>Choose number of points to send.</font><div class='respPicDiv'><img src='img/responseButtonOffersNo0L1.png' class='respPic'></div></div>","null","3","Caleb","8","Kept","0.65,0.35","10","0.65","trustrating_stim/white_00659_941121_fa_edt.bmp","8.5","31","9"
"html-keyboard-response","163","378996","0.0-19.0-3.8","60fcd5602ff7c8f0866ecd0c","bdp_trlrn","Mon Mar 13 2023 13:35:25 GMT-0400 (Eastern Daylight Time)","693263","Trustworthy,Untrustworthy","","null","","","","feedback","","<div class='trialDiv'><img src='trustrating_stim/white_00659_941121_fa_edt.bmp'><br><font class='baseline'><strong>Caleb</strong><p>Received: <strong>4</strong></font> &nbsp; &nbsp; &nbsp; &nbsp; &nbsp; &nbsp;<font class='negOutcome'>Shared back: <strong>0</strong></font></font><div class='respPicDiv'><img src='img/responseButtonOffersNo0_wht.png' class='respPic'></div></div>","null","3","Caleb","8","Kept","0.65,0.35","10","0.65","trustrating_stim/white_00659_941121_fa_edt.bmp","8.5","31","9"
"html-keyboard-response","164","379599","0.0-19.0-1.9","60fcd5602ff7c8f0866ecd0c","bdp_trlrn","Mon Mar 13 2023 13:35:25 GMT-0400 (Eastern Daylight Time)","693263","Trustworthy,Untrustworthy","","600","","","","decision","","<div class='trialDiv'><img src='trustrating_stim/white_00807_941205_fb_edt.bmp'><br><font class='baseline'><strong>Ethan</strong><p>Choose number of points to send.</font><div class='respPicDiv'><img src='img/responseButtonOffersNo0L.png' class='respPic'></div></div>","1","4","Ethan","6","Shared","0.8,0.35","9","0.8","trustrating_stim/white_00807_941205_fb_edt.bmp","7.5","36","10"
"html-keyboard-response","165","379854","0.0-19.0-2.9","60fcd5602ff7c8f0866ecd0c","bdp_trlrn","Mon Mar 13 2023 13:35:25 GMT-0400 (Eastern Daylight Time)","693263","Trustworthy,Untrustworthy","","null","","","","decisionFB","","<div class='trialDiv'><img src='trustrating_stim/white_00807_941205_fb_edt.bmp'><br><font class='baseline'><strong>Ethan</strong><p>Choose number of points to send.</font><div class='respPicDiv'><img src='img/responseButtonOffersNo0L1.png' class='respPic'></div></div>","null","4","Ethan","6","Shared","0.8,0.35","9","0.8","trustrating_stim/white_00807_941205_fb_edt.bmp","7.5","35","10"
"html-keyboard-response","166","380865","0.0-19.0-3.9","60fcd5602ff7c8f0866ecd0c","bdp_trlrn","Mon Mar 13 2023 13:35:25 GMT-0400 (Eastern Daylight Time)","693263","Trustworthy,Untrustworthy","","null","","","","feedback","","<div class='trialDiv'><img src='trustrating_stim/white_00807_941205_fb_edt.bmp'><br><font class='baseline'><strong>Ethan</strong><p>Received: <strong>4</strong></font> &nbsp; &nbsp; &nbsp; &nbsp; &nbsp; &nbsp;<font class='posOutcome'>Shared back: <strong>2</strong></font></font><div class='respPicDiv'><img src='img/responseButtonOffersNo0_wht.png' class='respPic'></div></div>","null","4","Ethan","6","Shared","0.8,0.35","9","0.8","trustrating_stim/white_00807_941205_fb_edt.bmp","7.5","37","10"
"html-keyboard-response","167","381853","0.0-19.0-1.10","60fcd5602ff7c8f0866ecd0c","bdp_trlrn","Mon Mar 13 2023 13:35:25 GMT-0400 (Eastern Daylight Time)","693263","Trustworthy,Untrustworthy","","987","","","","decision","","<div class='trialDiv'><img src='trustrating_stim/white_00120_931230_fa_edt.bmp'><br><font class='baseline'><strong>Joseph</strong><p>Choose number of points to send.</font><div class='respPicDiv'><img src='img/responseButtonOffersNo0L.png' class='respPic'></div></div>","1","4","Joseph","3","Kept","0.2,0.65","14","0.2","trustrating_stim/white_00120_931230_fa_edt.bmp","4","42","11"
"html-keyboard-response","168","382113","0.0-19.0-2.10","60fcd5602ff7c8f0866ecd0c","bdp_trlrn","Mon Mar 13 2023 13:35:25 GMT-0400 (Eastern Daylight Time)","693263","Trustworthy,Untrustworthy","","null","","","","decisionFB","","<div class='trialDiv'><img src='trustrating_stim/white_00120_931230_fa_edt.bmp'><br><font class='baseline'><strong>Joseph</strong><p>Choose number of points to send.</font><div class='respPicDiv'><img src='img/responseButtonOffersNo0L1.png' class='respPic'></div></div>","null","4","Joseph","3","Kept","0.2,0.65","14","0.2","trustrating_stim/white_00120_931230_fa_edt.bmp","4","41","11"
"html-keyboard-response","169","383132","0.0-19.0-3.10","60fcd5602ff7c8f0866ecd0c","bdp_trlrn","Mon Mar 13 2023 13:35:25 GMT-0400 (Eastern Daylight Time)","693263","Trustworthy,Untrustworthy","","null","","","","feedback","","<div class='trialDiv'><img src='trustrating_stim/white_00120_931230_fa_edt.bmp'><br><font class='baseline'><strong>Joseph</strong><p>Received: <strong>4</strong></font> &nbsp; &nbsp; &nbsp; &nbsp; &nbsp; &nbsp;<font class='negOutcome'>Shared back: <strong>0</strong></font></font><div class='respPicDiv'><img src='img/responseButtonOffersNo0_wht.png' class='respPic'></div></div>","null","4","Joseph","3","Kept","0.2,0.65","14","0.2","trustrating_stim/white_00120_931230_fa_edt.bmp","4","41","11"
"html-keyboard-response","170","383803","0.0-19.0-1.11","60fcd5602ff7c8f0866ecd0c","bdp_trlrn","Mon Mar 13 2023 13:35:25 GMT-0400 (Eastern Daylight Time)","693263","Trustworthy,Untrustworthy","","668","","","","decision","","<div class='trialDiv'><img src='trustrating_stim/white_00659_941121_fa_edt.bmp'><br><font class='baseline'><strong>Caleb</strong><p>Choose number of points to send.</font><div class='respPicDiv'><img src='img/responseButtonOffersNo0L.png' class='respPic'></div></div>","1","4","Caleb","8","Shared","0.65,0.35","10","0.65","trustrating_stim/white_00659_941121_fa_edt.bmp","8.5","46","12"
"html-keyboard-response","171","384070","0.0-19.0-2.11","60fcd5602ff7c8f0866ecd0c","bdp_trlrn","Mon Mar 13 2023 13:35:25 GMT-0400 (Eastern Daylight Time)","693263","Trustworthy,Untrustworthy","","null","","","","decisionFB","","<div class='trialDiv'><img src='trustrating_stim/white_00659_941121_fa_edt.bmp'><br><font class='baseline'><strong>Caleb</strong><p>Choose number of points to send.</font><div class='respPicDiv'><img src='img/responseButtonOffersNo0L1.png' class='respPic'></div></div>","null","4","Caleb","8","Shared","0.65,0.35","10","0.65","trustrating_stim/white_00659_941121_fa_edt.bmp","8.5","45","12"
"html-keyboard-response","172","385089","0.0-19.0-3.11","60fcd5602ff7c8f0866ecd0c","bdp_trlrn","Mon Mar 13 2023 13:35:25 GMT-0400 (Eastern Daylight Time)","693263","Trustworthy,Untrustworthy","","null","","","","feedback","","<div class='trialDiv'><img src='trustrating_stim/white_00659_941121_fa_edt.bmp'><br><font class='baseline'><strong>Caleb</strong><p>Received: <strong>4</strong></font> &nbsp; &nbsp; &nbsp; &nbsp; &nbsp; &nbsp;<font class='posOutcome'>Shared back: <strong>2</strong></font></font><div class='respPicDiv'><img src='img/responseButtonOffersNo0_wht.png' class='respPic'></div></div>","null","4","Caleb","8","Shared","0.65,0.35","10","0.65","trustrating_stim/white_00659_941121_fa_edt.bmp","8.5","47","12"
"html-keyboard-response","173","386106","0.0-19.0-1.12","60fcd5602ff7c8f0866ecd0c","bdp_trlrn","Mon Mar 13 2023 13:35:25 GMT-0400 (Eastern Daylight Time)","693263","Trustworthy,Untrustworthy","","1014","","","","decision","","<div class='trialDiv'><img src='trustrating_stim/white_00120_931230_fa_edt.bmp'><br><font class='baseline'><strong>Joseph</strong><p>Choose number of points to send.</font><div class='respPicDiv'><img src='img/responseButtonOffersNo0L.png' class='respPic'></div></div>","1","5","Joseph","3","Kept","0.2,0.65","14","0.2","trustrating_stim/white_00120_931230_fa_edt.bmp","4","52","13"
"html-keyboard-response","174","386359","0.0-19.0-2.12","60fcd5602ff7c8f0866ecd0c","bdp_trlrn","Mon Mar 13 2023 13:35:25 GMT-0400 (Eastern Daylight Time)","693263","Trustworthy,Untrustworthy","","null","","","","decisionFB","","<div class='trialDiv'><img src='trustrating_stim/white_00120_931230_fa_edt.bmp'><br><font class='baseline'><strong>Joseph</strong><p>Choose number of points to send.</font><div class='respPicDiv'><img src='img/responseButtonOffersNo0L1.png' class='respPic'></div></div>","null","5","Joseph","3","Kept","0.2,0.65","14","0.2","trustrating_stim/white_00120_931230_fa_edt.bmp","4","51","13"
"html-keyboard-response","175","387364","0.0-19.0-3.12","60fcd5602ff7c8f0866ecd0c","bdp_trlrn","Mon Mar 13 2023 13:35:25 GMT-0400 (Eastern Daylight Time)","693263","Trustworthy,Untrustworthy","","null","","","","feedback","","<div class='trialDiv'><img src='trustrating_stim/white_00120_931230_fa_edt.bmp'><br><font class='baseline'><strong>Joseph</strong><p>Received: <strong>4</strong></font> &nbsp; &nbsp; &nbsp; &nbsp; &nbsp; &nbsp;<font class='negOutcome'>Shared back: <strong>0</strong></font></font><div class='respPicDiv'><img src='img/responseButtonOffersNo0_wht.png' class='respPic'></div></div>","null","5","Joseph","3","Kept","0.2,0.65","14","0.2","trustrating_stim/white_00120_931230_fa_edt.bmp","4","51","13"
"html-keyboard-response","176","388018","0.0-19.0-1.13","60fcd5602ff7c8f0866ecd0c","bdp_trlrn","Mon Mar 13 2023 13:35:25 GMT-0400 (Eastern Daylight Time)","693263","Trustworthy,Untrustworthy","","652","","","","decision","","<div class='trialDiv'><img src='trustrating_stim/white_00807_941205_fb_edt.bmp'><br><font class='baseline'><strong>Ethan</strong><p>Choose number of points to send.</font><div class='respPicDiv'><img src='img/responseButtonOffersNo0L.png' class='respPic'></div></div>","2","5","Ethan","6","Shared","0.8,0.35","9","0.8","trustrating_stim/white_00807_941205_fb_edt.bmp","7.5","56","14"
"html-keyboard-response","177","388278","0.0-19.0-2.13","60fcd5602ff7c8f0866ecd0c","bdp_trlrn","Mon Mar 13 2023 13:35:25 GMT-0400 (Eastern Daylight Time)","693263","Trustworthy,Untrustworthy","","null","","","","decisionFB","","<div class='trialDiv'><img src='trustrating_stim/white_00807_941205_fb_edt.bmp'><br><font class='baseline'><strong>Ethan</strong><p>Choose number of points to send.</font><div class='respPicDiv'><img src='img/responseButtonOffersNo0L2.png' class='respPic'></div></div>","null","5","Ethan","6","Shared","0.8,0.35","9","0.8","trustrating_stim/white_00807_941205_fb_edt.bmp","7.5","54","14"
"html-keyboard-response","178","389283","0.0-19.0-3.13","60fcd5602ff7c8f0866ecd0c","bdp_trlrn","Mon Mar 13 2023 13:35:25 GMT-0400 (Eastern Daylight Time)","693263","Trustworthy,Untrustworthy","","null","","","","feedback","","<div class='trialDiv'><img src='trustrating_stim/white_00807_941205_fb_edt.bmp'><br><font class='baseline'><strong>Ethan</strong><p>Received: <strong>8</strong></font> &nbsp; &nbsp; &nbsp; &nbsp; &nbsp; &nbsp;<font class='posOutcome'>Shared back: <strong>4</strong></font></font><div class='respPicDiv'><img src='img/responseButtonOffersNo0_wht.png' class='respPic'></div></div>","null","5","Ethan","6","Shared","0.8,0.35","9","0.8","trustrating_stim/white_00807_941205_fb_edt.bmp","7.5","58","14"
"html-keyboard-response","179","389930","0.0-19.0-1.14","60fcd5602ff7c8f0866ecd0c","bdp_trlrn","Mon Mar 13 2023 13:35:25 GMT-0400 (Eastern Daylight Time)","693263","Trustworthy,Untrustworthy","","645","","","","decision","","<div class='trialDiv'><img src='trustrating_stim/white_00659_941121_fa_edt.bmp'><br><font class='baseline'><strong>Caleb</strong><p>Choose number of points to send.</font><div class='respPicDiv'><img src='img/responseButtonOffersNo0L.png' class='respPic'></div></div>","2","5","Caleb","8","Kept","0.65,0.35","10","0.65","trustrating_stim/white_00659_941121_fa_edt.bmp","8.5","63","15"
"html-keyboard-response","180","390192","0.0-19.0-2.14","60fcd5602ff7c8f0866ecd0c","bdp_trlrn","Mon Mar 13 2023 13:35:25 GMT-0400 (Eastern Daylight Time)","693263","Trustworthy,Untrustworthy","","null","","","","decisionFB","","<div class='trialDiv'><img src='trustrating_stim/white_00659_941121_fa_edt.bmp'><br><font class='baseline'><strong>Caleb</strong><p>Choose number of points to send.</font><div class='respPicDiv'><img src='img/responseButtonOffersNo0L2.png' class='respPic'></div></div>","null","5","Caleb","8","Kept","0.65,0.35","10","0.65","trustrating_stim/white_00659_941121_fa_edt.bmp","8.5","61","15"
"html-keyboard-response","181","391200","0.0-19.0-3.14","60fcd5602ff7c8f0866ecd0c","bdp_trlrn","Mon Mar 13 2023 13:35:25 GMT-0400 (Eastern Daylight Time)","693263","Trustworthy,Untrustworthy","","null","","","","feedback","","<div class='trialDiv'><img src='trustrating_stim/white_00659_941121_fa_edt.bmp'><br><font class='baseline'><strong>Caleb</strong><p>Received: <strong>8</strong></font> &nbsp; &nbsp; &nbsp; &nbsp; &nbsp; &nbsp;<font class='negOutcome'>Shared back: <strong>0</strong></font></font><div class='respPicDiv'><img src='img/responseButtonOffersNo0_wht.png' class='respPic'></div></div>","null","5","Caleb","8","Kept","0.65,0.35","10","0.65","trustrating_stim/white_00659_941121_fa_edt.bmp","8.5","61","15"
"html-keyboard-response","182","392139","0.0-19.0-1.15","60fcd5602ff7c8f0866ecd0c","bdp_trlrn","Mon Mar 13 2023 13:35:25 GMT-0400 (Eastern Daylight Time)","693263","Trustworthy,Untrustworthy","","937","","","","decision","","<div class='trialDiv'><img src='trustrating_stim/white_00120_931230_fa_edt.bmp'><br><font class='baseline'><strong>Joseph</strong><p>Choose number of points to send.</font><div class='respPicDiv'><img src='img/responseButtonOffersNo0L.png' class='respPic'></div></div>","1","6","Joseph","3","Kept","0.2,0.65","14","0.2","trustrating_stim/white_00120_931230_fa_edt.bmp","4","66","16"
"html-keyboard-response","183","392402","0.0-19.0-2.15","60fcd5602ff7c8f0866ecd0c","bdp_trlrn","Mon Mar 13 2023 13:35:25 GMT-0400 (Eastern Daylight Time)","693263","Trustworthy,Untrustworthy","","null","","","","decisionFB","","<div class='trialDiv'><img src='trustrating_stim/white_00120_931230_fa_edt.bmp'><br><font class='baseline'><strong>Joseph</strong><p>Choose number of points to send.</font><div class='respPicDiv'><img src='img/responseButtonOffersNo0L1.png' class='respPic'></div></div>","null","6","Joseph","3","Kept","0.2,0.65","14","0.2","trustrating_stim/white_00120_931230_fa_edt.bmp","4","65","16"
"html-keyboard-response","184","393404","0.0-19.0-3.15","60fcd5602ff7c8f0866ecd0c","bdp_trlrn","Mon Mar 13 2023 13:35:25 GMT-0400 (Eastern Daylight Time)","693263","Trustworthy,Untrustworthy","","null","","","","feedback","","<div class='trialDiv'><img src='trustrating_stim/white_00120_931230_fa_edt.bmp'><br><font class='baseline'><strong>Joseph</strong><p>Received: <strong>4</strong></font> &nbsp; &nbsp; &nbsp; &nbsp; &nbsp; &nbsp;<font class='negOutcome'>Shared back: <strong>0</strong></font></font><div class='respPicDiv'><img src='img/responseButtonOffersNo0_wht.png' class='respPic'></div></div>","null","6","Joseph","3","Kept","0.2,0.65","14","0.2","trustrating_stim/white_00120_931230_fa_edt.bmp","4","65","16"
"html-keyboard-response","185","393852","0.0-19.0-1.16","60fcd5602ff7c8f0866ecd0c","bdp_trlrn","Mon Mar 13 2023 13:35:25 GMT-0400 (Eastern Daylight Time)","693263","Trustworthy,Untrustworthy","","447","","","","decision","","<div class='trialDiv'><img src='trustrating_stim/white_00659_941121_fa_edt.bmp'><br><font class='baseline'><strong>Caleb</strong><p>Choose number of points to send.</font><div class='respPicDiv'><img src='img/responseButtonOffersNo0L.png' class='respPic'></div></div>","1","6","Caleb","8","Shared","0.65,0.35","10","0.65","trustrating_stim/white_00659_941121_fa_edt.bmp","8.5","70","17"
"html-keyboard-response","186","394117","0.0-19.0-2.16","60fcd5602ff7c8f0866ecd0c","bdp_trlrn","Mon Mar 13 2023 13:35:25 GMT-0400 (Eastern Daylight Time)","693263","Trustworthy,Untrustworthy","","null","","","","decisionFB","","<div class='trialDiv'><img src='trustrating_stim/white_00659_941121_fa_edt.bmp'><br><font class='baseline'><strong>Caleb</strong><p>Choose number of points to send.</font><div class='respPicDiv'><img src='img/responseButtonOffersNo0L1.png' class='respPic'></div></div>","null","6","Caleb","8","Shared","0.65,0.35","10","0.65","trustrating_stim/white_00659_941121_fa_edt.bmp","8.5","69","17"
"html-keyboard-response","187","395124","0.0-19.0-3.16","60fcd5602ff7c8f0866ecd0c","bdp_trlrn","Mon Mar 13 2023 13:35:25 GMT-0400 (Eastern Daylight Time)","693263","Trustworthy,Untrustworthy","","null","","","","feedback","","<div class='trialDiv'><img src='trustrating_stim/white_00659_941121_fa_edt.bmp'><br><font class='baseline'><strong>Caleb</strong><p>Received: <strong>4</strong></font> &nbsp; &nbsp; &nbsp; &nbsp; &nbsp; &nbsp;<font class='posOutcome'>Shared back: <strong>2</strong></font></font><div class='respPicDiv'><img src='img/responseButtonOffersNo0_wht.png' class='respPic'></div></div>","null","6","Caleb","8","Shared","0.65,0.35","10","0.65","trustrating_stim/white_00659_941121_fa_edt.bmp","8.5","71","17"
"html-keyboard-response","188","396131","0.0-19.0-1.17","60fcd5602ff7c8f0866ecd0c","bdp_trlrn","Mon Mar 13 2023 13:35:25 GMT-0400 (Eastern Daylight Time)","693263","Trustworthy,Untrustworthy","","1005","","","","decision","","<div class='trialDiv'><img src='trustrating_stim/white_00807_941205_fb_edt.bmp'><br><font class='baseline'><strong>Ethan</strong><p>Choose number of points to send.</font><div class='respPicDiv'><img src='img/responseButtonOffersNo0L.png' class='respPic'></div></div>","2","6","Ethan","6","Kept","0.8,0.35","9","0.8","trustrating_stim/white_00807_941205_fb_edt.bmp","7.5","76","18"
"html-keyboard-response","189","396390","0.0-19.0-2.17","60fcd5602ff7c8f0866ecd0c","bdp_trlrn","Mon Mar 13 2023 13:35:25 GMT-0400 (Eastern Daylight Time)","693263","Trustworthy,Untrustworthy","","null","","","","decisionFB","","<div class='trialDiv'><img src='trustrating_stim/white_00807_941205_fb_edt.bmp'><br><font class='baseline'><strong>Ethan</strong><p>Choose number of points to send.</font><div class='respPicDiv'><img src='img/responseButtonOffersNo0L2.png' class='respPic'></div></div>","null","6","Ethan","6","Kept","0.8,0.35","9","0.8","trustrating_stim/white_00807_941205_fb_edt.bmp","7.5","74","18"
"html-keyboard-response","190","397392","0.0-19.0-3.17","60fcd5602ff7c8f0866ecd0c","bdp_trlrn","Mon Mar 13 2023 13:35:25 GMT-0400 (Eastern Daylight Time)","693263","Trustworthy,Untrustworthy","","null","","","","feedback","","<div class='trialDiv'><img src='trustrating_stim/white_00807_941205_fb_edt.bmp'><br><font class='baseline'><strong>Ethan</strong><p>Received: <strong>8</strong></font> &nbsp; &nbsp; &nbsp; &nbsp; &nbsp; &nbsp;<font class='negOutcome'>Shared back: <strong>0</strong></font></font><div class='respPicDiv'><img src='img/responseButtonOffersNo0_wht.png' class='respPic'></div></div>","null","6","Ethan","6","Kept","0.8,0.35","9","0.8","trustrating_stim/white_00807_941205_fb_edt.bmp","7.5","74","18"
"html-keyboard-response","191","398767","0.0-19.0-1.18","60fcd5602ff7c8f0866ecd0c","bdp_trlrn","Mon Mar 13 2023 13:35:25 GMT-0400 (Eastern Daylight Time)","693263","Trustworthy,Untrustworthy","","1373","","","","decision","","<div class='trialDiv'><img src='trustrating_stim/white_00659_941121_fa_edt.bmp'><br><font class='baseline'><strong>Caleb</strong><p>Choose number of points to send.</font><div class='respPicDiv'><img src='img/responseButtonOffersNo0L.png' class='respPic'></div></div>","2","7","Caleb","8","Shared","0.65,0.35","10","0.65","trustrating_stim/white_00659_941121_fa_edt.bmp","8.5","79","19"
"html-keyboard-response","192","399025","0.0-19.0-2.18","60fcd5602ff7c8f0866ecd0c","bdp_trlrn","Mon Mar 13 2023 13:35:25 GMT-0400 (Eastern Daylight Time)","693263","Trustworthy,Untrustworthy","","null","","","","decisionFB","","<div class='trialDiv'><img src='trustrating_stim/white_00659_941121_fa_edt.bmp'><br><font class='baseline'><strong>Caleb</strong><p>Choose number of points to send.</font><div class='respPicDiv'><img src='img/responseButtonOffersNo0L2.png' class='respPic'></div></div>","null","7","Caleb","8","Shared","0.65,0.35","10","0.65","trustrating_stim/white_00659_941121_fa_edt.bmp","8.5","77","19"
"html-keyboard-response","193","400036","0.0-19.0-3.18","60fcd5602ff7c8f0866ecd0c","bdp_trlrn","Mon Mar 13 2023 13:35:25 GMT-0400 (Eastern Daylight Time)","693263","Trustworthy,Untrustworthy","","null","","","","feedback","","<div class='trialDiv'><img src='trustrating_stim/white_00659_941121_fa_edt.bmp'><br><font class='baseline'><strong>Caleb</strong><p>Received: <strong>8</strong></font> &nbsp; &nbsp; &nbsp; &nbsp; &nbsp; &nbsp;<font class='posOutcome'>Shared back: <strong>4</strong></font></font><div class='respPicDiv'><img src='img/responseButtonOffersNo0_wht.png' class='respPic'></div></div>","null","7","Caleb","8","Shared","0.65,0.35","10","0.65","trustrating_stim/white_00659_941121_fa_edt.bmp","8.5","81","19"
"html-keyboard-response","194","400729","0.0-19.0-1.19","60fcd5602ff7c8f0866ecd0c","bdp_trlrn","Mon Mar 13 2023 13:35:25 GMT-0400 (Eastern Daylight Time)","693263","Trustworthy,Untrustworthy","","692","","","","decision","","<div class='trialDiv'><img src='trustrating_stim/white_00120_931230_fa_edt.bmp'><br><font class='baseline'><strong>Joseph</strong><p>Choose number of points to send.</font><div class='respPicDiv'><img src='img/responseButtonOffersNo0L.png' class='respPic'></div></div>","1","7","Joseph","3","Kept","0.2,0.65","14","0.2","trustrating_stim/white_00120_931230_fa_edt.bmp","4","86","20"
"html-keyboard-response","195","400982","0.0-19.0-2.19","60fcd5602ff7c8f0866ecd0c","bdp_trlrn","Mon Mar 13 2023 13:35:25 GMT-0400 (Eastern Daylight Time)","693263","Trustworthy,Untrustworthy","","null","","","","decisionFB","","<div class='trialDiv'><img src='trustrating_stim/white_00120_931230_fa_edt.bmp'><br><font class='baseline'><strong>Joseph</strong><p>Choose number of points to send.</font><div class='respPicDiv'><img src='img/responseButtonOffersNo0L1.png' class='respPic'></div></div>","null","7","Joseph","3","Kept","0.2,0.65","14","0.2","trustrating_stim/white_00120_931230_fa_edt.bmp","4","85","20"
"html-keyboard-response","196","401999","0.0-19.0-3.19","60fcd5602ff7c8f0866ecd0c","bdp_trlrn","Mon Mar 13 2023 13:35:25 GMT-0400 (Eastern Daylight Time)","693263","Trustworthy,Untrustworthy","","null","","","","feedback","","<div class='trialDiv'><img src='trustrating_stim/white_00120_931230_fa_edt.bmp'><br><font class='baseline'><strong>Joseph</strong><p>Received: <strong>4</strong></font> &nbsp; &nbsp; &nbsp; &nbsp; &nbsp; &nbsp;<font class='negOutcome'>Shared back: <strong>0</strong></font></font><div class='respPicDiv'><img src='img/responseButtonOffersNo0_wht.png' class='respPic'></div></div>","null","7","Joseph","3","Kept","0.2,0.65","14","0.2","trustrating_stim/white_00120_931230_fa_edt.bmp","4","85","20"
"html-keyboard-response","197","402746","0.0-19.0-1.20","60fcd5602ff7c8f0866ecd0c","bdp_trlrn","Mon Mar 13 2023 13:35:25 GMT-0400 (Eastern Daylight Time)","693263","Trustworthy,Untrustworthy","","746","","","","decision","","<div class='trialDiv'><img src='trustrating_stim/white_00807_941205_fb_edt.bmp'><br><font class='baseline'><strong>Ethan</strong><p>Choose number of points to send.</font><div class='respPicDiv'><img src='img/responseButtonOffersNo0L.png' class='respPic'></div></div>","2","7","Ethan","6","Shared","0.8,0.35","9","0.8","trustrating_stim/white_00807_941205_fb_edt.bmp","7.5","90","21"
"html-keyboard-response","198","403002","0.0-19.0-2.20","60fcd5602ff7c8f0866ecd0c","bdp_trlrn","Mon Mar 13 2023 13:35:25 GMT-0400 (Eastern Daylight Time)","693263","Trustworthy,Untrustworthy","","null","","","","decisionFB","","<div class='trialDiv'><img src='trustrating_stim/white_00807_941205_fb_edt.bmp'><br><font class='baseline'><strong>Ethan</strong><p>Choose number of points to send.</font><div class='respPicDiv'><img src='img/responseButtonOffersNo0L2.png' class='respPic'></div></div>","null","7","Ethan","6","Shared","0.8,0.35","9","0.8","trustrating_stim/white_00807_941205_fb_edt.bmp","7.5","88","21"
"html-keyboard-response","199","404011","0.0-19.0-3.20","60fcd5602ff7c8f0866ecd0c","bdp_trlrn","Mon Mar 13 2023 13:35:25 GMT-0400 (Eastern Daylight Time)","693263","Trustworthy,Untrustworthy","","null","","","","feedback","","<div class='trialDiv'><img src='trustrating_stim/white_00807_941205_fb_edt.bmp'><br><font class='baseline'><strong>Ethan</strong><p>Received: <strong>8</strong></font> &nbsp; &nbsp; &nbsp; &nbsp; &nbsp; &nbsp;<font class='posOutcome'>Shared back: <strong>4</strong></font></font><div class='respPicDiv'><img src='img/responseButtonOffersNo0_wht.png' class='respPic'></div></div>","null","7","Ethan","6","Shared","0.8,0.35","9","0.8","trustrating_stim/white_00807_941205_fb_edt.bmp","7.5","92","21"
"html-keyboard-response","200","404678","0.0-19.0-1.21","60fcd5602ff7c8f0866ecd0c","bdp_trlrn","Mon Mar 13 2023 13:35:25 GMT-0400 (Eastern Daylight Time)","693263","Trustworthy,Untrustworthy","","666","","","","decision","","<div class='trialDiv'><img src='trustrating_stim/white_00120_931230_fa_edt.bmp'><br><font class='baseline'><strong>Joseph</strong><p>Choose number of points to send.</font><div class='respPicDiv'><img src='img/responseButtonOffersNo0L.png' class='respPic'></div></div>","1","8","Joseph","3","Kept","0.2,0.65","14","0.2","trustrating_stim/white_00120_931230_fa_edt.bmp","4","97","22"
"html-keyboard-response","201","404930","0.0-19.0-2.21","60fcd5602ff7c8f0866ecd0c","bdp_trlrn","Mon Mar 13 2023 13:35:25 GMT-0400 (Eastern Daylight Time)","693263","Trustworthy,Untrustworthy","","null","","","","decisionFB","","<div class='trialDiv'><img src='trustrating_stim/white_00120_931230_fa_edt.bmp'><br><font class='baseline'><strong>Joseph</strong><p>Choose number of points to send.</font><div class='respPicDiv'><img src='img/responseButtonOffersNo0L1.png' class='respPic'></div></div>","null","8","Joseph","3","Kept","0.2,0.65","14","0.2","trustrating_stim/white_00120_931230_fa_edt.bmp","4","96","22"
"html-keyboard-response","202","405946","0.0-19.0-3.21","60fcd5602ff7c8f0866ecd0c","bdp_trlrn","Mon Mar 13 2023 13:35:25 GMT-0400 (Eastern Daylight Time)","693263","Trustworthy,Untrustworthy","","null","","","","feedback","","<div class='trialDiv'><img src='trustrating_stim/white_00120_931230_fa_edt.bmp'><br><font class='baseline'><strong>Joseph</strong><p>Received: <strong>4</strong></font> &nbsp; &nbsp; &nbsp; &nbsp; &nbsp; &nbsp;<font class='negOutcome'>Shared back: <strong>0</strong></font></font><div class='respPicDiv'><img src='img/responseButtonOffersNo0_wht.png' class='respPic'></div></div>","null","8","Joseph","3","Kept","0.2,0.65","14","0.2","trustrating_stim/white_00120_931230_fa_edt.bmp","4","96","22"
"html-keyboard-response","203","406754","0.0-19.0-1.22","60fcd5602ff7c8f0866ecd0c","bdp_trlrn","Mon Mar 13 2023 13:35:25 GMT-0400 (Eastern Daylight Time)","693263","Trustworthy,Untrustworthy","","807","","","","decision","","<div class='trialDiv'><img src='trustrating_stim/white_00807_941205_fb_edt.bmp'><br><font class='baseline'><strong>Ethan</strong><p>Choose number of points to send.</font><div class='respPicDiv'><img src='img/responseButtonOffersNo0L.png' class='respPic'></div></div>","2","8","Ethan","6","Shared","0.8,0.35","9","0.8","trustrating_stim/white_00807_941205_fb_edt.bmp","7.5","101","23"
"html-keyboard-response","204","407020","0.0-19.0-2.22","60fcd5602ff7c8f0866ecd0c","bdp_trlrn","Mon Mar 13 2023 13:35:25 GMT-0400 (Eastern Daylight Time)","693263","Trustworthy,Untrustworthy","","null","","","","decisionFB","","<div class='trialDiv'><img src='trustrating_stim/white_00807_941205_fb_edt.bmp'><br><font class='baseline'><strong>Ethan</strong><p>Choose number of points to send.</font><div class='respPicDiv'><img src='img/responseButtonOffersNo0L2.png' class='respPic'></div></div>","null","8","Ethan","6","Shared","0.8,0.35","9","0.8","trustrating_stim/white_00807_941205_fb_edt.bmp","7.5","99","23"
"html-keyboard-response","205","408027","0.0-19.0-3.22","60fcd5602ff7c8f0866ecd0c","bdp_trlrn","Mon Mar 13 2023 13:35:25 GMT-0400 (Eastern Daylight Time)","693263","Trustworthy,Untrustworthy","","null","","","","feedback","","<div class='trialDiv'><img src='trustrating_stim/white_00807_941205_fb_edt.bmp'><br><font class='baseline'><strong>Ethan</strong><p>Received: <strong>8</strong></font> &nbsp; &nbsp; &nbsp; &nbsp; &nbsp; &nbsp;<font class='posOutcome'>Shared back: <strong>4</strong></font></font><div class='respPicDiv'><img src='img/responseButtonOffersNo0_wht.png' class='respPic'></div></div>","null","8","Ethan","6","Shared","0.8,0.35","9","0.8","trustrating_stim/white_00807_941205_fb_edt.bmp","7.5","103","23"
"html-keyboard-response","206","409356","0.0-19.0-1.23","60fcd5602ff7c8f0866ecd0c","bdp_trlrn","Mon Mar 13 2023 13:35:25 GMT-0400 (Eastern Daylight Time)","693263","Trustworthy,Untrustworthy","","1328","","","","decision","","<div class='trialDiv'><img src='trustrating_stim/white_00659_941121_fa_edt.bmp'><br><font class='baseline'><strong>Caleb</strong><p>Choose number of points to send.</font><div class='respPicDiv'><img src='img/responseButtonOffersNo0L.png' class='respPic'></div></div>","2","8","Caleb","8","Shared","0.65,0.35","10","0.65","trustrating_stim/white_00659_941121_fa_edt.bmp","8.5","108","24"
"html-keyboard-response","207","409611","0.0-19.0-2.23","60fcd5602ff7c8f0866ecd0c","bdp_trlrn","Mon Mar 13 2023 13:35:25 GMT-0400 (Eastern Daylight Time)","693263","Trustworthy,Untrustworthy","","null","","","","decisionFB","","<div class='trialDiv'><img src='trustrating_stim/white_00659_941121_fa_edt.bmp'><br><font class='baseline'><strong>Caleb</strong><p>Choose number of points to send.</font><div class='respPicDiv'><img src='img/responseButtonOffersNo0L2.png' class='respPic'></div></div>","null","8","Caleb","8","Shared","0.65,0.35","10","0.65","trustrating_stim/white_00659_941121_fa_edt.bmp","8.5","106","24"
"html-keyboard-response","208","410615","0.0-19.0-3.23","60fcd5602ff7c8f0866ecd0c","bdp_trlrn","Mon Mar 13 2023 13:35:25 GMT-0400 (Eastern Daylight Time)","693263","Trustworthy,Untrustworthy","","null","","","","feedback","","<div class='trialDiv'><img src='trustrating_stim/white_00659_941121_fa_edt.bmp'><br><font class='baseline'><strong>Caleb</strong><p>Received: <strong>8</strong></font> &nbsp; &nbsp; &nbsp; &nbsp; &nbsp; &nbsp;<font class='posOutcome'>Shared back: <strong>4</strong></font></font><div class='respPicDiv'><img src='img/responseButtonOffersNo0_wht.png' class='respPic'></div></div>","null","8","Caleb","8","Shared","0.65,0.35","10","0.65","trustrating_stim/white_00659_941121_fa_edt.bmp","8.5","110","24"
"html-keyboard-response","209","411006","0.0-19.0-1.24","60fcd5602ff7c8f0866ecd0c","bdp_trlrn","Mon Mar 13 2023 13:35:25 GMT-0400 (Eastern Daylight Time)","693263","Trustworthy,Untrustworthy","","389","","","","decision","","<div class='trialDiv'><img src='trustrating_stim/white_00120_931230_fa_edt.bmp'><br><font class='baseline'><strong>Joseph</strong><p>Choose number of points to send.</font><div class='respPicDiv'><img src='img/responseButtonOffersNo0L.png' class='respPic'></div></div>","1","9","Joseph","3","Kept","0.2,0.65","14","0.2","trustrating_stim/white_00120_931230_fa_edt.bmp","4","115","25"
"html-keyboard-response","210","411262","0.0-19.0-2.24","60fcd5602ff7c8f0866ecd0c","bdp_trlrn","Mon Mar 13 2023 13:35:25 GMT-0400 (Eastern Daylight Time)","693263","Trustworthy,Untrustworthy","","null","","","","decisionFB","","<div class='trialDiv'><img src='trustrating_stim/white_00120_931230_fa_edt.bmp'><br><font class='baseline'><strong>Joseph</strong><p>Choose number of points to send.</font><div class='respPicDiv'><img src='img/responseButtonOffersNo0L1.png' class='respPic'></div></div>","null","9","Joseph","3","Kept","0.2,0.65","14","0.2","trustrating_stim/white_00120_931230_fa_edt.bmp","4","114","25"
"html-keyboard-response","211","412266","0.0-19.0-3.24","60fcd5602ff7c8f0866ecd0c","bdp_trlrn","Mon Mar 13 2023 13:35:25 GMT-0400 (Eastern Daylight Time)","693263","Trustworthy,Untrustworthy","","null","","","","feedback","","<div class='trialDiv'><img src='trustrating_stim/white_00120_931230_fa_edt.bmp'><br><font class='baseline'><strong>Joseph</strong><p>Received: <strong>4</strong></font> &nbsp; &nbsp; &nbsp; &nbsp; &nbsp; &nbsp;<font class='negOutcome'>Shared back: <strong>0</strong></font></font><div class='respPicDiv'><img src='img/responseButtonOffersNo0_wht.png' class='respPic'></div></div>","null","9","Joseph","3","Kept","0.2,0.65","14","0.2","trustrating_stim/white_00120_931230_fa_edt.bmp","4","114","25"
"html-keyboard-response","212","413477","0.0-19.0-1.25","60fcd5602ff7c8f0866ecd0c","bdp_trlrn","Mon Mar 13 2023 13:35:25 GMT-0400 (Eastern Daylight Time)","693263","Trustworthy,Untrustworthy","","1210","","","","decision","","<div class='trialDiv'><img src='trustrating_stim/white_00807_941205_fb_edt.bmp'><br><font class='baseline'><strong>Ethan</strong><p>Choose number of points to send.</font><div class='respPicDiv'><img src='img/responseButtonOffersNo0L.png' class='respPic'></div></div>","2","9","Ethan","6","Kept","0.8,0.35","9","0.8","trustrating_stim/white_00807_941205_fb_edt.bmp","7.5","119","26"
"html-keyboard-response","213","413730","0.0-19.0-2.25","60fcd5602ff7c8f0866ecd0c","bdp_trlrn","Mon Mar 13 2023 13:35:25 GMT-0400 (Eastern Daylight Time)","693263","Trustworthy,Untrustworthy","","null","","","","decisionFB","","<div class='trialDiv'><img src='trustrating_stim/white_00807_941205_fb_edt.bmp'><br><font class='baseline'><strong>Ethan</strong><p>Choose number of points to send.</font><div class='respPicDiv'><img src='img/responseButtonOffersNo0L2.png' class='respPic'></div></div>","null","9","Ethan","6","Kept","0.8,0.35","9","0.8","trustrating_stim/white_00807_941205_fb_edt.bmp","7.5","117","26"
"html-keyboard-response","214","414737","0.0-19.0-3.25","60fcd5602ff7c8f0866ecd0c","bdp_trlrn","Mon Mar 13 2023 13:35:25 GMT-0400 (Eastern Daylight Time)","693263","Trustworthy,Untrustworthy","","null","","","","feedback","","<div class='trialDiv'><img src='trustrating_stim/white_00807_941205_fb_edt.bmp'><br><font class='baseline'><strong>Ethan</strong><p>Received: <strong>8</strong></font> &nbsp; &nbsp; &nbsp; &nbsp; &nbsp; &nbsp;<font class='negOutcome'>Shared back: <strong>0</strong></font></font><div class='respPicDiv'><img src='img/responseButtonOffersNo0_wht.png' class='respPic'></div></div>","null","9","Ethan","6","Kept","0.8,0.35","9","0.8","trustrating_stim/white_00807_941205_fb_edt.bmp","7.5","117","26"
"html-keyboard-response","215","415291","0.0-19.0-1.26","60fcd5602ff7c8f0866ecd0c","bdp_trlrn","Mon Mar 13 2023 13:35:25 GMT-0400 (Eastern Daylight Time)","693263","Trustworthy,Untrustworthy","","551","","","","decision","","<div class='trialDiv'><img src='trustrating_stim/white_00659_941121_fa_edt.bmp'><br><font class='baseline'><strong>Caleb</strong><p>Choose number of points to send.</font><div class='respPicDiv'><img src='img/responseButtonOffersNo0L.png' class='respPic'></div></div>","2","9","Caleb","8","Kept","0.65,0.35","10","0.65","trustrating_stim/white_00659_941121_fa_edt.bmp","8.5","122","27"
"html-keyboard-response","216","415553","0.0-19.0-2.26","60fcd5602ff7c8f0866ecd0c","bdp_trlrn","Mon Mar 13 2023 13:35:25 GMT-0400 (Eastern Daylight Time)","693263","Trustworthy,Untrustworthy","","null","","","","decisionFB","","<div class='trialDiv'><img src='trustrating_stim/white_00659_941121_fa_edt.bmp'><br><font class='baseline'><strong>Caleb</strong><p>Choose number of points to send.</font><div class='respPicDiv'><img src='img/responseButtonOffersNo0L2.png' class='respPic'></div></div>","null","9","Caleb","8","Kept","0.65,0.35","10","0.65","trustrating_stim/white_00659_941121_fa_edt.bmp","8.5","120","27"
"html-keyboard-response","217","416562","0.0-19.0-3.26","60fcd5602ff7c8f0866ecd0c","bdp_trlrn","Mon Mar 13 2023 13:35:25 GMT-0400 (Eastern Daylight Time)","693263","Trustworthy,Untrustworthy","","null","","","","feedback","","<div class='trialDiv'><img src='trustrating_stim/white_00659_941121_fa_edt.bmp'><br><font class='baseline'><strong>Caleb</strong><p>Received: <strong>8</strong></font> &nbsp; &nbsp; &nbsp; &nbsp; &nbsp; &nbsp;<font class='negOutcome'>Shared back: <strong>0</strong></font></font><div class='respPicDiv'><img src='img/responseButtonOffersNo0_wht.png' class='respPic'></div></div>","null","9","Caleb","8","Kept","0.65,0.35","10","0.65","trustrating_stim/white_00659_941121_fa_edt.bmp","8.5","120","27"
"html-keyboard-response","218","417012","0.0-19.0-1.27","60fcd5602ff7c8f0866ecd0c","bdp_trlrn","Mon Mar 13 2023 13:35:25 GMT-0400 (Eastern Daylight Time)","693263","Trustworthy,Untrustworthy","","449","","","","decision","","<div class='trialDiv'><img src='trustrating_stim/white_00120_931230_fa_edt.bmp'><br><font class='baseline'><strong>Joseph</strong><p>Choose number of points to send.</font><div class='respPicDiv'><img src='img/responseButtonOffersNo0L.png' class='respPic'></div></div>","1","10","Joseph","3","Kept","0.2,0.65","14","0.2","trustrating_stim/white_00120_931230_fa_edt.bmp","4","125","28"
