"trial_type","trial_index","time_elapsed","internal_node_id","subject_id","task","startTime","totalTime","labels","view_history","rt","event","trial","time","trialtype","success","stimulus","key_press","aground","name","faceID","outcome","agenttype","agentswpt","agentcurrpshare","face","avgRating","point_total","round"
"pavlovia","0","6","0.0-0.0","63ead6f452e11793b2f8dab8","bdp_trlrn","Tue Mar 14 2023 18:24:29 GMT-0700 (Pacific Daylight Time)","650236","Untrustworthy,Trustworthy","","","","","","","","","","","","","","","","","","","",""
"instructions","1","3447","0.0-1.0","63ead6f452e11793b2f8dab8","bdp_trlrn","Tue Mar 14 2023 18:24:29 GMT-0700 (Pacific Daylight Time)","650236","Untrustworthy,Trustworthy","[{""page_index"":0,""viewing_time"":3439}]","3440","","","","","","","","","","","","","","","","","",""
"","","","","63ead6f452e11793b2f8dab8","bdp_trlrn","Tue Mar 14 2023 18:24:29 GMT-0700 (Pacific Daylight Time)","650236","Untrustworthy,Trustworthy","","","fullscreenenter","2","16864","fullscreenenter","","","","","","","","","","","","","",""
"fullscreen","2","17861","0.0-2.0","63ead6f452e11793b2f8dab8","bdp_trlrn","Tue Mar 14 2023 18:24:29 GMT-0700 (Pacific Daylight Time)","650236","Untrustworthy,Trustworthy","","","","","","","true","","","","","","","","","","","","",""
"instructions","3","57499","0.0-4.0","63ead6f452e11793b2f8dab8","bdp_trlrn","Tue Mar 14 2023 18:24:29 GMT-0700 (Pacific Daylight Time)","650236","Untrustworthy,Trustworthy","[{""page_index"":0,""viewing_time"":38503},{""page_index"":1,""viewing_time"":1130}]","39634","","","","","","","","","","","","","","","","","",""
"instructions","4","58457","0.0-5.0","63ead6f452e11793b2f8dab8","bdp_trlrn","Tue Mar 14 2023 18:24:29 GMT-0700 (Pacific Daylight Time)","650236","Untrustworthy,Trustworthy","[{""page_index"":0,""viewing_time"":957}]","957","","","","","","","","","","","","","","","","","",""
"image-keyboard-response","5","60807","0.0-6.0-1.0","63ead6f452e11793b2f8dab8","bdp_trlrn","Tue Mar 14 2023 18:24:29 GMT-0700 (Pacific Daylight Time)","650236","Untrustworthy,Trustworthy","","2244","","","","rating","","trustrating_stim/white_00898_960530_fa_edt.bmp","5","","","","","","","","","","",""
"image-keyboard-response","6","61010","0.0-6.0-2.0","63ead6f452e11793b2f8dab8","bdp_trlrn","Tue Mar 14 2023 18:24:29 GMT-0700 (Pacific Daylight Time)","650236","Untrustworthy,Trustworthy","","null","","","","ratingFB","","trustrating_stim/white_00898_960530_fa_edt.bmp","null","","","","","","","","","","",""
"image-keyboard-response","7","63213","0.0-6.0-1.1","63ead6f452e11793b2f8dab8","bdp_trlrn","Tue Mar 14 2023 18:24:29 GMT-0700 (Pacific Daylight Time)","650236","Untrustworthy,Trustworthy","","2099","","","","rating","","trustrating_stim/white_00659_941121_fa_edt.bmp","3","","","","","","","","","","",""
"image-keyboard-response","8","63417","0.0-6.0-2.1","63ead6f452e11793b2f8dab8","bdp_trlrn","Tue Mar 14 2023 18:24:29 GMT-0700 (Pacific Daylight Time)","650236","Untrustworthy,Trustworthy","","null","","","","ratingFB","","trustrating_stim/white_00659_941121_fa_edt.bmp","null","","","","","","","","","","",""
"image-keyboard-response","9","65388","0.0-6.0-1.2","63ead6f452e11793b2f8dab8","bdp_trlrn","Tue Mar 14 2023 18:24:29 GMT-0700 (Pacific Daylight Time)","650236","Untrustworthy,Trustworthy","","1868","","","","rating","","trustrating_stim/white_mw053.bmp","1","","","","","","","","","","",""
"image-keyboard-response","10","65590","0.0-6.0-2.2","63ead6f452e11793b2f8dab8","bdp_trlrn","Tue Mar 14 2023 18:24:29 GMT-0700 (Pacific Daylight Time)","650236","Untrustworthy,Trustworthy","","null","","","","ratingFB","","trustrating_stim/white_mw053.bmp","null","","","","","","","","","","",""
"image-keyboard-response","11","67044","0.0-6.0-1.3","63ead6f452e11793b2f8dab8","bdp_trlrn","Tue Mar 14 2023 18:24:29 GMT-0700 (Pacific Daylight Time)","650236","Untrustworthy,Trustworthy","","1351","","","","rating","","trustrating_stim/white_mw060.bmp","2","","","","","","","","","","",""
"image-keyboard-response","12","67247","0.0-6.0-2.3","63ead6f452e11793b2f8dab8","bdp_trlrn","Tue Mar 14 2023 18:24:29 GMT-0700 (Pacific Daylight Time)","650236","Untrustworthy,Trustworthy","","null","","","","ratingFB","","trustrating_stim/white_mw060.bmp","null","","","","","","","","","","",""
"image-keyboard-response","13","68899","0.0-6.0-1.4","63ead6f452e11793b2f8dab8","bdp_trlrn","Tue Mar 14 2023 18:24:29 GMT-0700 (Pacific Daylight Time)","650236","Untrustworthy,Trustworthy","","1550","","","","rating","","trustrating_stim/white_00807_941205_fb_edt.bmp","1","","","","","","","","","","",""
"image-keyboard-response","14","69102","0.0-6.0-2.4","63ead6f452e11793b2f8dab8","bdp_trlrn","Tue Mar 14 2023 18:24:29 GMT-0700 (Pacific Daylight Time)","650236","Untrustworthy,Trustworthy","","null","","","","ratingFB","","trustrating_stim/white_00807_941205_fb_edt.bmp","null","","","","","","","","","","",""
"image-keyboard-response","15","70734","0.0-6.0-1.5","63ead6f452e11793b2f8dab8","bdp_trlrn","Tue Mar 14 2023 18:24:29 GMT-0700 (Pacific Daylight Time)","650236","Untrustworthy,Trustworthy","","1529","","","","rating","","trustrating_stim/white_mw066.bmp","4","","","","","","","","","","",""
"image-keyboard-response","16","70936","0.0-6.0-2.5","63ead6f452e11793b2f8dab8","bdp_trlrn","Tue Mar 14 2023 18:24:29 GMT-0700 (Pacific Daylight Time)","650236","Untrustworthy,Trustworthy","","null","","","","ratingFB","","trustrating_stim/white_mw066.bmp","null","","","","","","","","","","",""
"image-keyboard-response","17","72641","0.0-6.0-1.6","63ead6f452e11793b2f8dab8","bdp_trlrn","Tue Mar 14 2023 18:24:29 GMT-0700 (Pacific Daylight Time)","650236","Untrustworthy,Trustworthy","","1601","","","","rating","","trustrating_stim/white_mw084.bmp","5","","","","","","","","","","",""
"image-keyboard-response","18","72844","0.0-6.0-2.6","63ead6f452e11793b2f8dab8","bdp_trlrn","Tue Mar 14 2023 18:24:29 GMT-0700 (Pacific Daylight Time)","650236","Untrustworthy,Trustworthy","","null","","","","ratingFB","","trustrating_stim/white_mw084.bmp","null","","","","","","","","","","",""
"image-keyboard-response","19","74780","0.0-6.0-1.7","63ead6f452e11793b2f8dab8","bdp_trlrn","Tue Mar 14 2023 18:24:29 GMT-0700 (Pacific Daylight Time)","650236","Untrustworthy,Trustworthy","","1833","","","","rating","","trustrating_stim/white_00761_941201_fb_edt.bmp","2","","","","","","","","","","",""
"image-keyboard-response","20","74982","0.0-6.0-2.7","63ead6f452e11793b2f8dab8","bdp_trlrn","Tue Mar 14 2023 18:24:29 GMT-0700 (Pacific Daylight Time)","650236","Untrustworthy,Trustworthy","","null","","","","ratingFB","","trustrating_stim/white_00761_941201_fb_edt.bmp","null","","","","","","","","","","",""
"image-keyboard-response","21","77121","0.0-6.0-1.8","63ead6f452e11793b2f8dab8","bdp_trlrn","Tue Mar 14 2023 18:24:29 GMT-0700 (Pacific Daylight Time)","650236","Untrustworthy,Trustworthy","","2036","","","","rating","","trustrating_stim/white_mw071.bmp","1","","","","","","","","","","",""
"image-keyboard-response","22","77323","0.0-6.0-2.8","63ead6f452e11793b2f8dab8","bdp_trlrn","Tue Mar 14 2023 18:24:29 GMT-0700 (Pacific Daylight Time)","650236","Untrustworthy,Trustworthy","","null","","","","ratingFB","","trustrating_stim/white_mw071.bmp","null","","","","","","","","","","",""
"image-keyboard-response","23","79132","0.0-6.0-1.9","63ead6f452e11793b2f8dab8","bdp_trlrn","Tue Mar 14 2023 18:24:29 GMT-0700 (Pacific Daylight Time)","650236","Untrustworthy,Trustworthy","","1705","","","","rating","","trustrating_stim/white_00120_931230_fa_edt.bmp","6","","","","","","","","","","",""
"image-keyboard-response","24","79335","0.0-6.0-2.9","63ead6f452e11793b2f8dab8","bdp_trlrn","Tue Mar 14 2023 18:24:29 GMT-0700 (Pacific Daylight Time)","650236","Untrustworthy,Trustworthy","","null","","","","ratingFB","","trustrating_stim/white_00120_931230_fa_edt.bmp","null","","","","","","","","","","",""
"image-keyboard-response","25","81243","0.0-6.0-1.10","63ead6f452e11793b2f8dab8","bdp_trlrn","Tue Mar 14 2023 18:24:29 GMT-0700 (Pacific Daylight Time)","650236","Untrustworthy,Trustworthy","","1806","","","","rating","","trustrating_stim/white_00757_941201_fa_edt.bmp","4","","","","","","","","","","",""
"image-keyboard-response","26","81446","0.0-6.0-2.10","63ead6f452e11793b2f8dab8","bdp_trlrn","Tue Mar 14 2023 18:24:29 GMT-0700 (Pacific Daylight Time)","650236","Untrustworthy,Trustworthy","","null","","","","ratingFB","","trustrating_stim/white_00757_941201_fa_edt.bmp","null","","","","","","","","","","",""
"image-keyboard-response","27","83211","0.0-6.0-1.11","63ead6f452e11793b2f8dab8","bdp_trlrn","Tue Mar 14 2023 18:24:29 GMT-0700 (Pacific Daylight Time)","650236","Untrustworthy,Trustworthy","","1662","","","","rating","","trustrating_stim/white_00785_941205_fb_edt.bmp","5","","","","","","","","","","",""
"image-keyboard-response","28","83414","0.0-6.0-2.11","63ead6f452e11793b2f8dab8","bdp_trlrn","Tue Mar 14 2023 18:24:29 GMT-0700 (Pacific Daylight Time)","650236","Untrustworthy,Trustworthy","","null","","","","ratingFB","","trustrating_stim/white_00785_941205_fb_edt.bmp","null","","","","","","","","","","",""
"image-keyboard-response","29","84816","0.0-6.0-1.12","63ead6f452e11793b2f8dab8","bdp_trlrn","Tue Mar 14 2023 18:24:29 GMT-0700 (Pacific Daylight Time)","650236","Untrustworthy,Trustworthy","","1298","","","","rating","","trustrating_stim/white_00223_940128_fb_edt.bmp","5","","","","","","","","","","",""
"image-keyboard-response","30","85019","0.0-6.0-2.12","63ead6f452e11793b2f8dab8","bdp_trlrn","Tue Mar 14 2023 18:24:29 GMT-0700 (Pacific Daylight Time)","650236","Untrustworthy,Trustworthy","","null","","","","ratingFB","","trustrating_stim/white_00223_940128_fb_edt.bmp","null","","","","","","","","","","",""
"image-keyboard-response","31","88167","0.0-6.0-1.13","63ead6f452e11793b2f8dab8","bdp_trlrn","Tue Mar 14 2023 18:24:29 GMT-0700 (Pacific Daylight Time)","650236","Untrustworthy,Trustworthy","","3046","","","","rating","","trustrating_stim/white_00602_940928_fb_edt.bmp","6","","","","","","","","","","",""
"image-keyboard-response","32","88370","0.0-6.0-2.13","63ead6f452e11793b2f8dab8","bdp_trlrn","Tue Mar 14 2023 18:24:29 GMT-0700 (Pacific Daylight Time)","650236","Untrustworthy,Trustworthy","","null","","","","ratingFB","","trustrating_stim/white_00602_940928_fb_edt.bmp","null","","","","","","","","","","",""
"image-keyboard-response","33","91243","0.0-6.0-1.14","63ead6f452e11793b2f8dab8","bdp_trlrn","Tue Mar 14 2023 18:24:29 GMT-0700 (Pacific Daylight Time)","650236","Untrustworthy,Trustworthy","","2769","","","","rating","","trustrating_stim/white_00577_940928_fa_edt.bmp","4","","","","","","","","","","",""
"image-keyboard-response","34","91445","0.0-6.0-2.14","63ead6f452e11793b2f8dab8","bdp_trlrn","Tue Mar 14 2023 18:24:29 GMT-0700 (Pacific Daylight Time)","650236","Untrustworthy,Trustworthy","","null","","","","ratingFB","","trustrating_stim/white_00577_940928_fa_edt.bmp","null","","","","","","","","","","",""
"image-keyboard-response","35","93307","0.0-6.0-1.15","63ead6f452e11793b2f8dab8","bdp_trlrn","Tue Mar 14 2023 18:24:29 GMT-0700 (Pacific Daylight Time)","650236","Untrustworthy,Trustworthy","","1759","","","","rating","","trustrating_stim/white_mw089.bmp","2","","","","","","","","","","",""
"image-keyboard-response","36","93509","0.0-6.0-2.15","63ead6f452e11793b2f8dab8","bdp_trlrn","Tue Mar 14 2023 18:24:29 GMT-0700 (Pacific Daylight Time)","650236","Untrustworthy,Trustworthy","","null","","","","ratingFB","","trustrating_stim/white_mw089.bmp","null","","","","","","","","","","",""
"image-keyboard-response","37","94693","0.0-6.0-1.16","63ead6f452e11793b2f8dab8","bdp_trlrn","Tue Mar 14 2023 18:24:29 GMT-0700 (Pacific Daylight Time)","650236","Untrustworthy,Trustworthy","","1082","","","","rating","","trustrating_stim/white_mw035.bmp","3","","","","","","","","","","",""
"image-keyboard-response","38","94896","0.0-6.0-2.16","63ead6f452e11793b2f8dab8","bdp_trlrn","Tue Mar 14 2023 18:24:29 GMT-0700 (Pacific Daylight Time)","650236","Untrustworthy,Trustworthy","","null","","","","ratingFB","","trustrating_stim/white_mw035.bmp","null","","","","","","","","","","",""
"image-keyboard-response","39","96100","0.0-6.0-1.17","63ead6f452e11793b2f8dab8","bdp_trlrn","Tue Mar 14 2023 18:24:29 GMT-0700 (Pacific Daylight Time)","650236","Untrustworthy,Trustworthy","","1101","","","","rating","","trustrating_stim/white_mw049.bmp","4","","","","","","","","","","",""
"image-keyboard-response","40","96303","0.0-6.0-2.17","63ead6f452e11793b2f8dab8","bdp_trlrn","Tue Mar 14 2023 18:24:29 GMT-0700 (Pacific Daylight Time)","650236","Untrustworthy,Trustworthy","","null","","","","ratingFB","","trustrating_stim/white_mw049.bmp","null","","","","","","","","","","",""
"image-keyboard-response","41","98225","0.0-6.0-1.18","63ead6f452e11793b2f8dab8","bdp_trlrn","Tue Mar 14 2023 18:24:29 GMT-0700 (Pacific Daylight Time)","650236","Untrustworthy,Trustworthy","","1818","","","","rating","","trustrating_stim/white_mw033.bmp","5","","","","","","","","","","",""
"image-keyboard-response","42","98428","0.0-6.0-2.18","63ead6f452e11793b2f8dab8","bdp_trlrn","Tue Mar 14 2023 18:24:29 GMT-0700 (Pacific Daylight Time)","650236","Untrustworthy,Trustworthy","","null","","","","ratingFB","","trustrating_stim/white_mw033.bmp","null","","","","","","","","","","",""
"image-keyboard-response","43","99904","0.0-6.0-1.19","63ead6f452e11793b2f8dab8","bdp_trlrn","Tue Mar 14 2023 18:24:29 GMT-0700 (Pacific Daylight Time)","650236","Untrustworthy,Trustworthy","","1373","","","","rating","","trustrating_stim/white_mw063.bmp","4","","","","","","","","","","",""
"image-keyboard-response","44","100108","0.0-6.0-2.19","63ead6f452e11793b2f8dab8","bdp_trlrn","Tue Mar 14 2023 18:24:29 GMT-0700 (Pacific Daylight Time)","650236","Untrustworthy,Trustworthy","","null","","","","ratingFB","","trustrating_stim/white_mw063.bmp","null","","","","","","","","","","",""
"image-keyboard-response","45","101376","0.0-6.0-1.20","63ead6f452e11793b2f8dab8","bdp_trlrn","Tue Mar 14 2023 18:24:29 GMT-0700 (Pacific Daylight Time)","650236","Untrustworthy,Trustworthy","","1165","","","","rating","","trustrating_stim/white_00129_931230_fb_edt.bmp","5","","","","","","","","","","",""
"image-keyboard-response","46","101578","0.0-6.0-2.20","63ead6f452e11793b2f8dab8","bdp_trlrn","Tue Mar 14 2023 18:24:29 GMT-0700 (Pacific Daylight Time)","650236","Untrustworthy,Trustworthy","","null","","","","ratingFB","","trustrating_stim/white_00129_931230_fb_edt.bmp","null","","","","","","","","","","",""
"image-keyboard-response","47","103214","0.0-6.0-1.21","63ead6f452e11793b2f8dab8","bdp_trlrn","Tue Mar 14 2023 18:24:29 GMT-0700 (Pacific Daylight Time)","650236","Untrustworthy,Trustworthy","","1532","","","","rating","","trustrating_stim/white_00109_931230_fa_edt.bmp","5","","","","","","","","","","",""
"image-keyboard-response","48","103416","0.0-6.0-2.21","63ead6f452e11793b2f8dab8","bdp_trlrn","Tue Mar 14 2023 18:24:29 GMT-0700 (Pacific Daylight Time)","650236","Untrustworthy,Trustworthy","","null","","","","ratingFB","","trustrating_stim/white_00109_931230_fa_edt.bmp","null","","","","","","","","","","",""
"image-keyboard-response","49","104826","0.0-6.0-1.22","63ead6f452e11793b2f8dab8","bdp_trlrn","Tue Mar 14 2023 18:24:29 GMT-0700 (Pacific Daylight Time)","650236","Untrustworthy,Trustworthy","","1306","","","","rating","","trustrating_stim/white_00299_940422_fa_edt.bmp","3","","","","","","","","","","",""
"image-keyboard-response","50","105030","0.0-6.0-2.22","63ead6f452e11793b2f8dab8","bdp_trlrn","Tue Mar 14 2023 18:24:29 GMT-0700 (Pacific Daylight Time)","650236","Untrustworthy,Trustworthy","","null","","","","ratingFB","","trustrating_stim/white_00299_940422_fa_edt.bmp","null","","","","","","","","","","",""
"image-keyboard-response","51","106365","0.0-6.0-1.23","63ead6f452e11793b2f8dab8","bdp_trlrn","Tue Mar 14 2023 18:24:29 GMT-0700 (Pacific Daylight Time)","650236","Untrustworthy,Trustworthy","","1233","","","","rating","","trustrating_stim/white_00340_940422_fa_edt.bmp","6","","","","","","","","","","",""
"image-keyboard-response","52","106567","0.0-6.0-2.23","63ead6f452e11793b2f8dab8","bdp_trlrn","Tue Mar 14 2023 18:24:29 GMT-0700 (Pacific Daylight Time)","650236","Untrustworthy,Trustworthy","","null","","","","ratingFB","","trustrating_stim/white_00340_940422_fa_edt.bmp","null","","","","","","","","","","",""
"image-keyboard-response","53","107674","0.0-6.0-1.24","63ead6f452e11793b2f8dab8","bdp_trlrn","Tue Mar 14 2023 18:24:29 GMT-0700 (Pacific Daylight Time)","650236","Untrustworthy,Trustworthy","","1003","","","","rating","","trustrating_stim/white_00519_940519_fb_edt.bmp","5","","","","","","","","","","",""
"image-keyboard-response","54","107876","0.0-6.0-2.24","63ead6f452e11793b2f8dab8","bdp_trlrn","Tue Mar 14 2023 18:24:29 GMT-0700 (Pacific Daylight Time)","650236","Untrustworthy,Trustworthy","","null","","","","ratingFB","","trustrating_stim/white_00519_940519_fb_edt.bmp","null","","","","","","","","","","",""
"image-keyboard-response","55","108979","0.0-6.0-1.25","63ead6f452e11793b2f8dab8","bdp_trlrn","Tue Mar 14 2023 18:24:29 GMT-0700 (Pacific Daylight Time)","650236","Untrustworthy,Trustworthy","","1000","","","","rating","","trustrating_stim/white_mw056.bmp","4","","","","","","","","","","",""
"image-keyboard-response","56","109181","0.0-6.0-2.25","63ead6f452e11793b2f8dab8","bdp_trlrn","Tue Mar 14 2023 18:24:29 GMT-0700 (Pacific Daylight Time)","650236","Untrustworthy,Trustworthy","","null","","","","ratingFB","","trustrating_stim/white_mw056.bmp","null","","","","","","","","","","",""
"image-keyboard-response","57","110302","0.0-6.0-1.26","63ead6f452e11793b2f8dab8","bdp_trlrn","Tue Mar 14 2023 18:24:29 GMT-0700 (Pacific Daylight Time)","650236","Untrustworthy,Trustworthy","","1017","","","","rating","","trustrating_stim/white_mw097.bmp","3","","","","","","","","","","",""
"image-keyboard-response","58","110504","0.0-6.0-2.26","63ead6f452e11793b2f8dab8","bdp_trlrn","Tue Mar 14 2023 18:24:29 GMT-0700 (Pacific Daylight Time)","650236","Untrustworthy,Trustworthy","","null","","","","ratingFB","","trustrating_stim/white_mw097.bmp","null","","","","","","","","","","",""
"image-keyboard-response","59","111257","0.0-6.0-1.27","63ead6f452e11793b2f8dab8","bdp_trlrn","Tue Mar 14 2023 18:24:29 GMT-0700 (Pacific Daylight Time)","650236","Untrustworthy,Trustworthy","","650","","","","rating","","trustrating_stim/white_mw046.bmp","4","","","","","","","","","","",""
"image-keyboard-response","60","111460","0.0-6.0-2.27","63ead6f452e11793b2f8dab8","bdp_trlrn","Tue Mar 14 2023 18:24:29 GMT-0700 (Pacific Daylight Time)","650236","Untrustworthy,Trustworthy","","null","","","","ratingFB","","trustrating_stim/white_mw046.bmp","null","","","","","","","","","","",""
"image-keyboard-response","61","112290","0.0-6.0-1.28","63ead6f452e11793b2f8dab8","bdp_trlrn","Tue Mar 14 2023 18:24:29 GMT-0700 (Pacific Daylight Time)","650236","Untrustworthy,Trustworthy","","726","","","","rating","","trustrating_stim/white_mw099.bmp","3","","","","","","","","","","",""
"image-keyboard-response","62","112493","0.0-6.0-2.28","63ead6f452e11793b2f8dab8","bdp_trlrn","Tue Mar 14 2023 18:24:29 GMT-0700 (Pacific Daylight Time)","650236","Untrustworthy,Trustworthy","","null","","","","ratingFB","","trustrating_stim/white_mw099.bmp","null","","","","","","","","","","",""
"image-keyboard-response","63","113154","0.0-6.0-1.29","63ead6f452e11793b2f8dab8","bdp_trlrn","Tue Mar 14 2023 18:24:29 GMT-0700 (Pacific Daylight Time)","650236","Untrustworthy,Trustworthy","","559","","","","rating","","trustrating_stim/white_mw048.bmp","4","","","","","","","","","","",""
"image-keyboard-response","64","113357","0.0-6.0-2.29","63ead6f452e11793b2f8dab8","bdp_trlrn","Tue Mar 14 2023 18:24:29 GMT-0700 (Pacific Daylight Time)","650236","Untrustworthy,Trustworthy","","null","","","","ratingFB","","trustrating_stim/white_mw048.bmp","null","","","","","","","","","","",""
"image-keyboard-response","65","114362","0.0-6.0-1.30","63ead6f452e11793b2f8dab8","bdp_trlrn","Tue Mar 14 2023 18:24:29 GMT-0700 (Pacific Daylight Time)","650236","Untrustworthy,Trustworthy","","902","","","","rating","","trustrating_stim/white_mw053.bmp","4","","","","","","","","","","",""
"image-keyboard-response","66","114565","0.0-6.0-2.30","63ead6f452e11793b2f8dab8","bdp_trlrn","Tue Mar 14 2023 18:24:29 GMT-0700 (Pacific Daylight Time)","650236","Untrustworthy,Trustworthy","","null","","","","ratingFB","","trustrating_stim/white_mw053.bmp","null","","","","","","","","","","",""
"image-keyboard-response","67","115090","0.0-6.0-1.31","63ead6f452e11793b2f8dab8","bdp_trlrn","Tue Mar 14 2023 18:24:29 GMT-0700 (Pacific Daylight Time)","650236","Untrustworthy,Trustworthy","","421","","","","rating","","trustrating_stim/white_mw089.bmp","3","","","","","","","","","","",""
"image-keyboard-response","68","115293","0.0-6.0-2.31","63ead6f452e11793b2f8dab8","bdp_trlrn","Tue Mar 14 2023 18:24:29 GMT-0700 (Pacific Daylight Time)","650236","Untrustworthy,Trustworthy","","null","","","","ratingFB","","trustrating_stim/white_mw089.bmp","null","","","","","","","","","","",""
"image-keyboard-response","69","116490","0.0-6.0-1.32","63ead6f452e11793b2f8dab8","bdp_trlrn","Tue Mar 14 2023 18:24:29 GMT-0700 (Pacific Daylight Time)","650236","Untrustworthy,Trustworthy","","1094","","","","rating","","trustrating_stim/white_00120_931230_fa_edt.bmp","5","","","","","","","","","","",""
"image-keyboard-response","70","116692","0.0-6.0-2.32","63ead6f452e11793b2f8dab8","bdp_trlrn","Tue Mar 14 2023 18:24:29 GMT-0700 (Pacific Daylight Time)","650236","Untrustworthy,Trustworthy","","null","","","","ratingFB","","trustrating_stim/white_00120_931230_fa_edt.bmp","null","","","","","","","","","","",""
"image-keyboard-response","71","117597","0.0-6.0-1.33","63ead6f452e11793b2f8dab8","bdp_trlrn","Tue Mar 14 2023 18:24:29 GMT-0700 (Pacific Daylight Time)","650236","Untrustworthy,Trustworthy","","801","","","","rating","","trustrating_stim/white_00340_940422_fa_edt.bmp","6","","","","","","","","","","",""
"image-keyboard-response","72","117799","0.0-6.0-2.33","63ead6f452e11793b2f8dab8","bdp_trlrn","Tue Mar 14 2023 18:24:29 GMT-0700 (Pacific Daylight Time)","650236","Untrustworthy,Trustworthy","","null","","","","ratingFB","","trustrating_stim/white_00340_940422_fa_edt.bmp","null","","","","","","","","","","",""
"image-keyboard-response","73","118553","0.0-6.0-1.34","63ead6f452e11793b2f8dab8","bdp_trlrn","Tue Mar 14 2023 18:24:29 GMT-0700 (Pacific Daylight Time)","650236","Untrustworthy,Trustworthy","","650","","","","rating","","trustrating_stim/white_mw063.bmp","5","","","","","","","","","","",""
"image-keyboard-response","74","118757","0.0-6.0-2.34","63ead6f452e11793b2f8dab8","bdp_trlrn","Tue Mar 14 2023 18:24:29 GMT-0700 (Pacific Daylight Time)","650236","Untrustworthy,Trustworthy","","null","","","","ratingFB","","trustrating_stim/white_mw063.bmp","null","","","","","","","","","","",""
"image-keyboard-response","75","120259","0.0-6.0-1.35","63ead6f452e11793b2f8dab8","bdp_trlrn","Tue Mar 14 2023 18:24:29 GMT-0700 (Pacific Daylight Time)","650236","Untrustworthy,Trustworthy","","1398","","","","rating","","trustrating_stim/white_00129_931230_fb_edt.bmp","5","","","","","","","","","","",""
"image-keyboard-response","76","120462","0.0-6.0-2.35","63ead6f452e11793b2f8dab8","bdp_trlrn","Tue Mar 14 2023 18:24:29 GMT-0700 (Pacific Daylight Time)","650236","Untrustworthy,Trustworthy","","null","","","","ratingFB","","trustrating_stim/white_00129_931230_fb_edt.bmp","null","","","","","","","","","","",""
"image-keyboard-response","77","121283","0.0-6.0-1.36","63ead6f452e11793b2f8dab8","bdp_trlrn","Tue Mar 14 2023 18:24:29 GMT-0700 (Pacific Daylight Time)","650236","Untrustworthy,Trustworthy","","718","","","","rating","","trustrating_stim/white_mw084.bmp","5","","","","","","","","","","",""
"image-keyboard-response","78","121486","0.0-6.0-2.36","63ead6f452e11793b2f8dab8","bdp_trlrn","Tue Mar 14 2023 18:24:29 GMT-0700 (Pacific Daylight Time)","650236","Untrustworthy,Trustworthy","","null","","","","ratingFB","","trustrating_stim/white_mw084.bmp","null","","","","","","","","","","",""
"image-keyboard-response","79","122682","0.0-6.0-1.37","63ead6f452e11793b2f8dab8","bdp_trlrn","Tue Mar 14 2023 18:24:29 GMT-0700 (Pacific Daylight Time)","650236","Untrustworthy,Trustworthy","","1092","","","","rating","","trustrating_stim/white_00577_940928_fa_edt.bmp","4","","","","","","","","","","",""
"image-keyboard-response","80","122884","0.0-6.0-2.37","63ead6f452e11793b2f8dab8","bdp_trlrn","Tue Mar 14 2023 18:24:29 GMT-0700 (Pacific Daylight Time)","650236","Untrustworthy,Trustworthy","","null","","","","ratingFB","","trustrating_stim/white_00577_940928_fa_edt.bmp","null","","","","","","","","","","",""
"image-keyboard-response","81","123645","0.0-6.0-1.38","63ead6f452e11793b2f8dab8","bdp_trlrn","Tue Mar 14 2023 18:24:29 GMT-0700 (Pacific Daylight Time)","650236","Untrustworthy,Trustworthy","","657","","","","rating","","trustrating_stim/white_00785_941205_fb_edt.bmp","3","","","","","","","","","","",""
"image-keyboard-response","82","123847","0.0-6.0-2.38","63ead6f452e11793b2f8dab8","bdp_trlrn","Tue Mar 14 2023 18:24:29 GMT-0700 (Pacific Daylight Time)","650236","Untrustworthy,Trustworthy","","null","","","","ratingFB","","trustrating_stim/white_00785_941205_fb_edt.bmp","null","","","","","","","","","","",""
"image-keyboard-response","83","124558","0.0-6.0-1.39","63ead6f452e11793b2f8dab8","bdp_trlrn","Tue Mar 14 2023 18:24:29 GMT-0700 (Pacific Daylight Time)","650236","Untrustworthy,Trustworthy","","607","","","","rating","","trustrating_stim/white_00807_941205_fb_edt.bmp","5","","","","","","","","","","",""
"image-keyboard-response","84","124760","0.0-6.0-2.39","63ead6f452e11793b2f8dab8","bdp_trlrn","Tue Mar 14 2023 18:24:29 GMT-0700 (Pacific Daylight Time)","650236","Untrustworthy,Trustworthy","","null","","","","ratingFB","","trustrating_stim/white_00807_941205_fb_edt.bmp","null","","","","","","","","","","",""
"image-keyboard-response","85","125713","0.0-6.0-1.40","63ead6f452e11793b2f8dab8","bdp_trlrn","Tue Mar 14 2023 18:24:29 GMT-0700 (Pacific Daylight Time)","650236","Untrustworthy,Trustworthy","","848","","","","rating","","trustrating_stim/white_00602_940928_fb_edt.bmp","4","","","","","","","","","","",""
"image-keyboard-response","86","125915","0.0-6.0-2.40","63ead6f452e11793b2f8dab8","bdp_trlrn","Tue Mar 14 2023 18:24:29 GMT-0700 (Pacific Daylight Time)","650236","Untrustworthy,Trustworthy","","null","","","","ratingFB","","trustrating_stim/white_00602_940928_fb_edt.bmp","null","","","","","","","","","","",""
"image-keyboard-response","87","126762","0.0-6.0-1.41","63ead6f452e11793b2f8dab8","bdp_trlrn","Tue Mar 14 2023 18:24:29 GMT-0700 (Pacific Daylight Time)","650236","Untrustworthy,Trustworthy","","744","","","","rating","","trustrating_stim/white_00223_940128_fb_edt.bmp","5","","","","","","","","","","",""
"image-keyboard-response","88","126966","0.0-6.0-2.41","63ead6f452e11793b2f8dab8","bdp_trlrn","Tue Mar 14 2023 18:24:29 GMT-0700 (Pacific Daylight Time)","650236","Untrustworthy,Trustworthy","","null","","","","ratingFB","","trustrating_stim/white_00223_940128_fb_edt.bmp","null","","","","","","","","","","",""
"image-keyboard-response","89","127856","0.0-6.0-1.42","63ead6f452e11793b2f8dab8","bdp_trlrn","Tue Mar 14 2023 18:24:29 GMT-0700 (Pacific Daylight Time)","650236","Untrustworthy,Trustworthy","","786","","","","rating","","trustrating_stim/white_mw048.bmp","4","","","","","","","","","","",""
"image-keyboard-response","90","128058","0.0-6.0-2.42","63ead6f452e11793b2f8dab8","bdp_trlrn","Tue Mar 14 2023 18:24:29 GMT-0700 (Pacific Daylight Time)","650236","Untrustworthy,Trustworthy","","null","","","","ratingFB","","trustrating_stim/white_mw048.bmp","null","","","","","","","","","","",""
"image-keyboard-response","91","129265","0.0-6.0-1.43","63ead6f452e11793b2f8dab8","bdp_trlrn","Tue Mar 14 2023 18:24:29 GMT-0700 (Pacific Daylight Time)","650236","Untrustworthy,Trustworthy","","1102","","","","rating","","trustrating_stim/white_mw097.bmp","5","","","","","","","","","","",""
"image-keyboard-response","92","129468","0.0-6.0-2.43","63ead6f452e11793b2f8dab8","bdp_trlrn","Tue Mar 14 2023 18:24:29 GMT-0700 (Pacific Daylight Time)","650236","Untrustworthy,Trustworthy","","null","","","","ratingFB","","trustrating_stim/white_mw097.bmp","null","","","","","","","","","","",""
"image-keyboard-response","93","130012","0.0-6.0-1.44","63ead6f452e11793b2f8dab8","bdp_trlrn","Tue Mar 14 2023 18:24:29 GMT-0700 (Pacific Daylight Time)","650236","Untrustworthy,Trustworthy","","439","","","","rating","","trustrating_stim/white_00898_960530_fa_edt.bmp","4","","","","","","","","","","",""
"image-keyboard-response","94","130214","0.0-6.0-2.44","63ead6f452e11793b2f8dab8","bdp_trlrn","Tue Mar 14 2023 18:24:29 GMT-0700 (Pacific Daylight Time)","650236","Untrustworthy,Trustworthy","","null","","","","ratingFB","","trustrating_stim/white_00898_960530_fa_edt.bmp","null","","","","","","","","","","",""
"image-keyboard-response","95","130891","0.0-6.0-1.45","63ead6f452e11793b2f8dab8","bdp_trlrn","Tue Mar 14 2023 18:24:29 GMT-0700 (Pacific Daylight Time)","650236","Untrustworthy,Trustworthy","","573","","","","rating","","trustrating_stim/white_mw071.bmp","4","","","","","","","","","","",""
"image-keyboard-response","96","131093","0.0-6.0-2.45","63ead6f452e11793b2f8dab8","bdp_trlrn","Tue Mar 14 2023 18:24:29 GMT-0700 (Pacific Daylight Time)","650236","Untrustworthy,Trustworthy","","null","","","","ratingFB","","trustrating_stim/white_mw071.bmp","null","","","","","","","","","","",""
"image-keyboard-response","97","132399","0.0-6.0-1.46","63ead6f452e11793b2f8dab8","bdp_trlrn","Tue Mar 14 2023 18:24:29 GMT-0700 (Pacific Daylight Time)","650236","Untrustworthy,Trustworthy","","1201","","","","rating","","trustrating_stim/white_mw056.bmp","4","","","","","","","","","","",""
"image-keyboard-response","98","132601","0.0-6.0-2.46","63ead6f452e11793b2f8dab8","bdp_trlrn","Tue Mar 14 2023 18:24:29 GMT-0700 (Pacific Daylight Time)","650236","Untrustworthy,Trustworthy","","null","","","","ratingFB","","trustrating_stim/white_mw056.bmp","null","","","","","","","","","","",""
"image-keyboard-response","99","134347","0.0-6.0-1.47","63ead6f452e11793b2f8dab8","bdp_trlrn","Tue Mar 14 2023 18:24:29 GMT-0700 (Pacific Daylight Time)","650236","Untrustworthy,Trustworthy","","1643","","","","rating","","trustrating_stim/white_mw035.bmp","2","","","","","","","","","","",""
"image-keyboard-response","100","134550","0.0-6.0-2.47","63ead6f452e11793b2f8dab8","bdp_trlrn","Tue Mar 14 2023 18:24:29 GMT-0700 (Pacific Daylight Time)","650236","Untrustworthy,Trustworthy","","null","","","","ratingFB","","trustrating_stim/white_mw035.bmp","null","","","","","","","","","","",""
"image-keyboard-response","101","135551","0.0-6.0-1.48","63ead6f452e11793b2f8dab8","bdp_trlrn","Tue Mar 14 2023 18:24:29 GMT-0700 (Pacific Daylight Time)","650236","Untrustworthy,Trustworthy","","897","","","","rating","","trustrating_stim/white_00659_941121_fa_edt.bmp","2","","","","","","","","","","",""
"image-keyboard-response","102","135754","0.0-6.0-2.48","63ead6f452e11793b2f8dab8","bdp_trlrn","Tue Mar 14 2023 18:24:29 GMT-0700 (Pacific Daylight Time)","650236","Untrustworthy,Trustworthy","","null","","","","ratingFB","","trustrating_stim/white_00659_941121_fa_edt.bmp","null","","","","","","","","","","",""
"image-keyboard-response","103","137003","0.0-6.0-1.49","63ead6f452e11793b2f8dab8","bdp_trlrn","Tue Mar 14 2023 18:24:29 GMT-0700 (Pacific Daylight Time)","650236","Untrustworthy,Trustworthy","","1144","","","","rating","","trustrating_stim/white_00109_931230_fa_edt.bmp","6","","","","","","","","","","",""
"image-keyboard-response","104","137205","0.0-6.0-2.49","63ead6f452e11793b2f8dab8","bdp_trlrn","Tue Mar 14 2023 18:24:29 GMT-0700 (Pacific Daylight Time)","650236","Untrustworthy,Trustworthy","","null","","","","ratingFB","","trustrating_stim/white_00109_931230_fa_edt.bmp","null","","","","","","","","","","",""
"image-keyboard-response","105","138242","0.0-6.0-1.50","63ead6f452e11793b2f8dab8","bdp_trlrn","Tue Mar 14 2023 18:24:29 GMT-0700 (Pacific Daylight Time)","650236","Untrustworthy,Trustworthy","","932","","","","rating","","trustrating_stim/white_mw066.bmp","5","","","","","","","","","","",""
"image-keyboard-response","106","138444","0.0-6.0-2.50","63ead6f452e11793b2f8dab8","bdp_trlrn","Tue Mar 14 2023 18:24:29 GMT-0700 (Pacific Daylight Time)","650236","Untrustworthy,Trustworthy","","null","","","","ratingFB","","trustrating_stim/white_mw066.bmp","null","","","","","","","","","","",""
"image-keyboard-response","107","139404","0.0-6.0-1.51","63ead6f452e11793b2f8dab8","bdp_trlrn","Tue Mar 14 2023 18:24:29 GMT-0700 (Pacific Daylight Time)","650236","Untrustworthy,Trustworthy","","857","","","","rating","","trustrating_stim/white_mw060.bmp","3","","","","","","","","","","",""
"image-keyboard-response","108","139606","0.0-6.0-2.51","63ead6f452e11793b2f8dab8","bdp_trlrn","Tue Mar 14 2023 18:24:29 GMT-0700 (Pacific Daylight Time)","650236","Untrustworthy,Trustworthy","","null","","","","ratingFB","","trustrating_stim/white_mw060.bmp","null","","","","","","","","","","",""
"image-keyboard-response","109","140558","0.0-6.0-1.52","63ead6f452e11793b2f8dab8","bdp_trlrn","Tue Mar 14 2023 18:24:29 GMT-0700 (Pacific Daylight Time)","650236","Untrustworthy,Trustworthy","","847","","","","rating","","trustrating_stim/white_mw099.bmp","3","","","","","","","","","","",""
"image-keyboard-response","110","140761","0.0-6.0-2.52","63ead6f452e11793b2f8dab8","bdp_trlrn","Tue Mar 14 2023 18:24:29 GMT-0700 (Pacific Daylight Time)","650236","Untrustworthy,Trustworthy","","null","","","","ratingFB","","trustrating_stim/white_mw099.bmp","null","","","","","","","","","","",""
"image-keyboard-response","111","141897","0.0-6.0-1.53","63ead6f452e11793b2f8dab8","bdp_trlrn","Tue Mar 14 2023 18:24:29 GMT-0700 (Pacific Daylight Time)","650236","Untrustworthy,Trustworthy","","1033","","","","rating","","trustrating_stim/white_00519_940519_fb_edt.bmp","6","","","","","","","","","","",""
"image-keyboard-response","112","142100","0.0-6.0-2.53","63ead6f452e11793b2f8dab8","bdp_trlrn","Tue Mar 14 2023 18:24:29 GMT-0700 (Pacific Daylight Time)","650236","Untrustworthy,Trustworthy","","null","","","","ratingFB","","trustrating_stim/white_00519_940519_fb_edt.bmp","null","","","","","","","","","","",""
"image-keyboard-response","113","143303","0.0-6.0-1.54","63ead6f452e11793b2f8dab8","bdp_trlrn","Tue Mar 14 2023 18:24:29 GMT-0700 (Pacific Daylight Time)","650236","Untrustworthy,Trustworthy","","1098","","","","rating","","trustrating_stim/white_mw046.bmp","5","","","","","","","","","","",""
"image-keyboard-response","114","143507","0.0-6.0-2.54","63ead6f452e11793b2f8dab8","bdp_trlrn","Tue Mar 14 2023 18:24:29 GMT-0700 (Pacific Daylight Time)","650236","Untrustworthy,Trustworthy","","null","","","","ratingFB","","trustrating_stim/white_mw046.bmp","null","","","","","","","","","","",""
"image-keyboard-response","115","144491","0.0-6.0-1.55","63ead6f452e11793b2f8dab8","bdp_trlrn","Tue Mar 14 2023 18:24:29 GMT-0700 (Pacific Daylight Time)","650236","Untrustworthy,Trustworthy","","878","","","","rating","","trustrating_stim/white_mw049.bmp","4","","","","","","","","","","",""
"image-keyboard-response","116","144694","0.0-6.0-2.55","63ead6f452e11793b2f8dab8","bdp_trlrn","Tue Mar 14 2023 18:24:29 GMT-0700 (Pacific Daylight Time)","650236","Untrustworthy,Trustworthy","","null","","","","ratingFB","","trustrating_stim/white_mw049.bmp","null","","","","","","","","","","",""
"image-keyboard-response","117","145739","0.0-6.0-1.56","63ead6f452e11793b2f8dab8","bdp_trlrn","Tue Mar 14 2023 18:24:29 GMT-0700 (Pacific Daylight Time)","650236","Untrustworthy,Trustworthy","","941","","","","rating","","trustrating_stim/white_mw033.bmp","6","","","","","","","","","","",""
"image-keyboard-response","118","145942","0.0-6.0-2.56","63ead6f452e11793b2f8dab8","bdp_trlrn","Tue Mar 14 2023 18:24:29 GMT-0700 (Pacific Daylight Time)","650236","Untrustworthy,Trustworthy","","null","","","","ratingFB","","trustrating_stim/white_mw033.bmp","null","","","","","","","","","","",""
"image-keyboard-response","119","146883","0.0-6.0-1.57","63ead6f452e11793b2f8dab8","bdp_trlrn","Tue Mar 14 2023 18:24:29 GMT-0700 (Pacific Daylight Time)","650236","Untrustworthy,Trustworthy","","838","","","","rating","","trustrating_stim/white_00299_940422_fa_edt.bmp","5","","","","","","","","","","",""
"image-keyboard-response","120","147085","0.0-6.0-2.57","63ead6f452e11793b2f8dab8","bdp_trlrn","Tue Mar 14 2023 18:24:29 GMT-0700 (Pacific Daylight Time)","650236","Untrustworthy,Trustworthy","","null","","","","ratingFB","","trustrating_stim/white_00299_940422_fa_edt.bmp","null","","","","","","","","","","",""
"image-keyboard-response","121","148557","0.0-6.0-1.58","63ead6f452e11793b2f8dab8","bdp_trlrn","Tue Mar 14 2023 18:24:29 GMT-0700 (Pacific Daylight Time)","650236","Untrustworthy,Trustworthy","","1365","","","","rating","","trustrating_stim/white_00757_941201_fa_edt.bmp","5","","","","","","","","","","",""
"image-keyboard-response","122","148760","0.0-6.0-2.58","63ead6f452e11793b2f8dab8","bdp_trlrn","Tue Mar 14 2023 18:24:29 GMT-0700 (Pacific Daylight Time)","650236","Untrustworthy,Trustworthy","","null","","","","ratingFB","","trustrating_stim/white_00757_941201_fa_edt.bmp","null","","","","","","","","","","",""
"image-keyboard-response","123","150237","0.0-6.0-1.59","63ead6f452e11793b2f8dab8","bdp_trlrn","Tue Mar 14 2023 18:24:29 GMT-0700 (Pacific Daylight Time)","650236","Untrustworthy,Trustworthy","","1372","","","","rating","","trustrating_stim/white_00761_941201_fb_edt.bmp","4","","","","","","","","","","",""
"image-keyboard-response","124","150439","0.0-6.0-2.59","63ead6f452e11793b2f8dab8","bdp_trlrn","Tue Mar 14 2023 18:24:29 GMT-0700 (Pacific Daylight Time)","650236","Untrustworthy,Trustworthy","","null","","","","ratingFB","","trustrating_stim/white_00761_941201_fb_edt.bmp","null","","","","","","","","","","",""
"instructions","125","153934","0.0-7.0","63ead6f452e11793b2f8dab8","bdp_trlrn","Tue Mar 14 2023 18:24:29 GMT-0700 (Pacific Daylight Time)","650236","Untrustworthy,Trustworthy","[{""page_index"":0,""viewing_time"":3391}]","3392","","","","","","","","","","","","","","","","","",""
"instructions","126","246177","0.0-8.0","63ead6f452e11793b2f8dab8","bdp_trlrn","Tue Mar 14 2023 18:24:29 GMT-0700 (Pacific Daylight Time)","650236","Untrustworthy,Trustworthy","[{""page_index"":0,""viewing_time"":22528},{""page_index"":1,""viewing_time"":14651},{""page_index"":2,""viewing_time"":18846},{""page_index"":3,""viewing_time"":11003},{""page_index"":4,""viewing_time"":2938},{""page_index"":5,""viewing_time"":8596},{""page_index"":6,""viewing_time"":10087},{""page_index"":7,""viewing_time"":3490}]","92140","","","","","","","","","","","","","","","","","",""
"html-keyboard-response","127","252769","0.0-9.0","63ead6f452e11793b2f8dab8","bdp_trlrn","Tue Mar 14 2023 18:24:29 GMT-0700 (Pacific Daylight Time)","650236","Untrustworthy,Trustworthy","","6590","","","","","","<div class='header' style='text-align:left; position: absolute; top: 5%; left: 5%;'><small>Task 3 of 5</small></div><div class='instruxDiv'><p><strong>1) What is the minimum number of points you can choose to send to your partner?</strong></p><p>a) 0</p><p>b) 1</p><p>c) 5</p>","A","","","","","","","","","","",""
"html-keyboard-response","128","258903","0.0-10.0","63ead6f452e11793b2f8dab8","bdp_trlrn","Tue Mar 14 2023 18:24:29 GMT-0700 (Pacific Daylight Time)","650236","Untrustworthy,Trustworthy","","6031","","","","","","<div class='header' style='text-align:left; position: absolute; top: 5%; left: 5%;'><small>Task 3 of 5</small></div><div class='instruxDiv'><p><strong>1) What is the minimum number of points you can choose to send to your partner?</strong></p><p style='color:#FF0000'>a) 0</p><p>b) 1</p><p>c) 5</p><h3 style='color:#FF0000'>Incorrect!</h3><h3 class='center-content'>The correct response is b).</h3><h3 class='center-content'>The minimum number of points you can choose to send to your partner is 1 point.</h3><p><em>Press SPACEBAR to continue</em></p></div>"," ","","","","","","","","","","",""
"html-keyboard-response","129","266222","0.0-11.0","63ead6f452e11793b2f8dab8","bdp_trlrn","Tue Mar 14 2023 18:24:29 GMT-0700 (Pacific Daylight Time)","650236","Untrustworthy,Trustworthy","","7216","","","","","","<div class='header' style='text-align:left; position: absolute; top: 5%; left: 5%;'><small>Task 3 of 5</small></div><div class='instruxDiv'><p><strong>2) What is the maximum number of points you can choose to send to your partner?</strong></p><p>a) 8</p><p>b) 5</p><p>c) 3</p>","B","","","","","","","","","","",""
"html-keyboard-response","130","267868","0.0-12.0","63ead6f452e11793b2f8dab8","bdp_trlrn","Tue Mar 14 2023 18:24:29 GMT-0700 (Pacific Daylight Time)","650236","Untrustworthy,Trustworthy","","1544","","","","","","<div class='header' style='text-align:left; position: absolute; top: 5%; left: 5%;'><small>Task 3 of 5</small></div><div class='instruxDiv'><p><strong>2) What is the maximum number of points you can choose to send to your partner?</strong></p><p>a) 8</p><p style='color:#00FF00'>b) 5</p><p>c) 3</p><h3 style='color:#00FF00'>Correct!</h3><h3 class='center-content'>The correct response is b).</h3><h3 class='center-content'>The maximum number of points you can choose to send to your partner is 5 points.</h3><p><em>Press SPACEBAR to continue</em></p></div>"," ","","","","","","","","","","",""
"html-keyboard-response","131","270628","0.0-13.0","63ead6f452e11793b2f8dab8","bdp_trlrn","Tue Mar 14 2023 18:24:29 GMT-0700 (Pacific Daylight Time)","650236","Untrustworthy,Trustworthy","","2657","","","","","","<div class='header' style='text-align:left; position: absolute; top: 5%; left: 5%;'><small>Task 3 of 5</small></div><div class='instruxDiv'><p><strong>3) What happens to the amount of points you send to your partner?</strong></p><p>a) Nothing</p><p>b) It doubles</p><p>c) It quadruples</p>","C","","","","","","","","","","",""
"html-keyboard-response","132","271572","0.0-14.0","63ead6f452e11793b2f8dab8","bdp_trlrn","Tue Mar 14 2023 18:24:29 GMT-0700 (Pacific Daylight Time)","650236","Untrustworthy,Trustworthy","","840","","","","","","<div class='header' style='text-align:left; position: absolute; top: 5%; left: 5%;'><small>Task 3 of 5</small></div><div class='instruxDiv'><p><strong>3) What happens to the amount of points you send to your partner?</strong></p><p>a) Nothing</p><p>b) It doubles</p><p style='color:#00FF00'>c) It quadruples</p><h3 style='color:#00FF00'>Correct!</h3><h3 class='center-content'>The correct response is c).</h3><h3 class='center-content'>The amount of points you send to your partner quadruples.</h3><p><em>Press SPACEBAR to continue</em></p></div>"," ","","","","","","","","","","",""
"html-keyboard-response","133","286418","0.0-15.0","63ead6f452e11793b2f8dab8","bdp_trlrn","Tue Mar 14 2023 18:24:29 GMT-0700 (Pacific Daylight Time)","650236","Untrustworthy,Trustworthy","","14744","","","","","","<div class='header' style='text-align:left; position: absolute; top: 5%; left: 5%;'><small>Task 3 of 5</small></div><div class='instruxDiv'><p><strong>4) If you decided to share 4 out of 5 points with your partner, and they decided to share half of the amount they received with you, how many points would you receive back from them on this round?</strong></p><p>a) 16</p><p>b) 0</p><p>c) 8</p>","C","","","","","","","","","","",""
"html-keyboard-response","134","288273","0.0-16.0","63ead6f452e11793b2f8dab8","bdp_trlrn","Tue Mar 14 2023 18:24:29 GMT-0700 (Pacific Daylight Time)","650236","Untrustworthy,Trustworthy","","1752","","","","","","<div class='header' style='text-align:left; position: absolute; top: 5%; left: 5%;'><small>Task 3 of 5</small></div><div class='instruxDiv'><p><strong>4) If you decided to share 4 out of 5 points with your partner, and they decided to share half of the amount they received with you, how many points would you receive back from them on this round?</strong></p><p>a) 16</p><p>b) 0</p><p style='color:#00FF00'>c) 8</p><h3 style='color:#00FF00'>Correct!</h3><h3 class='center-content'>The correct response is c).</h3><h3 class='center-content'>If you shared 4 out of 5 points with your partner and they decided to share half of the amount they received with you, you would receive 8 points back (i.e. (4 x 4)/2 = 8).</h3><p><em>Press SPACEBAR to continue</em></p></div>"," ","","","","","","","","","","",""
"html-keyboard-response","135","293378","0.0-17.0","63ead6f452e11793b2f8dab8","bdp_trlrn","Tue Mar 14 2023 18:24:29 GMT-0700 (Pacific Daylight Time)","650236","Untrustworthy,Trustworthy","","null","","","","","","<div class='header' style='text-align:left; position: absolute; top: 5%; left: 5%;'><small>Task 3 of 5</small></div><div class='instruxDiv'><p>Thank you for completing the quiz<p>These are the actual partners you will be interacting with in the next block:<p><div class='tc' align='center'><img class='introPic' src='trustrating_stim/white_00659_941121_fa_edt.bmp'><br><strong>Richard</strong></div><div class='bl' align='center'><img class='introPic' src='trustrating_stim/white_mw049.bmp'><br><strong>Evan</strong></div><div class='br' align='center'><img class='introPic' src='trustrating_stim/white_00519_940519_fb_edt.bmp'><br><strong>Lucas</strong></div></div><p>Across <strong>66 rounds</strong> you will interact with each partner <strong>22 times</strong> (in random order).<p style='align:center; color:white'><font <em>Press SPACEBAR to continue</em></p>","null","","","","","","","","","","",""
"instructions","136","296909","0.0-18.0","63ead6f452e11793b2f8dab8","bdp_trlrn","Tue Mar 14 2023 18:24:29 GMT-0700 (Pacific Daylight Time)","650236","Untrustworthy,Trustworthy","[{""page_index"":0,""viewing_time"":2058},{""page_index"":1,""viewing_time"":1470}]","3529","","","","","","","","","","","","","","","","","",""
"html-keyboard-response","137","301850","0.0-19.0-1.0","63ead6f452e11793b2f8dab8","bdp_trlrn","Tue Mar 14 2023 18:24:29 GMT-0700 (Pacific Daylight Time)","650236","Untrustworthy,Trustworthy","","4837","","","","decision","","<div class='trialDiv'><img src='trustrating_stim/white_mw049.bmp'><br><font class='baseline'><strong>Evan</strong><p>Choose number of points to send.</font><div class='respPicDiv'><img src='img/responseButtonOffersNo0L.png' class='respPic'></div></div>","5","1","Evan","4","Kept","0.8,0.35","10","0.8","trustrating_stim/white_mw049.bmp","4","5","1"
"html-keyboard-response","138","302104","0.0-19.0-2.0","63ead6f452e11793b2f8dab8","bdp_trlrn","Tue Mar 14 2023 18:24:29 GMT-0700 (Pacific Daylight Time)","650236","Untrustworthy,Trustworthy","","null","","","","decisionFB","","<div class='trialDiv'><img src='trustrating_stim/white_mw049.bmp'><br><font class='baseline'><strong>Evan</strong><p>Choose number of points to send.</font><div class='respPicDiv'><img src='img/responseButtonOffersNo0L5.png' class='respPic'></div></div>","null","1","Evan","4","Kept","0.8,0.35","10","0.8","trustrating_stim/white_mw049.bmp","4","0","1"
"html-keyboard-response","139","303107","0.0-19.0-3.0","63ead6f452e11793b2f8dab8","bdp_trlrn","Tue Mar 14 2023 18:24:29 GMT-0700 (Pacific Daylight Time)","650236","Untrustworthy,Trustworthy","","null","","","","feedback","","<div class='trialDiv'><img src='trustrating_stim/white_mw049.bmp'><br><font class='baseline'><strong>Evan</strong><p>Received: <strong>20</strong></font> &nbsp; &nbsp; &nbsp; &nbsp; &nbsp; &nbsp;<font class='negOutcome'>Shared back: <strong>0</strong></font></font><div class='respPicDiv'><img src='img/responseButtonOffersNo0_wht.png' class='respPic'></div></div>","null","1","Evan","4","Kept","0.8,0.35","10","0.8","trustrating_stim/white_mw049.bmp","4","0","1"
"html-keyboard-response","140","306232","0.0-19.0-1.1","63ead6f452e11793b2f8dab8","bdp_trlrn","Tue Mar 14 2023 18:24:29 GMT-0700 (Pacific Daylight Time)","650236","Untrustworthy,Trustworthy","","3122","","","","decision","","<div class='trialDiv'><img src='trustrating_stim/white_00659_941121_fa_edt.bmp'><br><font class='baseline'><strong>Richard</strong><p>Choose number of points to send.</font><div class='respPicDiv'><img src='img/responseButtonOffersNo0L.png' class='respPic'></div></div>","5","1","Richard","1","Kept","0.2,0.65","9","0.2","trustrating_stim/white_00659_941121_fa_edt.bmp","2.5","5","2"
"html-keyboard-response","141","306484","0.0-19.0-2.1","63ead6f452e11793b2f8dab8","bdp_trlrn","Tue Mar 14 2023 18:24:29 GMT-0700 (Pacific Daylight Time)","650236","Untrustworthy,Trustworthy","","null","","","","decisionFB","","<div class='trialDiv'><img src='trustrating_stim/white_00659_941121_fa_edt.bmp'><br><font class='baseline'><strong>Richard</strong><p>Choose number of points to send.</font><div class='respPicDiv'><img src='img/responseButtonOffersNo0L5.png' class='respPic'></div></div>","null","1","Richard","1","Kept","0.2,0.65","9","0.2","trustrating_stim/white_00659_941121_fa_edt.bmp","2.5","0","2"
"html-keyboard-response","142","307487","0.0-19.0-3.1","63ead6f452e11793b2f8dab8","bdp_trlrn","Tue Mar 14 2023 18:24:29 GMT-0700 (Pacific Daylight Time)","650236","Untrustworthy,Trustworthy","","null","","","","feedback","","<div class='trialDiv'><img src='trustrating_stim/white_00659_941121_fa_edt.bmp'><br><font class='baseline'><strong>Richard</strong><p>Received: <strong>20</strong></font> &nbsp; &nbsp; &nbsp; &nbsp; &nbsp; &nbsp;<font class='negOutcome'>Shared back: <strong>0</strong></font></font><div class='respPicDiv'><img src='img/responseButtonOffersNo0_wht.png' class='respPic'></div></div>","null","1","Richard","1","Kept","0.2,0.65","9","0.2","trustrating_stim/white_00659_941121_fa_edt.bmp","2.5","0","2"
"html-keyboard-response","143","308738","0.0-19.0-1.2","63ead6f452e11793b2f8dab8","bdp_trlrn","Tue Mar 14 2023 18:24:29 GMT-0700 (Pacific Daylight Time)","650236","Untrustworthy,Trustworthy","","1248","","","","decision","","<div class='trialDiv'><img src='trustrating_stim/white_00519_940519_fb_edt.bmp'><br><font class='baseline'><strong>Lucas</strong><p>Choose number of points to send.</font><div class='respPicDiv'><img src='img/responseButtonOffersNo0L.png' class='respPic'></div></div>","5","1","Lucas","10","Shared","0.65,0.35","10","0.65","trustrating_stim/white_00519_940519_fb_edt.bmp","5.5","5","3"
"html-keyboard-response","144","308990","0.0-19.0-2.2","63ead6f452e11793b2f8dab8","bdp_trlrn","Tue Mar 14 2023 18:24:29 GMT-0700 (Pacific Daylight Time)","650236","Untrustworthy,Trustworthy","","null","","","","decisionFB","","<div class='trialDiv'><img src='trustrating_stim/white_00519_940519_fb_edt.bmp'><br><font class='baseline'><strong>Lucas</strong><p>Choose number of points to send.</font><div class='respPicDiv'><img src='img/responseButtonOffersNo0L5.png' class='respPic'></div></div>","null","1","Lucas","10","Shared","0.65,0.35","10","0.65","trustrating_stim/white_00519_940519_fb_edt.bmp","5.5","0","3"
"html-keyboard-response","145","309993","0.0-19.0-3.2","63ead6f452e11793b2f8dab8","bdp_trlrn","Tue Mar 14 2023 18:24:29 GMT-0700 (Pacific Daylight Time)","650236","Untrustworthy,Trustworthy","","null","","","","feedback","","<div class='trialDiv'><img src='trustrating_stim/white_00519_940519_fb_edt.bmp'><br><font class='baseline'><strong>Lucas</strong><p>Received: <strong>20</strong></font> &nbsp; &nbsp; &nbsp; &nbsp; &nbsp; &nbsp;<font class='posOutcome'>Shared back: <strong>10</strong></font></font><div class='respPicDiv'><img src='img/responseButtonOffersNo0_wht.png' class='respPic'></div></div>","null","1","Lucas","10","Shared","0.65,0.35","10","0.65","trustrating_stim/white_00519_940519_fb_edt.bmp","5.5","10","3"
"html-keyboard-response","146","313182","0.0-19.0-1.3","63ead6f452e11793b2f8dab8","bdp_trlrn","Tue Mar 14 2023 18:24:29 GMT-0700 (Pacific Daylight Time)","650236","Untrustworthy,Trustworthy","","3186","","","","decision","","<div class='trialDiv'><img src='trustrating_stim/white_mw049.bmp'><br><font class='baseline'><strong>Evan</strong><p>Choose number of points to send.</font><div class='respPicDiv'><img src='img/responseButtonOffersNo0L.png' class='respPic'></div></div>","1","2","Evan","4","Shared","0.8,0.35","10","0.8","trustrating_stim/white_mw049.bmp","4","15","4"
"html-keyboard-response","147","313436","0.0-19.0-2.3","63ead6f452e11793b2f8dab8","bdp_trlrn","Tue Mar 14 2023 18:24:29 GMT-0700 (Pacific Daylight Time)","650236","Untrustworthy,Trustworthy","","null","","","","decisionFB","","<div class='trialDiv'><img src='trustrating_stim/white_mw049.bmp'><br><font class='baseline'><strong>Evan</strong><p>Choose number of points to send.</font><div class='respPicDiv'><img src='img/responseButtonOffersNo0L1.png' class='respPic'></div></div>","null","2","Evan","4","Shared","0.8,0.35","10","0.8","trustrating_stim/white_mw049.bmp","4","14","4"
"html-keyboard-response","148","314440","0.0-19.0-3.3","63ead6f452e11793b2f8dab8","bdp_trlrn","Tue Mar 14 2023 18:24:29 GMT-0700 (Pacific Daylight Time)","650236","Untrustworthy,Trustworthy","","null","","","","feedback","","<div class='trialDiv'><img src='trustrating_stim/white_mw049.bmp'><br><font class='baseline'><strong>Evan</strong><p>Received: <strong>4</strong></font> &nbsp; &nbsp; &nbsp; &nbsp; &nbsp; &nbsp;<font class='posOutcome'>Shared back: <strong>2</strong></font></font><div class='respPicDiv'><img src='img/responseButtonOffersNo0_wht.png' class='respPic'></div></div>","null","2","Evan","4","Shared","0.8,0.35","10","0.8","trustrating_stim/white_mw049.bmp","4","16","4"
"html-keyboard-response","149","317779","0.0-19.0-1.4","63ead6f452e11793b2f8dab8","bdp_trlrn","Tue Mar 14 2023 18:24:29 GMT-0700 (Pacific Daylight Time)","650236","Untrustworthy,Trustworthy","","3334","","","","decision","","<div class='trialDiv'><img src='trustrating_stim/white_00659_941121_fa_edt.bmp'><br><font class='baseline'><strong>Richard</strong><p>Choose number of points to send.</font><div class='respPicDiv'><img src='img/responseButtonOffersNo0L.png' class='respPic'></div></div>","1","2","Richard","1","Kept","0.2,0.65","9","0.2","trustrating_stim/white_00659_941121_fa_edt.bmp","2.5","21","5"
"html-keyboard-response","150","318031","0.0-19.0-2.4","63ead6f452e11793b2f8dab8","bdp_trlrn","Tue Mar 14 2023 18:24:29 GMT-0700 (Pacific Daylight Time)","650236","Untrustworthy,Trustworthy","","null","","","","decisionFB","","<div class='trialDiv'><img src='trustrating_stim/white_00659_941121_fa_edt.bmp'><br><font class='baseline'><strong>Richard</strong><p>Choose number of points to send.</font><div class='respPicDiv'><img src='img/responseButtonOffersNo0L1.png' class='respPic'></div></div>","null","2","Richard","1","Kept","0.2,0.65","9","0.2","trustrating_stim/white_00659_941121_fa_edt.bmp","2.5","20","5"
"html-keyboard-response","151","319035","0.0-19.0-3.4","63ead6f452e11793b2f8dab8","bdp_trlrn","Tue Mar 14 2023 18:24:29 GMT-0700 (Pacific Daylight Time)","650236","Untrustworthy,Trustworthy","","null","","","","feedback","","<div class='trialDiv'><img src='trustrating_stim/white_00659_941121_fa_edt.bmp'><br><font class='baseline'><strong>Richard</strong><p>Received: <strong>4</strong></font> &nbsp; &nbsp; &nbsp; &nbsp; &nbsp; &nbsp;<font class='negOutcome'>Shared back: <strong>0</strong></font></font><div class='respPicDiv'><img src='img/responseButtonOffersNo0_wht.png' class='respPic'></div></div>","null","2","Richard","1","Kept","0.2,0.65","9","0.2","trustrating_stim/white_00659_941121_fa_edt.bmp","2.5","20","5"
"html-keyboard-response","152","321790","0.0-19.0-1.5","63ead6f452e11793b2f8dab8","bdp_trlrn","Tue Mar 14 2023 18:24:29 GMT-0700 (Pacific Daylight Time)","650236","Untrustworthy,Trustworthy","","2753","","","","decision","","<div class='trialDiv'><img src='trustrating_stim/white_00519_940519_fb_edt.bmp'><br><font class='baseline'><strong>Lucas</strong><p>Choose number of points to send.</font><div class='respPicDiv'><img src='img/responseButtonOffersNo0L.png' class='respPic'></div></div>","5","2","Lucas","10","Shared","0.65,0.35","10","0.65","trustrating_stim/white_00519_940519_fb_edt.bmp","5.5","25","6"
"html-keyboard-response","153","322043","0.0-19.0-2.5","63ead6f452e11793b2f8dab8","bdp_trlrn","Tue Mar 14 2023 18:24:29 GMT-0700 (Pacific Daylight Time)","650236","Untrustworthy,Trustworthy","","null","","","","decisionFB","","<div class='trialDiv'><img src='trustrating_stim/white_00519_940519_fb_edt.bmp'><br><font class='baseline'><strong>Lucas</strong><p>Choose number of points to send.</font><div class='respPicDiv'><img src='img/responseButtonOffersNo0L5.png' class='respPic'></div></div>","null","2","Lucas","10","Shared","0.65,0.35","10","0.65","trustrating_stim/white_00519_940519_fb_edt.bmp","5.5","20","6"
"html-keyboard-response","154","323047","0.0-19.0-3.5","63ead6f452e11793b2f8dab8","bdp_trlrn","Tue Mar 14 2023 18:24:29 GMT-0700 (Pacific Daylight Time)","650236","Untrustworthy,Trustworthy","","null","","","","feedback","","<div class='trialDiv'><img src='trustrating_stim/white_00519_940519_fb_edt.bmp'><br><font class='baseline'><strong>Lucas</strong><p>Received: <strong>20</strong></font> &nbsp; &nbsp; &nbsp; &nbsp; &nbsp; &nbsp;<font class='posOutcome'>Shared back: <strong>10</strong></font></font><div class='respPicDiv'><img src='img/responseButtonOffersNo0_wht.png' class='respPic'></div></div>","null","2","Lucas","10","Shared","0.65,0.35","10","0.65","trustrating_stim/white_00519_940519_fb_edt.bmp","5.5","30","6"
"html-keyboard-response","155","325125","0.0-19.0-1.6","63ead6f452e11793b2f8dab8","bdp_trlrn","Tue Mar 14 2023 18:24:29 GMT-0700 (Pacific Daylight Time)","650236","Untrustworthy,Trustworthy","","2076","","","","decision","","<div class='trialDiv'><img src='trustrating_stim/white_mw049.bmp'><br><font class='baseline'><strong>Evan</strong><p>Choose number of points to send.</font><div class='respPicDiv'><img src='img/responseButtonOffersNo0L.png' class='respPic'></div></div>","4","3","Evan","4","Shared","0.8,0.35","10","0.8","trustrating_stim/white_mw049.bmp","4","35","7"
"html-keyboard-response","156","325378","0.0-19.0-2.6","63ead6f452e11793b2f8dab8","bdp_trlrn","Tue Mar 14 2023 18:24:29 GMT-0700 (Pacific Daylight Time)","650236","Untrustworthy,Trustworthy","","null","","","","decisionFB","","<div class='trialDiv'><img src='trustrating_stim/white_mw049.bmp'><br><font class='baseline'><strong>Evan</strong><p>Choose number of points to send.</font><div class='respPicDiv'><img src='img/responseButtonOffersNo0L4.png' class='respPic'></div></div>","null","3","Evan","4","Shared","0.8,0.35","10","0.8","trustrating_stim/white_mw049.bmp","4","31","7"
"html-keyboard-response","157","326380","0.0-19.0-3.6","63ead6f452e11793b2f8dab8","bdp_trlrn","Tue Mar 14 2023 18:24:29 GMT-0700 (Pacific Daylight Time)","650236","Untrustworthy,Trustworthy","","null","","","","feedback","","<div class='trialDiv'><img src='trustrating_stim/white_mw049.bmp'><br><font class='baseline'><strong>Evan</strong><p>Received: <strong>16</strong></font> &nbsp; &nbsp; &nbsp; &nbsp; &nbsp; &nbsp;<font class='posOutcome'>Shared back: <strong>8</strong></font></font><div class='respPicDiv'><img src='img/responseButtonOffersNo0_wht.png' class='respPic'></div></div>","null","3","Evan","4","Shared","0.8,0.35","10","0.8","trustrating_stim/white_mw049.bmp","4","39","7"
"html-keyboard-response","158","328118","0.0-19.0-1.7","63ead6f452e11793b2f8dab8","bdp_trlrn","Tue Mar 14 2023 18:24:29 GMT-0700 (Pacific Daylight Time)","650236","Untrustworthy,Trustworthy","","1735","","","","decision","","<div class='trialDiv'><img src='trustrating_stim/white_00519_940519_fb_edt.bmp'><br><font class='baseline'><strong>Lucas</strong><p>Choose number of points to send.</font><div class='respPicDiv'><img src='img/responseButtonOffersNo0L.png' class='respPic'></div></div>","5","3","Lucas","10","Shared","0.65,0.35","10","0.65","trustrating_stim/white_00519_940519_fb_edt.bmp","5.5","44","8"
"html-keyboard-response","159","328370","0.0-19.0-2.7","63ead6f452e11793b2f8dab8","bdp_trlrn","Tue Mar 14 2023 18:24:29 GMT-0700 (Pacific Daylight Time)","650236","Untrustworthy,Trustworthy","","null","","","","decisionFB","","<div class='trialDiv'><img src='trustrating_stim/white_00519_940519_fb_edt.bmp'><br><font class='baseline'><strong>Lucas</strong><p>Choose number of points to send.</font><div class='respPicDiv'><img src='img/responseButtonOffersNo0L5.png' class='respPic'></div></div>","null","3","Lucas","10","Shared","0.65,0.35","10","0.65","trustrating_stim/white_00519_940519_fb_edt.bmp","5.5","39","8"
"html-keyboard-response","160","329373","0.0-19.0-3.7","63ead6f452e11793b2f8dab8","bdp_trlrn","Tue Mar 14 2023 18:24:29 GMT-0700 (Pacific Daylight Time)","650236","Untrustworthy,Trustworthy","","null","","","","feedback","","<div class='trialDiv'><img src='trustrating_stim/white_00519_940519_fb_edt.bmp'><br><font class='baseline'><strong>Lucas</strong><p>Received: <strong>20</strong></font> &nbsp; &nbsp; &nbsp; &nbsp; &nbsp; &nbsp;<font class='posOutcome'>Shared back: <strong>10</strong></font></font><div class='respPicDiv'><img src='img/responseButtonOffersNo0_wht.png' class='respPic'></div></div>","null","3","Lucas","10","Shared","0.65,0.35","10","0.65","trustrating_stim/white_00519_940519_fb_edt.bmp","5.5","49","8"
"html-keyboard-response","161","330840","0.0-19.0-1.8","63ead6f452e11793b2f8dab8","bdp_trlrn","Tue Mar 14 2023 18:24:29 GMT-0700 (Pacific Daylight Time)","650236","Untrustworthy,Trustworthy","","1465","","","","decision","","<div class='trialDiv'><img src='trustrating_stim/white_00659_941121_fa_edt.bmp'><br><font class='baseline'><strong>Richard</strong><p>Choose number of points to send.</font><div class='respPicDiv'><img src='img/responseButtonOffersNo0L.png' class='respPic'></div></div>","1","3","Richard","1","Kept","0.2,0.65","9","0.2","trustrating_stim/white_00659_941121_fa_edt.bmp","2.5","54","9"
"html-keyboard-response","162","331092","0.0-19.0-2.8","63ead6f452e11793b2f8dab8","bdp_trlrn","Tue Mar 14 2023 18:24:29 GMT-0700 (Pacific Daylight Time)","650236","Untrustworthy,Trustworthy","","null","","","","decisionFB","","<div class='trialDiv'><img src='trustrating_stim/white_00659_941121_fa_edt.bmp'><br><font class='baseline'><strong>Richard</strong><p>Choose number of points to send.</font><div class='respPicDiv'><img src='img/responseButtonOffersNo0L1.png' class='respPic'></div></div>","null","3","Richard","1","Kept","0.2,0.65","9","0.2","trustrating_stim/white_00659_941121_fa_edt.bmp","2.5","53","9"
"html-keyboard-response","163","332095","0.0-19.0-3.8","63ead6f452e11793b2f8dab8","bdp_trlrn","Tue Mar 14 2023 18:24:29 GMT-0700 (Pacific Daylight Time)","650236","Untrustworthy,Trustworthy","","null","","","","feedback","","<div class='trialDiv'><img src='trustrating_stim/white_00659_941121_fa_edt.bmp'><br><font class='baseline'><strong>Richard</strong><p>Received: <strong>4</strong></font> &nbsp; &nbsp; &nbsp; &nbsp; &nbsp; &nbsp;<font class='negOutcome'>Shared back: <strong>0</strong></font></font><div class='respPicDiv'><img src='img/responseButtonOffersNo0_wht.png' class='respPic'></div></div>","null","3","Richard","1","Kept","0.2,0.65","9","0.2","trustrating_stim/white_00659_941121_fa_edt.bmp","2.5","53","9"
"html-keyboard-response","164","333862","0.0-19.0-1.9","63ead6f452e11793b2f8dab8","bdp_trlrn","Tue Mar 14 2023 18:24:29 GMT-0700 (Pacific Daylight Time)","650236","Untrustworthy,Trustworthy","","1764","","","","decision","","<div class='trialDiv'><img src='trustrating_stim/white_00519_940519_fb_edt.bmp'><br><font class='baseline'><strong>Lucas</strong><p>Choose number of points to send.</font><div class='respPicDiv'><img src='img/responseButtonOffersNo0L.png' class='respPic'></div></div>","5","4","Lucas","10","Kept","0.65,0.35","10","0.65","trustrating_stim/white_00519_940519_fb_edt.bmp","5.5","58","10"
"html-keyboard-response","165","334114","0.0-19.0-2.9","63ead6f452e11793b2f8dab8","bdp_trlrn","Tue Mar 14 2023 18:24:29 GMT-0700 (Pacific Daylight Time)","650236","Untrustworthy,Trustworthy","","null","","","","decisionFB","","<div class='trialDiv'><img src='trustrating_stim/white_00519_940519_fb_edt.bmp'><br><font class='baseline'><strong>Lucas</strong><p>Choose number of points to send.</font><div class='respPicDiv'><img src='img/responseButtonOffersNo0L5.png' class='respPic'></div></div>","null","4","Lucas","10","Kept","0.65,0.35","10","0.65","trustrating_stim/white_00519_940519_fb_edt.bmp","5.5","53","10"
"html-keyboard-response","166","335117","0.0-19.0-3.9","63ead6f452e11793b2f8dab8","bdp_trlrn","Tue Mar 14 2023 18:24:29 GMT-0700 (Pacific Daylight Time)","650236","Untrustworthy,Trustworthy","","null","","","","feedback","","<div class='trialDiv'><img src='trustrating_stim/white_00519_940519_fb_edt.bmp'><br><font class='baseline'><strong>Lucas</strong><p>Received: <strong>20</strong></font> &nbsp; &nbsp; &nbsp; &nbsp; &nbsp; &nbsp;<font class='negOutcome'>Shared back: <strong>0</strong></font></font><div class='respPicDiv'><img src='img/responseButtonOffersNo0_wht.png' class='respPic'></div></div>","null","4","Lucas","10","Kept","0.65,0.35","10","0.65","trustrating_stim/white_00519_940519_fb_edt.bmp","5.5","53","10"
"html-keyboard-response","167","336939","0.0-19.0-1.10","63ead6f452e11793b2f8dab8","bdp_trlrn","Tue Mar 14 2023 18:24:29 GMT-0700 (Pacific Daylight Time)","650236","Untrustworthy,Trustworthy","","1820","","","","decision","","<div class='trialDiv'><img src='trustrating_stim/white_00659_941121_fa_edt.bmp'><br><font class='baseline'><strong>Richard</strong><p>Choose number of points to send.</font><div class='respPicDiv'><img src='img/responseButtonOffersNo0L.png' class='respPic'></div></div>","1","4","Richard","1","Kept","0.2,0.65","9","0.2","trustrating_stim/white_00659_941121_fa_edt.bmp","2.5","58","11"
"html-keyboard-response","168","337192","0.0-19.0-2.10","63ead6f452e11793b2f8dab8","bdp_trlrn","Tue Mar 14 2023 18:24:29 GMT-0700 (Pacific Daylight Time)","650236","Untrustworthy,Trustworthy","","null","","","","decisionFB","","<div class='trialDiv'><img src='trustrating_stim/white_00659_941121_fa_edt.bmp'><br><font class='baseline'><strong>Richard</strong><p>Choose number of points to send.</font><div class='respPicDiv'><img src='img/responseButtonOffersNo0L1.png' class='respPic'></div></div>","null","4","Richard","1","Kept","0.2,0.65","9","0.2","trustrating_stim/white_00659_941121_fa_edt.bmp","2.5","57","11"
"html-keyboard-response","169","338195","0.0-19.0-3.10","63ead6f452e11793b2f8dab8","bdp_trlrn","Tue Mar 14 2023 18:24:29 GMT-0700 (Pacific Daylight Time)","650236","Untrustworthy,Trustworthy","","null","","","","feedback","","<div class='trialDiv'><img src='trustrating_stim/white_00659_941121_fa_edt.bmp'><br><font class='baseline'><strong>Richard</strong><p>Received: <strong>4</strong></font> &nbsp; &nbsp; &nbsp; &nbsp; &nbsp; &nbsp;<font class='negOutcome'>Shared back: <strong>0</strong></font></font><div class='respPicDiv'><img src='img/responseButtonOffersNo0_wht.png' class='respPic'></div></div>","null","4","Richard","1","Kept","0.2,0.65","9","0.2","trustrating_stim/white_00659_941121_fa_edt.bmp","2.5","57","11"
"html-keyboard-response","170","339723","0.0-19.0-1.11","63ead6f452e11793b2f8dab8","bdp_trlrn","Tue Mar 14 2023 18:24:29 GMT-0700 (Pacific Daylight Time)","650236","Untrustworthy,Trustworthy","","1525","","","","decision","","<div class='trialDiv'><img src='trustrating_stim/white_mw049.bmp'><br><font class='baseline'><strong>Evan</strong><p>Choose number of points to send.</font><div class='respPicDiv'><img src='img/responseButtonOffersNo0L.png' class='respPic'></div></div>","5","4","Evan","4","Shared","0.8,0.35","10","0.8","trustrating_stim/white_mw049.bmp","4","62","12"
"html-keyboard-response","171","339975","0.0-19.0-2.11","63ead6f452e11793b2f8dab8","bdp_trlrn","Tue Mar 14 2023 18:24:29 GMT-0700 (Pacific Daylight Time)","650236","Untrustworthy,Trustworthy","","null","","","","decisionFB","","<div class='trialDiv'><img src='trustrating_stim/white_mw049.bmp'><br><font class='baseline'><strong>Evan</strong><p>Choose number of points to send.</font><div class='respPicDiv'><img src='img/responseButtonOffersNo0L5.png' class='respPic'></div></div>","null","4","Evan","4","Shared","0.8,0.35","10","0.8","trustrating_stim/white_mw049.bmp","4","57","12"
"html-keyboard-response","172","340978","0.0-19.0-3.11","63ead6f452e11793b2f8dab8","bdp_trlrn","Tue Mar 14 2023 18:24:29 GMT-0700 (Pacific Daylight Time)","650236","Untrustworthy,Trustworthy","","null","","","","feedback","","<div class='trialDiv'><img src='trustrating_stim/white_mw049.bmp'><br><font class='baseline'><strong>Evan</strong><p>Received: <strong>20</strong></font> &nbsp; &nbsp; &nbsp; &nbsp; &nbsp; &nbsp;<font class='posOutcome'>Shared back: <strong>10</strong></font></font><div class='respPicDiv'><img src='img/responseButtonOffersNo0_wht.png' class='respPic'></div></div>","null","4","Evan","4","Shared","0.8,0.35","10","0.8","trustrating_stim/white_mw049.bmp","4","67","12"
"html-keyboard-response","173","342050","0.0-19.0-1.12","63ead6f452e11793b2f8dab8","bdp_trlrn","Tue Mar 14 2023 18:24:29 GMT-0700 (Pacific Daylight Time)","650236","Untrustworthy,Trustworthy","","1069","","","","decision","","<div class='trialDiv'><img src='trustrating_stim/white_00519_940519_fb_edt.bmp'><br><font class='baseline'><strong>Lucas</strong><p>Choose number of points to send.</font><div class='respPicDiv'><img src='img/responseButtonOffersNo0L.png' class='respPic'></div></div>","5","5","Lucas","10","Kept","0.65,0.35","10","0.65","trustrating_stim/white_00519_940519_fb_edt.bmp","5.5","72","13"
"html-keyboard-response","174","342302","0.0-19.0-2.12","63ead6f452e11793b2f8dab8","bdp_trlrn","Tue Mar 14 2023 18:24:29 GMT-0700 (Pacific Daylight Time)","650236","Untrustworthy,Trustworthy","","null","","","","decisionFB","","<div class='trialDiv'><img src='trustrating_stim/white_00519_940519_fb_edt.bmp'><br><font class='baseline'><strong>Lucas</strong><p>Choose number of points to send.</font><div class='respPicDiv'><img src='img/responseButtonOffersNo0L5.png' class='respPic'></div></div>","null","5","Lucas","10","Kept","0.65,0.35","10","0.65","trustrating_stim/white_00519_940519_fb_edt.bmp","5.5","67","13"
"html-keyboard-response","175","343306","0.0-19.0-3.12","63ead6f452e11793b2f8dab8","bdp_trlrn","Tue Mar 14 2023 18:24:29 GMT-0700 (Pacific Daylight Time)","650236","Untrustworthy,Trustworthy","","null","","","","feedback","","<div class='trialDiv'><img src='trustrating_stim/white_00519_940519_fb_edt.bmp'><br><font class='baseline'><strong>Lucas</strong><p>Received: <strong>20</strong></font> &nbsp; &nbsp; &nbsp; &nbsp; &nbsp; &nbsp;<font class='negOutcome'>Shared back: <strong>0</strong></font></font><div class='respPicDiv'><img src='img/responseButtonOffersNo0_wht.png' class='respPic'></div></div>","null","5","Lucas","10","Kept","0.65,0.35","10","0.65","trustrating_stim/white_00519_940519_fb_edt.bmp","5.5","67","13"
"html-keyboard-response","176","344794","0.0-19.0-1.13","63ead6f452e11793b2f8dab8","bdp_trlrn","Tue Mar 14 2023 18:24:29 GMT-0700 (Pacific Daylight Time)","650236","Untrustworthy,Trustworthy","","1486","","","","decision","","<div class='trialDiv'><img src='trustrating_stim/white_00659_941121_fa_edt.bmp'><br><font class='baseline'><strong>Richard</strong><p>Choose number of points to send.</font><div class='respPicDiv'><img src='img/responseButtonOffersNo0L.png' class='respPic'></div></div>","1","5","Richard","1","Kept","0.2,0.65","9","0.2","trustrating_stim/white_00659_941121_fa_edt.bmp","2.5","72","14"
"html-keyboard-response","177","345047","0.0-19.0-2.13","63ead6f452e11793b2f8dab8","bdp_trlrn","Tue Mar 14 2023 18:24:29 GMT-0700 (Pacific Daylight Time)","650236","Untrustworthy,Trustworthy","","null","","","","decisionFB","","<div class='trialDiv'><img src='trustrating_stim/white_00659_941121_fa_edt.bmp'><br><font class='baseline'><strong>Richard</strong><p>Choose number of points to send.</font><div class='respPicDiv'><img src='img/responseButtonOffersNo0L1.png' class='respPic'></div></div>","null","5","Richard","1","Kept","0.2,0.65","9","0.2","trustrating_stim/white_00659_941121_fa_edt.bmp","2.5","71","14"
"html-keyboard-response","178","346050","0.0-19.0-3.13","63ead6f452e11793b2f8dab8","bdp_trlrn","Tue Mar 14 2023 18:24:29 GMT-0700 (Pacific Daylight Time)","650236","Untrustworthy,Trustworthy","","null","","","","feedback","","<div class='trialDiv'><img src='trustrating_stim/white_00659_941121_fa_edt.bmp'><br><font class='baseline'><strong>Richard</strong><p>Received: <strong>4</strong></font> &nbsp; &nbsp; &nbsp; &nbsp; &nbsp; &nbsp;<font class='negOutcome'>Shared back: <strong>0</strong></font></font><div class='respPicDiv'><img src='img/responseButtonOffersNo0_wht.png' class='respPic'></div></div>","null","5","Richard","1","Kept","0.2,0.65","9","0.2","trustrating_stim/white_00659_941121_fa_edt.bmp","2.5","71","14"
"html-keyboard-response","179","347160","0.0-19.0-1.14","63ead6f452e11793b2f8dab8","bdp_trlrn","Tue Mar 14 2023 18:24:29 GMT-0700 (Pacific Daylight Time)","650236","Untrustworthy,Trustworthy","","1108","","","","decision","","<div class='trialDiv'><img src='trustrating_stim/white_mw049.bmp'><br><font class='baseline'><strong>Evan</strong><p>Choose number of points to send.</font><div class='respPicDiv'><img src='img/responseButtonOffersNo0L.png' class='respPic'></div></div>","5","5","Evan","4","Kept","0.8,0.35","10","0.8","trustrating_stim/white_mw049.bmp","4","76","15"
"html-keyboard-response","180","347412","0.0-19.0-2.14","63ead6f452e11793b2f8dab8","bdp_trlrn","Tue Mar 14 2023 18:24:29 GMT-0700 (Pacific Daylight Time)","650236","Untrustworthy,Trustworthy","","null","","","","decisionFB","","<div class='trialDiv'><img src='trustrating_stim/white_mw049.bmp'><br><font class='baseline'><strong>Evan</strong><p>Choose number of points to send.</font><div class='respPicDiv'><img src='img/responseButtonOffersNo0L5.png' class='respPic'></div></div>","null","5","Evan","4","Kept","0.8,0.35","10","0.8","trustrating_stim/white_mw049.bmp","4","71","15"
"html-keyboard-response","181","348416","0.0-19.0-3.14","63ead6f452e11793b2f8dab8","bdp_trlrn","Tue Mar 14 2023 18:24:29 GMT-0700 (Pacific Daylight Time)","650236","Untrustworthy,Trustworthy","","null","","","","feedback","","<div class='trialDiv'><img src='trustrating_stim/white_mw049.bmp'><br><font class='baseline'><strong>Evan</strong><p>Received: <strong>20</strong></font> &nbsp; &nbsp; &nbsp; &nbsp; &nbsp; &nbsp;<font class='negOutcome'>Shared back: <strong>0</strong></font></font><div class='respPicDiv'><img src='img/responseButtonOffersNo0_wht.png' class='respPic'></div></div>","null","5","Evan","4","Kept","0.8,0.35","10","0.8","trustrating_stim/white_mw049.bmp","4","71","15"
"html-keyboard-response","182","350077","0.0-19.0-1.15","63ead6f452e11793b2f8dab8","bdp_trlrn","Tue Mar 14 2023 18:24:29 GMT-0700 (Pacific Daylight Time)","650236","Untrustworthy,Trustworthy","","1654","","","","decision","","<div class='trialDiv'><img src='trustrating_stim/white_00659_941121_fa_edt.bmp'><br><font class='baseline'><strong>Richard</strong><p>Choose number of points to send.</font><div class='respPicDiv'><img src='img/responseButtonOffersNo0L.png' class='respPic'></div></div>","1","6","Richard","1","Kept","0.2,0.65","9","0.2","trustrating_stim/white_00659_941121_fa_edt.bmp","2.5","76","16"
"html-keyboard-response","183","350331","0.0-19.0-2.15","63ead6f452e11793b2f8dab8","bdp_trlrn","Tue Mar 14 2023 18:24:29 GMT-0700 (Pacific Daylight Time)","650236","Untrustworthy,Trustworthy","","null","","","","decisionFB","","<div class='trialDiv'><img src='trustrating_stim/white_00659_941121_fa_edt.bmp'><br><font class='baseline'><strong>Richard</strong><p>Choose number of points to send.</font><div class='respPicDiv'><img src='img/responseButtonOffersNo0L1.png' class='respPic'></div></div>","null","6","Richard","1","Kept","0.2,0.65","9","0.2","trustrating_stim/white_00659_941121_fa_edt.bmp","2.5","75","16"
"html-keyboard-response","184","351335","0.0-19.0-3.15","63ead6f452e11793b2f8dab8","bdp_trlrn","Tue Mar 14 2023 18:24:29 GMT-0700 (Pacific Daylight Time)","650236","Untrustworthy,Trustworthy","","null","","","","feedback","","<div class='trialDiv'><img src='trustrating_stim/white_00659_941121_fa_edt.bmp'><br><font class='baseline'><strong>Richard</strong><p>Received: <strong>4</strong></font> &nbsp; &nbsp; &nbsp; &nbsp; &nbsp; &nbsp;<font class='negOutcome'>Shared back: <strong>0</strong></font></font><div class='respPicDiv'><img src='img/responseButtonOffersNo0_wht.png' class='respPic'></div></div>","null","6","Richard","1","Kept","0.2,0.65","9","0.2","trustrating_stim/white_00659_941121_fa_edt.bmp","2.5","75","16"
"html-keyboard-response","185","353473","0.0-19.0-1.16","63ead6f452e11793b2f8dab8","bdp_trlrn","Tue Mar 14 2023 18:24:29 GMT-0700 (Pacific Daylight Time)","650236","Untrustworthy,Trustworthy","","2135","","","","decision","","<div class='trialDiv'><img src='trustrating_stim/white_mw049.bmp'><br><font class='baseline'><strong>Evan</strong><p>Choose number of points to send.</font><div class='respPicDiv'><img src='img/responseButtonOffersNo0L.png' class='respPic'></div></div>","1","6","Evan","4","Shared","0.8,0.35","10","0.8","trustrating_stim/white_mw049.bmp","4","80","17"
"html-keyboard-response","186","353725","0.0-19.0-2.16","63ead6f452e11793b2f8dab8","bdp_trlrn","Tue Mar 14 2023 18:24:29 GMT-0700 (Pacific Daylight Time)","650236","Untrustworthy,Trustworthy","","null","","","","decisionFB","","<div class='trialDiv'><img src='trustrating_stim/white_mw049.bmp'><br><font class='baseline'><strong>Evan</strong><p>Choose number of points to send.</font><div class='respPicDiv'><img src='img/responseButtonOffersNo0L1.png' class='respPic'></div></div>","null","6","Evan","4","Shared","0.8,0.35","10","0.8","trustrating_stim/white_mw049.bmp","4","79","17"
"html-keyboard-response","187","354727","0.0-19.0-3.16","63ead6f452e11793b2f8dab8","bdp_trlrn","Tue Mar 14 2023 18:24:29 GMT-0700 (Pacific Daylight Time)","650236","Untrustworthy,Trustworthy","","null","","","","feedback","","<div class='trialDiv'><img src='trustrating_stim/white_mw049.bmp'><br><font class='baseline'><strong>Evan</strong><p>Received: <strong>4</strong></font> &nbsp; &nbsp; &nbsp; &nbsp; &nbsp; &nbsp;<font class='posOutcome'>Shared back: <strong>2</strong></font></font><div class='respPicDiv'><img src='img/responseButtonOffersNo0_wht.png' class='respPic'></div></div>","null","6","Evan","4","Shared","0.8,0.35","10","0.8","trustrating_stim/white_mw049.bmp","4","81","17"
"html-keyboard-response","188","356416","0.0-19.0-1.17","63ead6f452e11793b2f8dab8","bdp_trlrn","Tue Mar 14 2023 18:24:29 GMT-0700 (Pacific Daylight Time)","650236","Untrustworthy,Trustworthy","","1687","","","","decision","","<div class='trialDiv'><img src='trustrating_stim/white_00519_940519_fb_edt.bmp'><br><font class='baseline'><strong>Lucas</strong><p>Choose number of points to send.</font><div class='respPicDiv'><img src='img/responseButtonOffersNo0L.png' class='respPic'></div></div>","5","6","Lucas","10","Shared","0.65,0.35","10","0.65","trustrating_stim/white_00519_940519_fb_edt.bmp","5.5","86","18"
"html-keyboard-response","189","356668","0.0-19.0-2.17","63ead6f452e11793b2f8dab8","bdp_trlrn","Tue Mar 14 2023 18:24:29 GMT-0700 (Pacific Daylight Time)","650236","Untrustworthy,Trustworthy","","null","","","","decisionFB","","<div class='trialDiv'><img src='trustrating_stim/white_00519_940519_fb_edt.bmp'><br><font class='baseline'><strong>Lucas</strong><p>Choose number of points to send.</font><div class='respPicDiv'><img src='img/responseButtonOffersNo0L5.png' class='respPic'></div></div>","null","6","Lucas","10","Shared","0.65,0.35","10","0.65","trustrating_stim/white_00519_940519_fb_edt.bmp","5.5","81","18"
"html-keyboard-response","190","357670","0.0-19.0-3.17","63ead6f452e11793b2f8dab8","bdp_trlrn","Tue Mar 14 2023 18:24:29 GMT-0700 (Pacific Daylight Time)","650236","Untrustworthy,Trustworthy","","null","","","","feedback","","<div class='trialDiv'><img src='trustrating_stim/white_00519_940519_fb_edt.bmp'><br><font class='baseline'><strong>Lucas</strong><p>Received: <strong>20</strong></font> &nbsp; &nbsp; &nbsp; &nbsp; &nbsp; &nbsp;<font class='posOutcome'>Shared back: <strong>10</strong></font></font><div class='respPicDiv'><img src='img/responseButtonOffersNo0_wht.png' class='respPic'></div></div>","null","6","Lucas","10","Shared","0.65,0.35","10","0.65","trustrating_stim/white_00519_940519_fb_edt.bmp","5.5","91","18"
"html-keyboard-response","191","358977","0.0-19.0-1.18","63ead6f452e11793b2f8dab8","bdp_trlrn","Tue Mar 14 2023 18:24:29 GMT-0700 (Pacific Daylight Time)","650236","Untrustworthy,Trustworthy","","1305","","","","decision","","<div class='trialDiv'><img src='trustrating_stim/white_00659_941121_fa_edt.bmp'><br><font class='baseline'><strong>Richard</strong><p>Choose number of points to send.</font><div class='respPicDiv'><img src='img/responseButtonOffersNo0L.png' class='respPic'></div></div>","1","7","Richard","1","Kept","0.2,0.65","9","0.2","trustrating_stim/white_00659_941121_fa_edt.bmp","2.5","96","19"
"html-keyboard-response","192","359230","0.0-19.0-2.18","63ead6f452e11793b2f8dab8","bdp_trlrn","Tue Mar 14 2023 18:24:29 GMT-0700 (Pacific Daylight Time)","650236","Untrustworthy,Trustworthy","","null","","","","decisionFB","","<div class='trialDiv'><img src='trustrating_stim/white_00659_941121_fa_edt.bmp'><br><font class='baseline'><strong>Richard</strong><p>Choose number of points to send.</font><div class='respPicDiv'><img src='img/responseButtonOffersNo0L1.png' class='respPic'></div></div>","null","7","Richard","1","Kept","0.2,0.65","9","0.2","trustrating_stim/white_00659_941121_fa_edt.bmp","2.5","95","19"
"html-keyboard-response","193","360233","0.0-19.0-3.18","63ead6f452e11793b2f8dab8","bdp_trlrn","Tue Mar 14 2023 18:24:29 GMT-0700 (Pacific Daylight Time)","650236","Untrustworthy,Trustworthy","","null","","","","feedback","","<div class='trialDiv'><img src='trustrating_stim/white_00659_941121_fa_edt.bmp'><br><font class='baseline'><strong>Richard</strong><p>Received: <strong>4</strong></font> &nbsp; &nbsp; &nbsp; &nbsp; &nbsp; &nbsp;<font class='negOutcome'>Shared back: <strong>0</strong></font></font><div class='respPicDiv'><img src='img/responseButtonOffersNo0_wht.png' class='respPic'></div></div>","null","7","Richard","1","Kept","0.2,0.65","9","0.2","trustrating_stim/white_00659_941121_fa_edt.bmp","2.5","95","19"
"html-keyboard-response","194","361302","0.0-19.0-1.19","63ead6f452e11793b2f8dab8","bdp_trlrn","Tue Mar 14 2023 18:24:29 GMT-0700 (Pacific Daylight Time)","650236","Untrustworthy,Trustworthy","","1063","","","","decision","","<div class='trialDiv'><img src='trustrating_stim/white_00519_940519_fb_edt.bmp'><br><font class='baseline'><strong>Lucas</strong><p>Choose number of points to send.</font><div class='respPicDiv'><img src='img/responseButtonOffersNo0L.png' class='respPic'></div></div>","5","7","Lucas","10","Kept","0.65,0.35","10","0.65","trustrating_stim/white_00519_940519_fb_edt.bmp","5.5","100","20"
"html-keyboard-response","195","361556","0.0-19.0-2.19","63ead6f452e11793b2f8dab8","bdp_trlrn","Tue Mar 14 2023 18:24:29 GMT-0700 (Pacific Daylight Time)","650236","Untrustworthy,Trustworthy","","null","","","","decisionFB","","<div class='trialDiv'><img src='trustrating_stim/white_00519_940519_fb_edt.bmp'><br><font class='baseline'><strong>Lucas</strong><p>Choose number of points to send.</font><div class='respPicDiv'><img src='img/responseButtonOffersNo0L5.png' class='respPic'></div></div>","null","7","Lucas","10","Kept","0.65,0.35","10","0.65","trustrating_stim/white_00519_940519_fb_edt.bmp","5.5","95","20"
"html-keyboard-response","196","362558","0.0-19.0-3.19","63ead6f452e11793b2f8dab8","bdp_trlrn","Tue Mar 14 2023 18:24:29 GMT-0700 (Pacific Daylight Time)","650236","Untrustworthy,Trustworthy","","null","","","","feedback","","<div class='trialDiv'><img src='trustrating_stim/white_00519_940519_fb_edt.bmp'><br><font class='baseline'><strong>Lucas</strong><p>Received: <strong>20</strong></font> &nbsp; &nbsp; &nbsp; &nbsp; &nbsp; &nbsp;<font class='negOutcome'>Shared back: <strong>0</strong></font></font><div class='respPicDiv'><img src='img/responseButtonOffersNo0_wht.png' class='respPic'></div></div>","null","7","Lucas","10","Kept","0.65,0.35","10","0.65","trustrating_stim/white_00519_940519_fb_edt.bmp","5.5","95","20"
"html-keyboard-response","197","363584","0.0-19.0-1.20","63ead6f452e11793b2f8dab8","bdp_trlrn","Tue Mar 14 2023 18:24:29 GMT-0700 (Pacific Daylight Time)","650236","Untrustworthy,Trustworthy","","1023","","","","decision","","<div class='trialDiv'><img src='trustrating_stim/white_mw049.bmp'><br><font class='baseline'><strong>Evan</strong><p>Choose number of points to send.</font><div class='respPicDiv'><img src='img/responseButtonOffersNo0L.png' class='respPic'></div></div>","5","7","Evan","4","Kept","0.8,0.35","10","0.8","trustrating_stim/white_mw049.bmp","4","100","21"
"html-keyboard-response","198","363835","0.0-19.0-2.20","63ead6f452e11793b2f8dab8","bdp_trlrn","Tue Mar 14 2023 18:24:29 GMT-0700 (Pacific Daylight Time)","650236","Untrustworthy,Trustworthy","","null","","","","decisionFB","","<div class='trialDiv'><img src='trustrating_stim/white_mw049.bmp'><br><font class='baseline'><strong>Evan</strong><p>Choose number of points to send.</font><div class='respPicDiv'><img src='img/responseButtonOffersNo0L5.png' class='respPic'></div></div>","null","7","Evan","4","Kept","0.8,0.35","10","0.8","trustrating_stim/white_mw049.bmp","4","95","21"
"html-keyboard-response","199","364841","0.0-19.0-3.20","63ead6f452e11793b2f8dab8","bdp_trlrn","Tue Mar 14 2023 18:24:29 GMT-0700 (Pacific Daylight Time)","650236","Untrustworthy,Trustworthy","","null","","","","feedback","","<div class='trialDiv'><img src='trustrating_stim/white_mw049.bmp'><br><font class='baseline'><strong>Evan</strong><p>Received: <strong>20</strong></font> &nbsp; &nbsp; &nbsp; &nbsp; &nbsp; &nbsp;<font class='negOutcome'>Shared back: <strong>0</strong></font></font><div class='respPicDiv'><img src='img/responseButtonOffersNo0_wht.png' class='respPic'></div></div>","null","7","Evan","4","Kept","0.8,0.35","10","0.8","trustrating_stim/white_mw049.bmp","4","95","21"
"html-keyboard-response","200","365748","0.0-19.0-1.21","63ead6f452e11793b2f8dab8","bdp_trlrn","Tue Mar 14 2023 18:24:29 GMT-0700 (Pacific Daylight Time)","650236","Untrustworthy,Trustworthy","","903","","","","decision","","<div class='trialDiv'><img src='trustrating_stim/white_00519_940519_fb_edt.bmp'><br><font class='baseline'><strong>Lucas</strong><p>Choose number of points to send.</font><div class='respPicDiv'><img src='img/responseButtonOffersNo0L.png' class='respPic'></div></div>","5","8","Lucas","10","Kept","0.65,0.35","10","0.65","trustrating_stim/white_00519_940519_fb_edt.bmp","5.5","100","22"
"html-keyboard-response","201","365999","0.0-19.0-2.21","63ead6f452e11793b2f8dab8","bdp_trlrn","Tue Mar 14 2023 18:24:29 GMT-0700 (Pacific Daylight Time)","650236","Untrustworthy,Trustworthy","","null","","","","decisionFB","","<div class='trialDiv'><img src='trustrating_stim/white_00519_940519_fb_edt.bmp'><br><font class='baseline'><strong>Lucas</strong><p>Choose number of points to send.</font><div class='respPicDiv'><img src='img/responseButtonOffersNo0L5.png' class='respPic'></div></div>","null","8","Lucas","10","Kept","0.65,0.35","10","0.65","trustrating_stim/white_00519_940519_fb_edt.bmp","5.5","95","22"
"html-keyboard-response","202","367003","0.0-19.0-3.21","63ead6f452e11793b2f8dab8","bdp_trlrn","Tue Mar 14 2023 18:24:29 GMT-0700 (Pacific Daylight Time)","650236","Untrustworthy,Trustworthy","","null","","","","feedback","","<div class='trialDiv'><img src='trustrating_stim/white_00519_940519_fb_edt.bmp'><br><font class='baseline'><strong>Lucas</strong><p>Received: <strong>20</strong></font> &nbsp; &nbsp; &nbsp; &nbsp; &nbsp; &nbsp;<font class='negOutcome'>Shared back: <strong>0</strong></font></font><div class='respPicDiv'><img src='img/responseButtonOffersNo0_wht.png' class='respPic'></div></div>","null","8","Lucas","10","Kept","0.65,0.35","10","0.65","trustrating_stim/white_00519_940519_fb_edt.bmp","5.5","95","22"
"html-keyboard-response","203","367751","0.0-19.0-1.22","63ead6f452e11793b2f8dab8","bdp_trlrn","Tue Mar 14 2023 18:24:29 GMT-0700 (Pacific Daylight Time)","650236","Untrustworthy,Trustworthy","","746","","","","decision","","<div class='trialDiv'><img src='trustrating_stim/white_mw049.bmp'><br><font class='baseline'><strong>Evan</strong><p>Choose number of points to send.</font><div class='respPicDiv'><img src='img/responseButtonOffersNo0L.png' class='respPic'></div></div>","5","8","Evan","4","Shared","0.8,0.35","10","0.8","trustrating_stim/white_mw049.bmp","4","100","23"
"html-keyboard-response","204","368002","0.0-19.0-2.22","63ead6f452e11793b2f8dab8","bdp_trlrn","Tue Mar 14 2023 18:24:29 GMT-0700 (Pacific Daylight Time)","650236","Untrustworthy,Trustworthy","","null","","","","decisionFB","","<div class='trialDiv'><img src='trustrating_stim/white_mw049.bmp'><br><font class='baseline'><strong>Evan</strong><p>Choose number of points to send.</font><div class='respPicDiv'><img src='img/responseButtonOffersNo0L5.png' class='respPic'></div></div>","null","8","Evan","4","Shared","0.8,0.35","10","0.8","trustrating_stim/white_mw049.bmp","4","95","23"
"html-keyboard-response","205","369005","0.0-19.0-3.22","63ead6f452e11793b2f8dab8","bdp_trlrn","Tue Mar 14 2023 18:24:29 GMT-0700 (Pacific Daylight Time)","650236","Untrustworthy,Trustworthy","","null","","","","feedback","","<div class='trialDiv'><img src='trustrating_stim/white_mw049.bmp'><br><font class='baseline'><strong>Evan</strong><p>Received: <strong>20</strong></font> &nbsp; &nbsp; &nbsp; &nbsp; &nbsp; &nbsp;<font class='posOutcome'>Shared back: <strong>10</strong></font></font><div class='respPicDiv'><img src='img/responseButtonOffersNo0_wht.png' class='respPic'></div></div>","null","8","Evan","4","Shared","0.8,0.35","10","0.8","trustrating_stim/white_mw049.bmp","4","105","23"
"html-keyboard-response","206","370341","0.0-19.0-1.23","63ead6f452e11793b2f8dab8","bdp_trlrn","Tue Mar 14 2023 18:24:29 GMT-0700 (Pacific Daylight Time)","650236","Untrustworthy,Trustworthy","","1335","","","","decision","","<div class='trialDiv'><img src='trustrating_stim/white_00659_941121_fa_edt.bmp'><br><font class='baseline'><strong>Richard</strong><p>Choose number of points to send.</font><div class='respPicDiv'><img src='img/responseButtonOffersNo0L.png' class='respPic'></div></div>","1","8","Richard","1","Shared","0.2,0.65","9","0.2","trustrating_stim/white_00659_941121_fa_edt.bmp","2.5","110","24"
"html-keyboard-response","207","370595","0.0-19.0-2.23","63ead6f452e11793b2f8dab8","bdp_trlrn","Tue Mar 14 2023 18:24:29 GMT-0700 (Pacific Daylight Time)","650236","Untrustworthy,Trustworthy","","null","","","","decisionFB","","<div class='trialDiv'><img src='trustrating_stim/white_00659_941121_fa_edt.bmp'><br><font class='baseline'><strong>Richard</strong><p>Choose number of points to send.</font><div class='respPicDiv'><img src='img/responseButtonOffersNo0L1.png' class='respPic'></div></div>","null","8","Richard","1","Shared","0.2,0.65","9","0.2","trustrating_stim/white_00659_941121_fa_edt.bmp","2.5","109","24"
"html-keyboard-response","208","371598","0.0-19.0-3.23","63ead6f452e11793b2f8dab8","bdp_trlrn","Tue Mar 14 2023 18:24:29 GMT-0700 (Pacific Daylight Time)","650236","Untrustworthy,Trustworthy","","null","","","","feedback","","<div class='trialDiv'><img src='trustrating_stim/white_00659_941121_fa_edt.bmp'><br><font class='baseline'><strong>Richard</strong><p>Received: <strong>4</strong></font> &nbsp; &nbsp; &nbsp; &nbsp; &nbsp; &nbsp;<font class='posOutcome'>Shared back: <strong>2</strong></font></font><div class='respPicDiv'><img src='img/responseButtonOffersNo0_wht.png' class='respPic'></div></div>","null","8","Richard","1","Shared","0.2,0.65","9","0.2","trustrating_stim/white_00659_941121_fa_edt.bmp","2.5","111","24"
"html-keyboard-response","209","373718","0.0-19.0-1.24","63ead6f452e11793b2f8dab8","bdp_trlrn","Tue Mar 14 2023 18:24:29 GMT-0700 (Pacific Daylight Time)","650236","Untrustworthy,Trustworthy","","2117","","","","decision","","<div class='trialDiv'><img src='trustrating_stim/white_mw049.bmp'><br><font class='baseline'><strong>Evan</strong><p>Choose number of points to send.</font><div class='respPicDiv'><img src='img/responseButtonOffersNo0L.png' class='respPic'></div></div>","5","9","Evan","4","Shared","0.8,0.35","10","0.8","trustrating_stim/white_mw049.bmp","4","116","25"
"html-keyboard-response","210","373970","0.0-19.0-2.24","63ead6f452e11793b2f8dab8","bdp_trlrn","Tue Mar 14 2023 18:24:29 GMT-0700 (Pacific Daylight Time)","650236","Untrustworthy,Trustworthy","","null","","","","decisionFB","","<div class='trialDiv'><img src='trustrating_stim/white_mw049.bmp'><br><font class='baseline'><strong>Evan</strong><p>Choose number of points to send.</font><div class='respPicDiv'><img src='img/responseButtonOffersNo0L5.png' class='respPic'></div></div>","null","9","Evan","4","Shared","0.8,0.35","10","0.8","trustrating_stim/white_mw049.bmp","4","111","25"
"html-keyboard-response","211","374974","0.0-19.0-3.24","63ead6f452e11793b2f8dab8","bdp_trlrn","Tue Mar 14 2023 18:24:29 GMT-0700 (Pacific Daylight Time)","650236","Untrustworthy,Trustworthy","","null","","","","feedback","","<div class='trialDiv'><img src='trustrating_stim/white_mw049.bmp'><br><font class='baseline'><strong>Evan</strong><p>Received: <strong>20</strong></font> &nbsp; &nbsp; &nbsp; &nbsp; &nbsp; &nbsp;<font class='posOutcome'>Shared back: <strong>10</strong></font></font><div class='respPicDiv'><img src='img/responseButtonOffersNo0_wht.png' class='respPic'></div></div>","null","9","Evan","4","Shared","0.8,0.35","10","0.8","trustrating_stim/white_mw049.bmp","4","121","25"
"html-keyboard-response","212","376114","0.0-19.0-1.25","63ead6f452e11793b2f8dab8","bdp_trlrn","Tue Mar 14 2023 18:24:29 GMT-0700 (Pacific Daylight Time)","650236","Untrustworthy,Trustworthy","","1137","","","","decision","","<div class='trialDiv'><img src='trustrating_stim/white_00659_941121_fa_edt.bmp'><br><font class='baseline'><strong>Richard</strong><p>Choose number of points to send.</font><div class='respPicDiv'><img src='img/responseButtonOffersNo0L.png' class='respPic'></div></div>","1","9","Richard","1","Shared","0.2,0.65","9","0.2","trustrating_stim/white_00659_941121_fa_edt.bmp","2.5","126","26"
"html-keyboard-response","213","376365","0.0-19.0-2.25","63ead6f452e11793b2f8dab8","bdp_trlrn","Tue Mar 14 2023 18:24:29 GMT-0700 (Pacific Daylight Time)","650236","Untrustworthy,Trustworthy","","null","","","","decisionFB","","<div class='trialDiv'><img src='trustrating_stim/white_00659_941121_fa_edt.bmp'><br><font class='baseline'><strong>Richard</strong><p>Choose number of points to send.</font><div class='respPicDiv'><img src='img/responseButtonOffersNo0L1.png' class='respPic'></div></div>","null","9","Richard","1","Shared","0.2,0.65","9","0.2","trustrating_stim/white_00659_941121_fa_edt.bmp","2.5","125","26"
"html-keyboard-response","214","377369","0.0-19.0-3.25","63ead6f452e11793b2f8dab8","bdp_trlrn","Tue Mar 14 2023 18:24:29 GMT-0700 (Pacific Daylight Time)","650236","Untrustworthy,Trustworthy","","null","","","","feedback","","<div class='trialDiv'><img src='trustrating_stim/white_00659_941121_fa_edt.bmp'><br><font class='baseline'><strong>Richard</strong><p>Received: <strong>4</strong></font> &nbsp; &nbsp; &nbsp; &nbsp; &nbsp; &nbsp;<font class='posOutcome'>Shared back: <strong>2</strong></font></font><div class='respPicDiv'><img src='img/responseButtonOffersNo0_wht.png' class='respPic'></div></div>","null","9","Richard","1","Shared","0.2,0.65","9","0.2","trustrating_stim/white_00659_941121_fa_edt.bmp","2.5","127","26"
"html-keyboard-response","215","378263","0.0-19.0-1.26","63ead6f452e11793b2f8dab8","bdp_trlrn","Tue Mar 14 2023 18:24:29 GMT-0700 (Pacific Daylight Time)","650236","Untrustworthy,Trustworthy","","891","","","","decision","","<div class='trialDiv'><img src='trustrating_stim/white_00519_940519_fb_edt.bmp'><br><font class='baseline'><strong>Lucas</strong><p>Choose number of points to send.</font><div class='respPicDiv'><img src='img/responseButtonOffersNo0L.png' class='respPic'></div></div>","5","9","Lucas","10","Shared","0.65,0.35","10","0.65","trustrating_stim/white_00519_940519_fb_edt.bmp","5.5","132","27"
"html-keyboard-response","216","378515","0.0-19.0-2.26","63ead6f452e11793b2f8dab8","bdp_trlrn","Tue Mar 14 2023 18:24:29 GMT-0700 (Pacific Daylight Time)","650236","Untrustworthy,Trustworthy","","null","","","","decisionFB","","<div class='trialDiv'><img src='trustrating_stim/white_00519_940519_fb_edt.bmp'><br><font class='baseline'><strong>Lucas</strong><p>Choose number of points to send.</font><div class='respPicDiv'><img src='img/responseButtonOffersNo0L5.png' class='respPic'></div></div>","null","9","Lucas","10","Shared","0.65,0.35","10","0.65","trustrating_stim/white_00519_940519_fb_edt.bmp","5.5","127","27"
"html-keyboard-response","217","379519","0.0-19.0-3.26","63ead6f452e11793b2f8dab8","bdp_trlrn","Tue Mar 14 2023 18:24:29 GMT-0700 (Pacific Daylight Time)","650236","Untrustworthy,Trustworthy","","null","","","","feedback","","<div class='trialDiv'><img src='trustrating_stim/white_00519_940519_fb_edt.bmp'><br><font class='baseline'><strong>Lucas</strong><p>Received: <strong>20</strong></font> &nbsp; &nbsp; &nbsp; &nbsp; &nbsp; &nbsp;<font class='posOutcome'>Shared back: <strong>10</strong></font></font><div class='respPicDiv'><img src='img/responseButtonOffersNo0_wht.png' class='respPic'></div></div>","null","9","Lucas","10","Shared","0.65,0.35","10","0.65","trustrating_stim/white_00519_940519_fb_edt.bmp","5.5","137","27"
"html-keyboard-response","218","381060","0.0-19.0-1.27","63ead6f452e11793b2f8dab8","bdp_trlrn","Tue Mar 14 2023 18:24:29 GMT-0700 (Pacific Daylight Time)","650236","Untrustworthy,Trustworthy","","1538","","","","decision","","<div class='trialDiv'><img src='trustrating_stim/white_00659_941121_fa_edt.bmp'><br><font class='baseline'><strong>Richard</strong><p>Choose number of points to send.</font><div class='respPicDiv'><img src='img/responseButtonOffersNo0L.png' class='respPic'></div></div>","1","10","Richard","1","Kept","0.2,0.65","9","0.2","trustrating_stim/white_00659_941121_fa_edt.bmp","2.5","142","28"
"html-keyboard-response","219","381314","0.0-19.0-2.27","63ead6f452e11793b2f8dab8","bdp_trlrn","Tue Mar 14 2023 18:24:29 GMT-0700 (Pacific Daylight Time)","650236","Untrustworthy,Trustworthy","","null","","","","decisionFB","","<div class='trialDiv'><img src='trustrating_stim/white_00659_941121_fa_edt.bmp'><br><font class='baseline'><strong>Richard</strong><p>Choose number of points to send.</font><div class='respPicDiv'><img src='img/responseButtonOffersNo0L1.png' class='respPic'></div></div>","null","10","Richard","1","Kept","0.2,0.65","9","0.2","trustrating_stim/white_00659_941121_fa_edt.bmp","2.5","141","28"
