"trial_type","trial_index","time_elapsed","internal_node_id","subject_id","task","startTime","totalTime","labels","view_history","rt","event","trial","time","trialtype","success","stimulus","key_press","numBlurs","aground","name","faceID","outcome","agenttype","agentswpt","agentcurrpshare","face","avgRating","point_total","round"
"pavlovia","0","2","0.0-0.0","63d1834e69a637cd32f16634","bdp_trlrn","Wed Mar 15 2023 23:30:10 GMT-0400 (Eastern Daylight Time)","3050074","Trustworthy,Untrustworthy","","","","","","","","","","","","","","","","","","","","",""
"instructions","1","4392","0.0-1.0","63d1834e69a637cd32f16634","bdp_trlrn","Wed Mar 15 2023 23:30:10 GMT-0400 (Eastern Daylight Time)","3050074","Trustworthy,Untrustworthy","[{""page_index"":0,""viewing_time"":4390}]","4390","","","","","","","","","","","","","","","","","","",""
"","","","","63d1834e69a637cd32f16634","bdp_trlrn","Wed Mar 15 2023 23:30:10 GMT-0400 (Eastern Daylight Time)","3050074","Trustworthy,Untrustworthy","","","fullscreenenter","2","16881","fullscreenenter","","","","","","","","","","","","","","",""
"fullscreen","2","17879","0.0-2.0","63d1834e69a637cd32f16634","bdp_trlrn","Wed Mar 15 2023 23:30:10 GMT-0400 (Eastern Daylight Time)","3050074","Trustworthy,Untrustworthy","","","","","","","true","","","","","","","","","","","","","",""
"instructions","3","32361","0.0-4.0","63d1834e69a637cd32f16634","bdp_trlrn","Wed Mar 15 2023 23:30:10 GMT-0400 (Eastern Daylight Time)","3050074","Trustworthy,Untrustworthy","[{""page_index"":0,""viewing_time"":8973},{""page_index"":1,""viewing_time"":5508}]","14481","","","","","","","","","","","","","","","","","","",""
"instructions","4","33587","0.0-5.0","63d1834e69a637cd32f16634","bdp_trlrn","Wed Mar 15 2023 23:30:10 GMT-0400 (Eastern Daylight Time)","3050074","Trustworthy,Untrustworthy","[{""page_index"":0,""viewing_time"":1226}]","1226","","","","","","","","","","","","","","","","","","",""
"image-keyboard-response","5","36588","0.0-6.0-1.0","63d1834e69a637cd32f16634","bdp_trlrn","Wed Mar 15 2023 23:30:10 GMT-0400 (Eastern Daylight Time)","3050074","Trustworthy,Untrustworthy","","2896","","","","rating","","trustrating_stim/white_00109_931230_fa_edt.bmp","9","","","","","","","","","","","",""
"image-keyboard-response","6","36800","0.0-6.0-2.0","63d1834e69a637cd32f16634","bdp_trlrn","Wed Mar 15 2023 23:30:10 GMT-0400 (Eastern Daylight Time)","3050074","Trustworthy,Untrustworthy","","null","","","","ratingFB","","trustrating_stim/white_00109_931230_fa_edt.bmp","null","","","","","","","","","","","",""
"image-keyboard-response","7","41013","0.0-6.0-1.1","63d1834e69a637cd32f16634","bdp_trlrn","Wed Mar 15 2023 23:30:10 GMT-0400 (Eastern Daylight Time)","3050074","Trustworthy,Untrustworthy","","4105","","","","rating","","trustrating_stim/white_00129_931230_fb_edt.bmp","7","","","","","","","","","","","",""
"image-keyboard-response","8","41217","0.0-6.0-2.1","63d1834e69a637cd32f16634","bdp_trlrn","Wed Mar 15 2023 23:30:10 GMT-0400 (Eastern Daylight Time)","3050074","Trustworthy,Untrustworthy","","null","","","","ratingFB","","trustrating_stim/white_00129_931230_fb_edt.bmp","null","","","","","","","","","","","",""
"image-keyboard-response","9","42910","0.0-6.0-1.2","63d1834e69a637cd32f16634","bdp_trlrn","Wed Mar 15 2023 23:30:10 GMT-0400 (Eastern Daylight Time)","3050074","Trustworthy,Untrustworthy","","1587","","","","rating","","trustrating_stim/white_00761_941201_fb_edt.bmp","6","","","","","","","","","","","",""
"image-keyboard-response","10","43124","0.0-6.0-2.2","63d1834e69a637cd32f16634","bdp_trlrn","Wed Mar 15 2023 23:30:10 GMT-0400 (Eastern Daylight Time)","3050074","Trustworthy,Untrustworthy","","null","","","","ratingFB","","trustrating_stim/white_00761_941201_fb_edt.bmp","null","","","","","","","","","","","",""
"image-keyboard-response","11","45056","0.0-6.0-1.3","63d1834e69a637cd32f16634","bdp_trlrn","Wed Mar 15 2023 23:30:10 GMT-0400 (Eastern Daylight Time)","3050074","Trustworthy,Untrustworthy","","1817","","","","rating","","trustrating_stim/white_mw066.bmp","6","","","","","","","","","","","",""
"image-keyboard-response","12","45267","0.0-6.0-2.3","63d1834e69a637cd32f16634","bdp_trlrn","Wed Mar 15 2023 23:30:10 GMT-0400 (Eastern Daylight Time)","3050074","Trustworthy,Untrustworthy","","null","","","","ratingFB","","trustrating_stim/white_mw066.bmp","null","","","","","","","","","","","",""
"image-keyboard-response","13","46930","0.0-6.0-1.4","63d1834e69a637cd32f16634","bdp_trlrn","Wed Mar 15 2023 23:30:10 GMT-0400 (Eastern Daylight Time)","3050074","Trustworthy,Untrustworthy","","1556","","","","rating","","trustrating_stim/white_00519_940519_fb_edt.bmp","5","","","","","","","","","","","",""
"image-keyboard-response","14","47133","0.0-6.0-2.4","63d1834e69a637cd32f16634","bdp_trlrn","Wed Mar 15 2023 23:30:10 GMT-0400 (Eastern Daylight Time)","3050074","Trustworthy,Untrustworthy","","null","","","","ratingFB","","trustrating_stim/white_00519_940519_fb_edt.bmp","null","","","","","","","","","","","",""
"image-keyboard-response","15","48518","0.0-6.0-1.5","63d1834e69a637cd32f16634","bdp_trlrn","Wed Mar 15 2023 23:30:10 GMT-0400 (Eastern Daylight Time)","3050074","Trustworthy,Untrustworthy","","1278","","","","rating","","trustrating_stim/white_00659_941121_fa_edt.bmp","4","","","","","","","","","","","",""
"image-keyboard-response","16","48728","0.0-6.0-2.5","63d1834e69a637cd32f16634","bdp_trlrn","Wed Mar 15 2023 23:30:10 GMT-0400 (Eastern Daylight Time)","3050074","Trustworthy,Untrustworthy","","null","","","","ratingFB","","trustrating_stim/white_00659_941121_fa_edt.bmp","null","","","","","","","","","","","",""
"image-keyboard-response","17","50289","0.0-6.0-1.6","63d1834e69a637cd32f16634","bdp_trlrn","Wed Mar 15 2023 23:30:10 GMT-0400 (Eastern Daylight Time)","3050074","Trustworthy,Untrustworthy","","1449","","","","rating","","trustrating_stim/white_mw053.bmp","5","","","","","","","","","","","",""
"image-keyboard-response","18","50491","0.0-6.0-2.6","63d1834e69a637cd32f16634","bdp_trlrn","Wed Mar 15 2023 23:30:10 GMT-0400 (Eastern Daylight Time)","3050074","Trustworthy,Untrustworthy","","null","","","","ratingFB","","trustrating_stim/white_mw053.bmp","null","","","","","","","","","","","",""
"image-keyboard-response","19","51673","0.0-6.0-1.7","63d1834e69a637cd32f16634","bdp_trlrn","Wed Mar 15 2023 23:30:10 GMT-0400 (Eastern Daylight Time)","3050074","Trustworthy,Untrustworthy","","1081","","","","rating","","trustrating_stim/white_mw048.bmp","3","","","","","","","","","","","",""
"image-keyboard-response","20","51882","0.0-6.0-2.7","63d1834e69a637cd32f16634","bdp_trlrn","Wed Mar 15 2023 23:30:10 GMT-0400 (Eastern Daylight Time)","3050074","Trustworthy,Untrustworthy","","null","","","","ratingFB","","trustrating_stim/white_mw048.bmp","null","","","","","","","","","","","",""
"image-keyboard-response","21","54603","0.0-6.0-1.8","63d1834e69a637cd32f16634","bdp_trlrn","Wed Mar 15 2023 23:30:10 GMT-0400 (Eastern Daylight Time)","3050074","Trustworthy,Untrustworthy","","2612","","","","rating","","trustrating_stim/white_mw089.bmp","4","","","","","","","","","","","",""
"image-keyboard-response","22","54815","0.0-6.0-2.8","63d1834e69a637cd32f16634","bdp_trlrn","Wed Mar 15 2023 23:30:10 GMT-0400 (Eastern Daylight Time)","3050074","Trustworthy,Untrustworthy","","null","","","","ratingFB","","trustrating_stim/white_mw089.bmp","null","","","","","","","","","","","",""
"image-keyboard-response","23","55801","0.0-6.0-1.9","63d1834e69a637cd32f16634","bdp_trlrn","Wed Mar 15 2023 23:30:10 GMT-0400 (Eastern Daylight Time)","3050074","Trustworthy,Untrustworthy","","877","","","","rating","","trustrating_stim/white_00223_940128_fb_edt.bmp","3","","","","","","","","","","","",""
"image-keyboard-response","24","56015","0.0-6.0-2.9","63d1834e69a637cd32f16634","bdp_trlrn","Wed Mar 15 2023 23:30:10 GMT-0400 (Eastern Daylight Time)","3050074","Trustworthy,Untrustworthy","","null","","","","ratingFB","","trustrating_stim/white_00223_940128_fb_edt.bmp","null","","","","","","","","","","","",""
"image-keyboard-response","25","56957","0.0-6.0-1.10","63d1834e69a637cd32f16634","bdp_trlrn","Wed Mar 15 2023 23:30:10 GMT-0400 (Eastern Daylight Time)","3050074","Trustworthy,Untrustworthy","","834","","","","rating","","trustrating_stim/white_mw033.bmp","4","","","","","","","","","","","",""
"image-keyboard-response","26","57167","0.0-6.0-2.10","63d1834e69a637cd32f16634","bdp_trlrn","Wed Mar 15 2023 23:30:10 GMT-0400 (Eastern Daylight Time)","3050074","Trustworthy,Untrustworthy","","null","","","","ratingFB","","trustrating_stim/white_mw033.bmp","null","","","","","","","","","","","",""
"image-keyboard-response","27","58288","0.0-6.0-1.11","63d1834e69a637cd32f16634","bdp_trlrn","Wed Mar 15 2023 23:30:10 GMT-0400 (Eastern Daylight Time)","3050074","Trustworthy,Untrustworthy","","1014","","","","rating","","trustrating_stim/white_00340_940422_fa_edt.bmp","5","","","","","","","","","","","",""
"image-keyboard-response","28","58499","0.0-6.0-2.11","63d1834e69a637cd32f16634","bdp_trlrn","Wed Mar 15 2023 23:30:10 GMT-0400 (Eastern Daylight Time)","3050074","Trustworthy,Untrustworthy","","null","","","","ratingFB","","trustrating_stim/white_00340_940422_fa_edt.bmp","null","","","","","","","","","","","",""
"image-keyboard-response","29","59975","0.0-6.0-1.12","63d1834e69a637cd32f16634","bdp_trlrn","Wed Mar 15 2023 23:30:10 GMT-0400 (Eastern Daylight Time)","3050074","Trustworthy,Untrustworthy","","1368","","","","rating","","trustrating_stim/white_mw097.bmp","3","","","","","","","","","","","",""
"image-keyboard-response","30","60186","0.0-6.0-2.12","63d1834e69a637cd32f16634","bdp_trlrn","Wed Mar 15 2023 23:30:10 GMT-0400 (Eastern Daylight Time)","3050074","Trustworthy,Untrustworthy","","null","","","","ratingFB","","trustrating_stim/white_mw097.bmp","null","","","","","","","","","","","",""
"image-keyboard-response","31","62222","0.0-6.0-1.13","63d1834e69a637cd32f16634","bdp_trlrn","Wed Mar 15 2023 23:30:10 GMT-0400 (Eastern Daylight Time)","3050074","Trustworthy,Untrustworthy","","1932","","","","rating","","trustrating_stim/white_00602_940928_fb_edt.bmp","6","","","","","","","","","","","",""
"image-keyboard-response","32","62432","0.0-6.0-2.13","63d1834e69a637cd32f16634","bdp_trlrn","Wed Mar 15 2023 23:30:10 GMT-0400 (Eastern Daylight Time)","3050074","Trustworthy,Untrustworthy","","null","","","","ratingFB","","trustrating_stim/white_00602_940928_fb_edt.bmp","null","","","","","","","","","","","",""
"","","","","63d1834e69a637cd32f16634","bdp_trlrn","Wed Mar 15 2023 23:30:10 GMT-0400 (Eastern Daylight Time)","3050074","Trustworthy,Untrustworthy","","","fullscreenexit","33","63681","fullscreenexit","","","","","","","","","","","","","","",""
"image-keyboard-response","33","70455","0.0-6.0-1.14","63d1834e69a637cd32f16634","bdp_trlrn","Wed Mar 15 2023 23:30:10 GMT-0400 (Eastern Daylight Time)","3050074","Trustworthy,Untrustworthy","","7915","","","","rating","","trustrating_stim/white_mw056.bmp","6","","","","","","","","","","","",""
"image-keyboard-response","34","70671","0.0-6.0-2.14","63d1834e69a637cd32f16634","bdp_trlrn","Wed Mar 15 2023 23:30:10 GMT-0400 (Eastern Daylight Time)","3050074","Trustworthy,Untrustworthy","","null","","","","ratingFB","","trustrating_stim/white_mw056.bmp","null","","","","","","","","","","","",""
"image-keyboard-response","35","72514","0.0-6.0-1.15","63d1834e69a637cd32f16634","bdp_trlrn","Wed Mar 15 2023 23:30:10 GMT-0400 (Eastern Daylight Time)","3050074","Trustworthy,Untrustworthy","","1725","","","","rating","","trustrating_stim/white_mw071.bmp","2","","","","","","","","","","","",""
"image-keyboard-response","36","72716","0.0-6.0-2.15","63d1834e69a637cd32f16634","bdp_trlrn","Wed Mar 15 2023 23:30:10 GMT-0400 (Eastern Daylight Time)","3050074","Trustworthy,Untrustworthy","","null","","","","ratingFB","","trustrating_stim/white_mw071.bmp","null","","","","","","","","","","","",""
"image-keyboard-response","37","74580","0.0-6.0-1.16","63d1834e69a637cd32f16634","bdp_trlrn","Wed Mar 15 2023 23:30:10 GMT-0400 (Eastern Daylight Time)","3050074","Trustworthy,Untrustworthy","","1758","","","","rating","","trustrating_stim/white_00577_940928_fa_edt.bmp","3","","","","","","","","","","","",""
"image-keyboard-response","38","74789","0.0-6.0-2.16","63d1834e69a637cd32f16634","bdp_trlrn","Wed Mar 15 2023 23:30:10 GMT-0400 (Eastern Daylight Time)","3050074","Trustworthy,Untrustworthy","","null","","","","ratingFB","","trustrating_stim/white_00577_940928_fa_edt.bmp","null","","","","","","","","","","","",""
"image-keyboard-response","39","76594","0.0-6.0-1.17","63d1834e69a637cd32f16634","bdp_trlrn","Wed Mar 15 2023 23:30:10 GMT-0400 (Eastern Daylight Time)","3050074","Trustworthy,Untrustworthy","","1688","","","","rating","","trustrating_stim/white_00757_941201_fa_edt.bmp","1","","","","","","","","","","","",""
"image-keyboard-response","40","76800","0.0-6.0-2.17","63d1834e69a637cd32f16634","bdp_trlrn","Wed Mar 15 2023 23:30:10 GMT-0400 (Eastern Daylight Time)","3050074","Trustworthy,Untrustworthy","","null","","","","ratingFB","","trustrating_stim/white_00757_941201_fa_edt.bmp","null","","","","","","","","","","","",""
"image-keyboard-response","41","78225","0.0-6.0-1.18","63d1834e69a637cd32f16634","bdp_trlrn","Wed Mar 15 2023 23:30:10 GMT-0400 (Eastern Daylight Time)","3050074","Trustworthy,Untrustworthy","","1319","","","","rating","","trustrating_stim/white_mw049.bmp","6","","","","","","","","","","","",""
"image-keyboard-response","42","78433","0.0-6.0-2.18","63d1834e69a637cd32f16634","bdp_trlrn","Wed Mar 15 2023 23:30:10 GMT-0400 (Eastern Daylight Time)","3050074","Trustworthy,Untrustworthy","","null","","","","ratingFB","","trustrating_stim/white_mw049.bmp","null","","","","","","","","","","","",""
"image-keyboard-response","43","79889","0.0-6.0-1.19","63d1834e69a637cd32f16634","bdp_trlrn","Wed Mar 15 2023 23:30:10 GMT-0400 (Eastern Daylight Time)","3050074","Trustworthy,Untrustworthy","","1346","","","","rating","","trustrating_stim/white_mw060.bmp","1","","","","","","","","","","","",""
"image-keyboard-response","44","80098","0.0-6.0-2.19","63d1834e69a637cd32f16634","bdp_trlrn","Wed Mar 15 2023 23:30:10 GMT-0400 (Eastern Daylight Time)","3050074","Trustworthy,Untrustworthy","","null","","","","ratingFB","","trustrating_stim/white_mw060.bmp","null","","","","","","","","","","","",""
"image-keyboard-response","45","81753","0.0-6.0-1.20","63d1834e69a637cd32f16634","bdp_trlrn","Wed Mar 15 2023 23:30:10 GMT-0400 (Eastern Daylight Time)","3050074","Trustworthy,Untrustworthy","","1547","","","","rating","","trustrating_stim/white_00785_941205_fb_edt.bmp","1","","","","","","","","","","","",""
"image-keyboard-response","46","81964","0.0-6.0-2.20","63d1834e69a637cd32f16634","bdp_trlrn","Wed Mar 15 2023 23:30:10 GMT-0400 (Eastern Daylight Time)","3050074","Trustworthy,Untrustworthy","","null","","","","ratingFB","","trustrating_stim/white_00785_941205_fb_edt.bmp","null","","","","","","","","","","","",""
"image-keyboard-response","47","83472","0.0-6.0-1.21","63d1834e69a637cd32f16634","bdp_trlrn","Wed Mar 15 2023 23:30:10 GMT-0400 (Eastern Daylight Time)","3050074","Trustworthy,Untrustworthy","","1400","","","","rating","","trustrating_stim/white_00120_931230_fa_edt.bmp","5","","","","","","","","","","","",""
"image-keyboard-response","48","83687","0.0-6.0-2.21","63d1834e69a637cd32f16634","bdp_trlrn","Wed Mar 15 2023 23:30:10 GMT-0400 (Eastern Daylight Time)","3050074","Trustworthy,Untrustworthy","","null","","","","ratingFB","","trustrating_stim/white_00120_931230_fa_edt.bmp","null","","","","","","","","","","","",""
"image-keyboard-response","49","84844","0.0-6.0-1.22","63d1834e69a637cd32f16634","bdp_trlrn","Wed Mar 15 2023 23:30:10 GMT-0400 (Eastern Daylight Time)","3050074","Trustworthy,Untrustworthy","","1040","","","","rating","","trustrating_stim/white_mw084.bmp","4","","","","","","","","","","","",""
"image-keyboard-response","50","85048","0.0-6.0-2.22","63d1834e69a637cd32f16634","bdp_trlrn","Wed Mar 15 2023 23:30:10 GMT-0400 (Eastern Daylight Time)","3050074","Trustworthy,Untrustworthy","","null","","","","ratingFB","","trustrating_stim/white_mw084.bmp","null","","","","","","","","","","","",""
"image-keyboard-response","51","86420","0.0-6.0-1.23","63d1834e69a637cd32f16634","bdp_trlrn","Wed Mar 15 2023 23:30:10 GMT-0400 (Eastern Daylight Time)","3050074","Trustworthy,Untrustworthy","","1264","","","","rating","","trustrating_stim/white_mw046.bmp","4","","","","","","","","","","","",""
"image-keyboard-response","52","86623","0.0-6.0-2.23","63d1834e69a637cd32f16634","bdp_trlrn","Wed Mar 15 2023 23:30:10 GMT-0400 (Eastern Daylight Time)","3050074","Trustworthy,Untrustworthy","","null","","","","ratingFB","","trustrating_stim/white_mw046.bmp","null","","","","","","","","","","","",""
"image-keyboard-response","53","88260","0.0-6.0-1.24","63d1834e69a637cd32f16634","bdp_trlrn","Wed Mar 15 2023 23:30:10 GMT-0400 (Eastern Daylight Time)","3050074","Trustworthy,Untrustworthy","","1521","","","","rating","","trustrating_stim/white_00898_960530_fa_edt.bmp","3","","","","","","","","","","","",""
"image-keyboard-response","54","88465","0.0-6.0-2.24","63d1834e69a637cd32f16634","bdp_trlrn","Wed Mar 15 2023 23:30:10 GMT-0400 (Eastern Daylight Time)","3050074","Trustworthy,Untrustworthy","","null","","","","ratingFB","","trustrating_stim/white_00898_960530_fa_edt.bmp","null","","","","","","","","","","","",""
"image-keyboard-response","55","90220","0.0-6.0-1.25","63d1834e69a637cd32f16634","bdp_trlrn","Wed Mar 15 2023 23:30:10 GMT-0400 (Eastern Daylight Time)","3050074","Trustworthy,Untrustworthy","","1649","","","","rating","","trustrating_stim/white_00299_940422_fa_edt.bmp","5","","","","","","","","","","","",""
"image-keyboard-response","56","90430","0.0-6.0-2.25","63d1834e69a637cd32f16634","bdp_trlrn","Wed Mar 15 2023 23:30:10 GMT-0400 (Eastern Daylight Time)","3050074","Trustworthy,Untrustworthy","","null","","","","ratingFB","","trustrating_stim/white_00299_940422_fa_edt.bmp","null","","","","","","","","","","","",""
"image-keyboard-response","57","92243","0.0-6.0-1.26","63d1834e69a637cd32f16634","bdp_trlrn","Wed Mar 15 2023 23:30:10 GMT-0400 (Eastern Daylight Time)","3050074","Trustworthy,Untrustworthy","","1705","","","","rating","","trustrating_stim/white_00807_941205_fb_edt.bmp","2","","","","","","","","","","","",""
"image-keyboard-response","58","92448","0.0-6.0-2.26","63d1834e69a637cd32f16634","bdp_trlrn","Wed Mar 15 2023 23:30:10 GMT-0400 (Eastern Daylight Time)","3050074","Trustworthy,Untrustworthy","","null","","","","ratingFB","","trustrating_stim/white_00807_941205_fb_edt.bmp","null","","","","","","","","","","","",""
"image-keyboard-response","59","94456","0.0-6.0-1.27","63d1834e69a637cd32f16634","bdp_trlrn","Wed Mar 15 2023 23:30:10 GMT-0400 (Eastern Daylight Time)","3050074","Trustworthy,Untrustworthy","","1900","","","","rating","","trustrating_stim/white_mw063.bmp","1","","","","","","","","","","","",""
"image-keyboard-response","60","94669","0.0-6.0-2.27","63d1834e69a637cd32f16634","bdp_trlrn","Wed Mar 15 2023 23:30:10 GMT-0400 (Eastern Daylight Time)","3050074","Trustworthy,Untrustworthy","","null","","","","ratingFB","","trustrating_stim/white_mw063.bmp","null","","","","","","","","","","","",""
"image-keyboard-response","61","96435","0.0-6.0-1.28","63d1834e69a637cd32f16634","bdp_trlrn","Wed Mar 15 2023 23:30:10 GMT-0400 (Eastern Daylight Time)","3050074","Trustworthy,Untrustworthy","","1649","","","","rating","","trustrating_stim/white_mw035.bmp","4","","","","","","","","","","","",""
"image-keyboard-response","62","96652","0.0-6.0-2.28","63d1834e69a637cd32f16634","bdp_trlrn","Wed Mar 15 2023 23:30:10 GMT-0400 (Eastern Daylight Time)","3050074","Trustworthy,Untrustworthy","","null","","","","ratingFB","","trustrating_stim/white_mw035.bmp","null","","","","","","","","","","","",""
"image-keyboard-response","63","97818","0.0-6.0-1.29","63d1834e69a637cd32f16634","bdp_trlrn","Wed Mar 15 2023 23:30:10 GMT-0400 (Eastern Daylight Time)","3050074","Trustworthy,Untrustworthy","","1063","","","","rating","","trustrating_stim/white_mw099.bmp","3","","","","","","","","","","","",""
"image-keyboard-response","64","98030","0.0-6.0-2.29","63d1834e69a637cd32f16634","bdp_trlrn","Wed Mar 15 2023 23:30:10 GMT-0400 (Eastern Daylight Time)","3050074","Trustworthy,Untrustworthy","","null","","","","ratingFB","","trustrating_stim/white_mw099.bmp","null","","","","","","","","","","","",""
"image-keyboard-response","65","99399","0.0-6.0-1.30","63d1834e69a637cd32f16634","bdp_trlrn","Wed Mar 15 2023 23:30:10 GMT-0400 (Eastern Daylight Time)","3050074","Trustworthy,Untrustworthy","","1262","","","","rating","","trustrating_stim/white_mw056.bmp","5","","","","","","","","","","","",""
"image-keyboard-response","66","99604","0.0-6.0-2.30","63d1834e69a637cd32f16634","bdp_trlrn","Wed Mar 15 2023 23:30:10 GMT-0400 (Eastern Daylight Time)","3050074","Trustworthy,Untrustworthy","","null","","","","ratingFB","","trustrating_stim/white_mw056.bmp","null","","","","","","","","","","","",""
"image-keyboard-response","67","101049","0.0-6.0-1.31","63d1834e69a637cd32f16634","bdp_trlrn","Wed Mar 15 2023 23:30:10 GMT-0400 (Eastern Daylight Time)","3050074","Trustworthy,Untrustworthy","","1329","","","","rating","","trustrating_stim/white_00519_940519_fb_edt.bmp","4","","","","","","","","","","","",""
"image-keyboard-response","68","101261","0.0-6.0-2.31","63d1834e69a637cd32f16634","bdp_trlrn","Wed Mar 15 2023 23:30:10 GMT-0400 (Eastern Daylight Time)","3050074","Trustworthy,Untrustworthy","","null","","","","ratingFB","","trustrating_stim/white_00519_940519_fb_edt.bmp","null","","","","","","","","","","","",""
"image-keyboard-response","69","103694","0.0-6.0-1.32","63d1834e69a637cd32f16634","bdp_trlrn","Wed Mar 15 2023 23:30:10 GMT-0400 (Eastern Daylight Time)","3050074","Trustworthy,Untrustworthy","","2323","","","","rating","","trustrating_stim/white_00577_940928_fa_edt.bmp","3","","","","","","","","","","","",""
"image-keyboard-response","70","103897","0.0-6.0-2.32","63d1834e69a637cd32f16634","bdp_trlrn","Wed Mar 15 2023 23:30:10 GMT-0400 (Eastern Daylight Time)","3050074","Trustworthy,Untrustworthy","","null","","","","ratingFB","","trustrating_stim/white_00577_940928_fa_edt.bmp","null","","","","","","","","","","","",""
"image-keyboard-response","71","106411","0.0-6.0-1.33","63d1834e69a637cd32f16634","bdp_trlrn","Wed Mar 15 2023 23:30:10 GMT-0400 (Eastern Daylight Time)","3050074","Trustworthy,Untrustworthy","","2407","","","","rating","","trustrating_stim/white_mw033.bmp","4","","","","","","","","","","","",""
"image-keyboard-response","72","106621","0.0-6.0-2.33","63d1834e69a637cd32f16634","bdp_trlrn","Wed Mar 15 2023 23:30:10 GMT-0400 (Eastern Daylight Time)","3050074","Trustworthy,Untrustworthy","","null","","","","ratingFB","","trustrating_stim/white_mw033.bmp","null","","","","","","","","","","","",""
"image-keyboard-response","73","108036","0.0-6.0-1.34","63d1834e69a637cd32f16634","bdp_trlrn","Wed Mar 15 2023 23:30:10 GMT-0400 (Eastern Daylight Time)","3050074","Trustworthy,Untrustworthy","","1299","","","","rating","","trustrating_stim/white_00659_941121_fa_edt.bmp","3","","","","","","","","","","","",""
"image-keyboard-response","74","108246","0.0-6.0-2.34","63d1834e69a637cd32f16634","bdp_trlrn","Wed Mar 15 2023 23:30:10 GMT-0400 (Eastern Daylight Time)","3050074","Trustworthy,Untrustworthy","","null","","","","ratingFB","","trustrating_stim/white_00659_941121_fa_edt.bmp","null","","","","","","","","","","","",""
"image-keyboard-response","75","111455","0.0-6.0-1.35","63d1834e69a637cd32f16634","bdp_trlrn","Wed Mar 15 2023 23:30:10 GMT-0400 (Eastern Daylight Time)","3050074","Trustworthy,Untrustworthy","","3102","","","","rating","","trustrating_stim/white_00340_940422_fa_edt.bmp","4","","","","","","","","","","","",""
"image-keyboard-response","76","111668","0.0-6.0-2.35","63d1834e69a637cd32f16634","bdp_trlrn","Wed Mar 15 2023 23:30:10 GMT-0400 (Eastern Daylight Time)","3050074","Trustworthy,Untrustworthy","","null","","","","ratingFB","","trustrating_stim/white_00340_940422_fa_edt.bmp","null","","","","","","","","","","","",""
"image-keyboard-response","77","113433","0.0-6.0-1.36","63d1834e69a637cd32f16634","bdp_trlrn","Wed Mar 15 2023 23:30:10 GMT-0400 (Eastern Daylight Time)","3050074","Trustworthy,Untrustworthy","","1662","","","","rating","","trustrating_stim/white_00898_960530_fa_edt.bmp","5","","","","","","","","","","","",""
"image-keyboard-response","78","113636","0.0-6.0-2.36","63d1834e69a637cd32f16634","bdp_trlrn","Wed Mar 15 2023 23:30:10 GMT-0400 (Eastern Daylight Time)","3050074","Trustworthy,Untrustworthy","","null","","","","ratingFB","","trustrating_stim/white_00898_960530_fa_edt.bmp","null","","","","","","","","","","","",""
"image-keyboard-response","79","115585","0.0-6.0-1.37","63d1834e69a637cd32f16634","bdp_trlrn","Wed Mar 15 2023 23:30:10 GMT-0400 (Eastern Daylight Time)","3050074","Trustworthy,Untrustworthy","","1833","","","","rating","","trustrating_stim/white_00761_941201_fb_edt.bmp","5","","","","","","","","","","","",""
"image-keyboard-response","80","115795","0.0-6.0-2.37","63d1834e69a637cd32f16634","bdp_trlrn","Wed Mar 15 2023 23:30:10 GMT-0400 (Eastern Daylight Time)","3050074","Trustworthy,Untrustworthy","","null","","","","ratingFB","","trustrating_stim/white_00761_941201_fb_edt.bmp","null","","","","","","","","","","","",""
"image-keyboard-response","81","117714","0.0-6.0-1.38","63d1834e69a637cd32f16634","bdp_trlrn","Wed Mar 15 2023 23:30:10 GMT-0400 (Eastern Daylight Time)","3050074","Trustworthy,Untrustworthy","","1810","","","","rating","","trustrating_stim/white_00785_941205_fb_edt.bmp","3","","","","","","","","","","","",""
"image-keyboard-response","82","117925","0.0-6.0-2.38","63d1834e69a637cd32f16634","bdp_trlrn","Wed Mar 15 2023 23:30:10 GMT-0400 (Eastern Daylight Time)","3050074","Trustworthy,Untrustworthy","","null","","","","ratingFB","","trustrating_stim/white_00785_941205_fb_edt.bmp","null","","","","","","","","","","","",""
"image-keyboard-response","83","120174","0.0-6.0-1.39","63d1834e69a637cd32f16634","bdp_trlrn","Wed Mar 15 2023 23:30:10 GMT-0400 (Eastern Daylight Time)","3050074","Trustworthy,Untrustworthy","","2140","","","","rating","","trustrating_stim/white_00120_931230_fa_edt.bmp","7","","","","","","","","","","","",""
"image-keyboard-response","84","120377","0.0-6.0-2.39","63d1834e69a637cd32f16634","bdp_trlrn","Wed Mar 15 2023 23:30:10 GMT-0400 (Eastern Daylight Time)","3050074","Trustworthy,Untrustworthy","","null","","","","ratingFB","","trustrating_stim/white_00120_931230_fa_edt.bmp","null","","","","","","","","","","","",""
"image-keyboard-response","85","122004","0.0-6.0-1.40","63d1834e69a637cd32f16634","bdp_trlrn","Wed Mar 15 2023 23:30:10 GMT-0400 (Eastern Daylight Time)","3050074","Trustworthy,Untrustworthy","","1522","","","","rating","","trustrating_stim/white_mw035.bmp","3","","","","","","","","","","","",""
"image-keyboard-response","86","122209","0.0-6.0-2.40","63d1834e69a637cd32f16634","bdp_trlrn","Wed Mar 15 2023 23:30:10 GMT-0400 (Eastern Daylight Time)","3050074","Trustworthy,Untrustworthy","","null","","","","ratingFB","","trustrating_stim/white_mw035.bmp","null","","","","","","","","","","","",""
"image-keyboard-response","87","124940","0.0-6.0-1.41","63d1834e69a637cd32f16634","bdp_trlrn","Wed Mar 15 2023 23:30:10 GMT-0400 (Eastern Daylight Time)","3050074","Trustworthy,Untrustworthy","","2624","","","","rating","","trustrating_stim/white_00109_931230_fa_edt.bmp","7","","","","","","","","","","","",""
"image-keyboard-response","88","125142","0.0-6.0-2.41","63d1834e69a637cd32f16634","bdp_trlrn","Wed Mar 15 2023 23:30:10 GMT-0400 (Eastern Daylight Time)","3050074","Trustworthy,Untrustworthy","","null","","","","ratingFB","","trustrating_stim/white_00109_931230_fa_edt.bmp","null","","","","","","","","","","","",""
"image-keyboard-response","89","127483","0.0-6.0-1.42","63d1834e69a637cd32f16634","bdp_trlrn","Wed Mar 15 2023 23:30:10 GMT-0400 (Eastern Daylight Time)","3050074","Trustworthy,Untrustworthy","","2233","","","","rating","","trustrating_stim/white_mw066.bmp","4","","","","","","","","","","","",""
"image-keyboard-response","90","127694","0.0-6.0-2.42","63d1834e69a637cd32f16634","bdp_trlrn","Wed Mar 15 2023 23:30:10 GMT-0400 (Eastern Daylight Time)","3050074","Trustworthy,Untrustworthy","","null","","","","ratingFB","","trustrating_stim/white_mw066.bmp","null","","","","","","","","","","","",""
"image-keyboard-response","91","129206","0.0-6.0-1.43","63d1834e69a637cd32f16634","bdp_trlrn","Wed Mar 15 2023 23:30:10 GMT-0400 (Eastern Daylight Time)","3050074","Trustworthy,Untrustworthy","","1407","","","","rating","","trustrating_stim/white_00807_941205_fb_edt.bmp","2","","","","","","","","","","","",""
"image-keyboard-response","92","129408","0.0-6.0-2.43","63d1834e69a637cd32f16634","bdp_trlrn","Wed Mar 15 2023 23:30:10 GMT-0400 (Eastern Daylight Time)","3050074","Trustworthy,Untrustworthy","","null","","","","ratingFB","","trustrating_stim/white_00807_941205_fb_edt.bmp","null","","","","","","","","","","","",""
"image-keyboard-response","93","132590","0.0-6.0-1.44","63d1834e69a637cd32f16634","bdp_trlrn","Wed Mar 15 2023 23:30:10 GMT-0400 (Eastern Daylight Time)","3050074","Trustworthy,Untrustworthy","","3074","","","","rating","","trustrating_stim/white_mw046.bmp","4","","","","","","","","","","","",""
"image-keyboard-response","94","132793","0.0-6.0-2.44","63d1834e69a637cd32f16634","bdp_trlrn","Wed Mar 15 2023 23:30:10 GMT-0400 (Eastern Daylight Time)","3050074","Trustworthy,Untrustworthy","","null","","","","ratingFB","","trustrating_stim/white_mw046.bmp","null","","","","","","","","","","","",""
"image-keyboard-response","95","134888","0.0-6.0-1.45","63d1834e69a637cd32f16634","bdp_trlrn","Wed Mar 15 2023 23:30:10 GMT-0400 (Eastern Daylight Time)","3050074","Trustworthy,Untrustworthy","","1990","","","","rating","","trustrating_stim/white_mw053.bmp","5","","","","","","","","","","","",""
"image-keyboard-response","96","135091","0.0-6.0-2.45","63d1834e69a637cd32f16634","bdp_trlrn","Wed Mar 15 2023 23:30:10 GMT-0400 (Eastern Daylight Time)","3050074","Trustworthy,Untrustworthy","","null","","","","ratingFB","","trustrating_stim/white_mw053.bmp","null","","","","","","","","","","","",""
"image-keyboard-response","97","137553","0.0-6.0-1.46","63d1834e69a637cd32f16634","bdp_trlrn","Wed Mar 15 2023 23:30:10 GMT-0400 (Eastern Daylight Time)","3050074","Trustworthy,Untrustworthy","","2355","","","","rating","","trustrating_stim/white_mw049.bmp","6","","","","","","","","","","","",""
"image-keyboard-response","98","137757","0.0-6.0-2.46","63d1834e69a637cd32f16634","bdp_trlrn","Wed Mar 15 2023 23:30:10 GMT-0400 (Eastern Daylight Time)","3050074","Trustworthy,Untrustworthy","","null","","","","ratingFB","","trustrating_stim/white_mw049.bmp","null","","","","","","","","","","","",""
"image-keyboard-response","99","140439","0.0-6.0-1.47","63d1834e69a637cd32f16634","bdp_trlrn","Wed Mar 15 2023 23:30:10 GMT-0400 (Eastern Daylight Time)","3050074","Trustworthy,Untrustworthy","","2574","","","","rating","","trustrating_stim/white_mw089.bmp","5","","","","","","","","","","","",""
"image-keyboard-response","100","140641","0.0-6.0-2.47","63d1834e69a637cd32f16634","bdp_trlrn","Wed Mar 15 2023 23:30:10 GMT-0400 (Eastern Daylight Time)","3050074","Trustworthy,Untrustworthy","","null","","","","ratingFB","","trustrating_stim/white_mw089.bmp","null","","","","","","","","","","","",""
"image-keyboard-response","101","142016","0.0-6.0-1.48","63d1834e69a637cd32f16634","bdp_trlrn","Wed Mar 15 2023 23:30:10 GMT-0400 (Eastern Daylight Time)","3050074","Trustworthy,Untrustworthy","","1267","","","","rating","","trustrating_stim/white_00129_931230_fb_edt.bmp","6","","","","","","","","","","","",""
"image-keyboard-response","102","142225","0.0-6.0-2.48","63d1834e69a637cd32f16634","bdp_trlrn","Wed Mar 15 2023 23:30:10 GMT-0400 (Eastern Daylight Time)","3050074","Trustworthy,Untrustworthy","","null","","","","ratingFB","","trustrating_stim/white_00129_931230_fb_edt.bmp","null","","","","","","","","","","","",""
"image-keyboard-response","103","143717","0.0-6.0-1.49","63d1834e69a637cd32f16634","bdp_trlrn","Wed Mar 15 2023 23:30:10 GMT-0400 (Eastern Daylight Time)","3050074","Trustworthy,Untrustworthy","","1385","","","","rating","","trustrating_stim/white_mw048.bmp","3","","","","","","","","","","","",""
"image-keyboard-response","104","143925","0.0-6.0-2.49","63d1834e69a637cd32f16634","bdp_trlrn","Wed Mar 15 2023 23:30:10 GMT-0400 (Eastern Daylight Time)","3050074","Trustworthy,Untrustworthy","","null","","","","ratingFB","","trustrating_stim/white_mw048.bmp","null","","","","","","","","","","","",""
"","","","","63d1834e69a637cd32f16634","bdp_trlrn","Wed Mar 15 2023 23:30:10 GMT-0400 (Eastern Daylight Time)","3050074","Trustworthy,Untrustworthy","","","blur","105","145769","blurevent","","","","1","","","","","","","","","","",""
"","","","","63d1834e69a637cd32f16634","bdp_trlrn","Wed Mar 15 2023 23:30:10 GMT-0400 (Eastern Daylight Time)","3050074","Trustworthy,Untrustworthy","","","focus","105","180491","focusevent","","","","","","","","","","","","","","",""
"image-keyboard-response","105","182576","0.0-6.0-1.50","63d1834e69a637cd32f16634","bdp_trlrn","Wed Mar 15 2023 23:30:10 GMT-0400 (Eastern Daylight Time)","3050074","Trustworthy,Untrustworthy","","38545","blur","105","145769","rating","","trustrating_stim/white_mw071.bmp","2","1","","","","","","","","","","",""
"image-keyboard-response","106","182782","0.0-6.0-2.50","63d1834e69a637cd32f16634","bdp_trlrn","Wed Mar 15 2023 23:30:10 GMT-0400 (Eastern Daylight Time)","3050074","Trustworthy,Untrustworthy","","null","","","","ratingFB","","trustrating_stim/white_mw071.bmp","null","","","","","","","","","","","",""
"","","","","63d1834e69a637cd32f16634","bdp_trlrn","Wed Mar 15 2023 23:30:10 GMT-0400 (Eastern Daylight Time)","3050074","Trustworthy,Untrustworthy","","","blur","107","200427","blurevent","","","","2","","","","","","","","","","",""
"","","","","63d1834e69a637cd32f16634","bdp_trlrn","Wed Mar 15 2023 23:30:10 GMT-0400 (Eastern Daylight Time)","3050074","Trustworthy,Untrustworthy","","","focus","107","200704","focusevent","","","","","","","","","","","","","","",""
"","","","","63d1834e69a637cd32f16634","bdp_trlrn","Wed Mar 15 2023 23:30:10 GMT-0400 (Eastern Daylight Time)","3050074","Trustworthy,Untrustworthy","","","blur","107","200719","blurevent","","","","","","","","","","","","","","",""
"","","","","63d1834e69a637cd32f16634","bdp_trlrn","Wed Mar 15 2023 23:30:10 GMT-0400 (Eastern Daylight Time)","3050074","Trustworthy,Untrustworthy","","","focus","107","216261","focusevent","","","","","","","","","","","","","","",""
"image-keyboard-response","107","217877","0.0-6.0-0.51-0.51","63d1834e69a637cd32f16634","bdp_trlrn","Wed Mar 15 2023 23:30:10 GMT-0400 (Eastern Daylight Time)","3050074","Trustworthy,Untrustworthy","","34986","","","","blurwarn","","","49","1","","","","","","","","","","",""
"image-keyboard-response","108","220149","0.0-6.0-1.51","63d1834e69a637cd32f16634","bdp_trlrn","Wed Mar 15 2023 23:30:10 GMT-0400 (Eastern Daylight Time)","3050074","Trustworthy,Untrustworthy","","2010","","","","rating","","trustrating_stim/white_00223_940128_fb_edt.bmp","3","","","","","","","","","","","",""
"image-keyboard-response","109","220359","0.0-6.0-2.51","63d1834e69a637cd32f16634","bdp_trlrn","Wed Mar 15 2023 23:30:10 GMT-0400 (Eastern Daylight Time)","3050074","Trustworthy,Untrustworthy","","null","","","","ratingFB","","trustrating_stim/white_00223_940128_fb_edt.bmp","null","","","","","","","","","","","",""
"image-keyboard-response","110","224184","0.0-6.0-1.52","63d1834e69a637cd32f16634","bdp_trlrn","Wed Mar 15 2023 23:30:10 GMT-0400 (Eastern Daylight Time)","3050074","Trustworthy,Untrustworthy","","3721","","","","rating","","trustrating_stim/white_mw099.bmp","4","","","","","","","","","","","",""
"image-keyboard-response","111","224390","0.0-6.0-2.52","63d1834e69a637cd32f16634","bdp_trlrn","Wed Mar 15 2023 23:30:10 GMT-0400 (Eastern Daylight Time)","3050074","Trustworthy,Untrustworthy","","null","","","","ratingFB","","trustrating_stim/white_mw099.bmp","null","","","","","","","","","","","",""
"image-keyboard-response","112","225779","0.0-6.0-1.53","63d1834e69a637cd32f16634","bdp_trlrn","Wed Mar 15 2023 23:30:10 GMT-0400 (Eastern Daylight Time)","3050074","Trustworthy,Untrustworthy","","1282","","","","rating","","trustrating_stim/white_mw097.bmp","2","","","","","","","","","","","",""
"image-keyboard-response","113","225989","0.0-6.0-2.53","63d1834e69a637cd32f16634","bdp_trlrn","Wed Mar 15 2023 23:30:10 GMT-0400 (Eastern Daylight Time)","3050074","Trustworthy,Untrustworthy","","null","","","","ratingFB","","trustrating_stim/white_mw097.bmp","null","","","","","","","","","","","",""
"image-keyboard-response","114","227664","0.0-6.0-1.54","63d1834e69a637cd32f16634","bdp_trlrn","Wed Mar 15 2023 23:30:10 GMT-0400 (Eastern Daylight Time)","3050074","Trustworthy,Untrustworthy","","1566","","","","rating","","trustrating_stim/white_mw084.bmp","3","","","","","","","","","","","",""
"image-keyboard-response","115","227873","0.0-6.0-2.54","63d1834e69a637cd32f16634","bdp_trlrn","Wed Mar 15 2023 23:30:10 GMT-0400 (Eastern Daylight Time)","3050074","Trustworthy,Untrustworthy","","null","","","","ratingFB","","trustrating_stim/white_mw084.bmp","null","","","","","","","","","","","",""
"image-keyboard-response","116","229235","0.0-6.0-1.55","63d1834e69a637cd32f16634","bdp_trlrn","Wed Mar 15 2023 23:30:10 GMT-0400 (Eastern Daylight Time)","3050074","Trustworthy,Untrustworthy","","1256","","","","rating","","trustrating_stim/white_00757_941201_fa_edt.bmp","2","","","","","","","","","","","",""
"image-keyboard-response","117","229439","0.0-6.0-2.55","63d1834e69a637cd32f16634","bdp_trlrn","Wed Mar 15 2023 23:30:10 GMT-0400 (Eastern Daylight Time)","3050074","Trustworthy,Untrustworthy","","null","","","","ratingFB","","trustrating_stim/white_00757_941201_fa_edt.bmp","null","","","","","","","","","","","",""
"image-keyboard-response","118","231196","0.0-6.0-1.56","63d1834e69a637cd32f16634","bdp_trlrn","Wed Mar 15 2023 23:30:10 GMT-0400 (Eastern Daylight Time)","3050074","Trustworthy,Untrustworthy","","1646","","","","rating","","trustrating_stim/white_00602_940928_fb_edt.bmp","4","","","","","","","","","","","",""
"image-keyboard-response","119","231405","0.0-6.0-2.56","63d1834e69a637cd32f16634","bdp_trlrn","Wed Mar 15 2023 23:30:10 GMT-0400 (Eastern Daylight Time)","3050074","Trustworthy,Untrustworthy","","null","","","","ratingFB","","trustrating_stim/white_00602_940928_fb_edt.bmp","null","","","","","","","","","","","",""
"image-keyboard-response","120","232721","0.0-6.0-1.57","63d1834e69a637cd32f16634","bdp_trlrn","Wed Mar 15 2023 23:30:10 GMT-0400 (Eastern Daylight Time)","3050074","Trustworthy,Untrustworthy","","1208","","","","rating","","trustrating_stim/white_00299_940422_fa_edt.bmp","4","","","","","","","","","","","",""
"image-keyboard-response","121","232922","0.0-6.0-2.57","63d1834e69a637cd32f16634","bdp_trlrn","Wed Mar 15 2023 23:30:10 GMT-0400 (Eastern Daylight Time)","3050074","Trustworthy,Untrustworthy","","null","","","","ratingFB","","trustrating_stim/white_00299_940422_fa_edt.bmp","null","","","","","","","","","","","",""
"image-keyboard-response","122","234234","0.0-6.0-1.58","63d1834e69a637cd32f16634","bdp_trlrn","Wed Mar 15 2023 23:30:10 GMT-0400 (Eastern Daylight Time)","3050074","Trustworthy,Untrustworthy","","1203","","","","rating","","trustrating_stim/white_mw060.bmp","2","","","","","","","","","","","",""
"image-keyboard-response","123","234439","0.0-6.0-2.58","63d1834e69a637cd32f16634","bdp_trlrn","Wed Mar 15 2023 23:30:10 GMT-0400 (Eastern Daylight Time)","3050074","Trustworthy,Untrustworthy","","null","","","","ratingFB","","trustrating_stim/white_mw060.bmp","null","","","","","","","","","","","",""
"image-keyboard-response","124","235639","0.0-6.0-1.59","63d1834e69a637cd32f16634","bdp_trlrn","Wed Mar 15 2023 23:30:10 GMT-0400 (Eastern Daylight Time)","3050074","Trustworthy,Untrustworthy","","1094","","","","rating","","trustrating_stim/white_mw063.bmp","1","","","","","","","","","","","",""
"image-keyboard-response","125","235855","0.0-6.0-2.59","63d1834e69a637cd32f16634","bdp_trlrn","Wed Mar 15 2023 23:30:10 GMT-0400 (Eastern Daylight Time)","3050074","Trustworthy,Untrustworthy","","null","","","","ratingFB","","trustrating_stim/white_mw063.bmp","null","","","","","","","","","","","",""
"","","","","63d1834e69a637cd32f16634","bdp_trlrn","Wed Mar 15 2023 23:30:10 GMT-0400 (Eastern Daylight Time)","3050074","Trustworthy,Untrustworthy","","","blur","126","251017","blurevent","","","","3","","","","","","","","","","",""
"","","","","63d1834e69a637cd32f16634","bdp_trlrn","Wed Mar 15 2023 23:30:10 GMT-0400 (Eastern Daylight Time)","3050074","Trustworthy,Untrustworthy","","","focus","126","288575","focusevent","","","","","","","","","","","","","","",""
"","","","","63d1834e69a637cd32f16634","bdp_trlrn","Wed Mar 15 2023 23:30:10 GMT-0400 (Eastern Daylight Time)","3050074","Trustworthy,Untrustworthy","","","blur","126","296325","blurevent","","","","","","","","","","","","","","",""
"","","","","63d1834e69a637cd32f16634","bdp_trlrn","Wed Mar 15 2023 23:30:10 GMT-0400 (Eastern Daylight Time)","3050074","Trustworthy,Untrustworthy","","","focus","126","332032","focusevent","","","","","","","","","","","","","","",""
"instructions","126","333981","0.0-7.0","63d1834e69a637cd32f16634","bdp_trlrn","Wed Mar 15 2023 23:30:10 GMT-0400 (Eastern Daylight Time)","3050074","Trustworthy,Untrustworthy","[{""page_index"":0,""viewing_time"":98019}]","98019","","","","","","","","","","","","","","","","","","",""
"","","","","63d1834e69a637cd32f16634","bdp_trlrn","Wed Mar 15 2023 23:30:10 GMT-0400 (Eastern Daylight Time)","3050074","Trustworthy,Untrustworthy","","","blur","127","381834","blurevent","","","","1","","","","","","","","","","",""
"","","","","63d1834e69a637cd32f16634","bdp_trlrn","Wed Mar 15 2023 23:30:10 GMT-0400 (Eastern Daylight Time)","3050074","Trustworthy,Untrustworthy","","","focus","127","476327","focusevent","","","","","","","","","","","","","","",""
"instructions","127","493578","0.0-8.0","63d1834e69a637cd32f16634","bdp_trlrn","Wed Mar 15 2023 23:30:10 GMT-0400 (Eastern Daylight Time)","3050074","Trustworthy,Untrustworthy","[{""page_index"":0,""viewing_time"":8749},{""page_index"":1,""viewing_time"":19036},{""page_index"":2,""viewing_time"":3434},{""page_index"":3,""viewing_time"":7923},{""page_index"":4,""viewing_time"":105988},{""page_index"":5,""viewing_time"":3950},{""page_index"":6,""viewing_time"":4354},{""page_index"":7,""viewing_time"":6053}]","159487","","","","","","","","","","","","","","","","","","",""
"html-keyboard-response","128","496578","0.0-9.0","63d1834e69a637cd32f16634","bdp_trlrn","Wed Mar 15 2023 23:30:10 GMT-0400 (Eastern Daylight Time)","3050074","Trustworthy,Untrustworthy","","2999","","","","","","<div class='header' style='text-align:left; position: absolute; top: 5%; left: 5%;'><small>Task 2 of 5</small></div><div class='instruxDiv'><p><strong>1) What is the minimum number of points you can choose to send to your partner?</strong></p><p>a) 0</p><p>b) 1</p><p>c) 5</p>","A","","","","","","","","","","","",""
"html-keyboard-response","129","500970","0.0-10.0","63d1834e69a637cd32f16634","bdp_trlrn","Wed Mar 15 2023 23:30:10 GMT-0400 (Eastern Daylight Time)","3050074","Trustworthy,Untrustworthy","","4278","","","","","","<div class='header' style='text-align:left; position: absolute; top: 5%; left: 5%;'><small>Task 2 of 5</small></div><div class='instruxDiv'><p><strong>1) What is the minimum number of points you can choose to send to your partner?</strong></p><p style='color:#FF0000'>a) 0</p><p>b) 1</p><p>c) 5</p><h3 style='color:#FF0000'>Incorrect!</h3><h3 class='center-content'>The correct response is b).</h3><h3 class='center-content'>The minimum number of points you can choose to send to your partner is 1 point.</h3><p><em>Press SPACEBAR to continue</em></p></div>"," ","","","","","","","","","","","",""
"html-keyboard-response","130","505431","0.0-11.0","63d1834e69a637cd32f16634","bdp_trlrn","Wed Mar 15 2023 23:30:10 GMT-0400 (Eastern Daylight Time)","3050074","Trustworthy,Untrustworthy","","4352","","","","","","<div class='header' style='text-align:left; position: absolute; top: 5%; left: 5%;'><small>Task 2 of 5</small></div><div class='instruxDiv'><p><strong>2) What is the maximum number of points you can choose to send to your partner?</strong></p><p>a) 8</p><p>b) 5</p><p>c) 3</p>","B","","","","","","","","","","","",""
"html-keyboard-response","131","507229","0.0-12.0","63d1834e69a637cd32f16634","bdp_trlrn","Wed Mar 15 2023 23:30:10 GMT-0400 (Eastern Daylight Time)","3050074","Trustworthy,Untrustworthy","","1682","","","","","","<div class='header' style='text-align:left; position: absolute; top: 5%; left: 5%;'><small>Task 2 of 5</small></div><div class='instruxDiv'><p><strong>2) What is the maximum number of points you can choose to send to your partner?</strong></p><p>a) 8</p><p style='color:#00FF00'>b) 5</p><p>c) 3</p><h3 style='color:#00FF00'>Correct!</h3><h3 class='center-content'>The correct response is b).</h3><h3 class='center-content'>The maximum number of points you can choose to send to your partner is 5 points.</h3><p><em>Press SPACEBAR to continue</em></p></div>"," ","","","","","","","","","","","",""
"html-keyboard-response","132","509510","0.0-13.0","63d1834e69a637cd32f16634","bdp_trlrn","Wed Mar 15 2023 23:30:10 GMT-0400 (Eastern Daylight Time)","3050074","Trustworthy,Untrustworthy","","2165","","","","","","<div class='header' style='text-align:left; position: absolute; top: 5%; left: 5%;'><small>Task 2 of 5</small></div><div class='instruxDiv'><p><strong>3) What happens to the amount of points you send to your partner?</strong></p><p>a) Nothing</p><p>b) It doubles</p><p>c) It quadruples</p>","C","","","","","","","","","","","",""
"html-keyboard-response","133","510411","0.0-14.0","63d1834e69a637cd32f16634","bdp_trlrn","Wed Mar 15 2023 23:30:10 GMT-0400 (Eastern Daylight Time)","3050074","Trustworthy,Untrustworthy","","799","","","","","","<div class='header' style='text-align:left; position: absolute; top: 5%; left: 5%;'><small>Task 2 of 5</small></div><div class='instruxDiv'><p><strong>3) What happens to the amount of points you send to your partner?</strong></p><p>a) Nothing</p><p>b) It doubles</p><p style='color:#00FF00'>c) It quadruples</p><h3 style='color:#00FF00'>Correct!</h3><h3 class='center-content'>The correct response is c).</h3><h3 class='center-content'>The amount of points you send to your partner quadruples.</h3><p><em>Press SPACEBAR to continue</em></p></div>"," ","","","","","","","","","","","",""
"html-keyboard-response","134","526049","0.0-15.0","63d1834e69a637cd32f16634","bdp_trlrn","Wed Mar 15 2023 23:30:10 GMT-0400 (Eastern Daylight Time)","3050074","Trustworthy,Untrustworthy","","15537","","","","","","<div class='header' style='text-align:left; position: absolute; top: 5%; left: 5%;'><small>Task 2 of 5</small></div><div class='instruxDiv'><p><strong>4) If you decided to share 4 out of 5 points with your partner, and they decided to share half of the amount they received with you, how many points would you receive back from them on this round?</strong></p><p>a) 16</p><p>b) 0</p><p>c) 8</p>","C","","","","","","","","","","","",""
"html-keyboard-response","135","527121","0.0-16.0","63d1834e69a637cd32f16634","bdp_trlrn","Wed Mar 15 2023 23:30:10 GMT-0400 (Eastern Daylight Time)","3050074","Trustworthy,Untrustworthy","","963","","","","","","<div class='header' style='text-align:left; position: absolute; top: 5%; left: 5%;'><small>Task 2 of 5</small></div><div class='instruxDiv'><p><strong>4) If you decided to share 4 out of 5 points with your partner, and they decided to share half of the amount they received with you, how many points would you receive back from them on this round?</strong></p><p>a) 16</p><p>b) 0</p><p style='color:#00FF00'>c) 8</p><h3 style='color:#00FF00'>Correct!</h3><h3 class='center-content'>The correct response is c).</h3><h3 class='center-content'>If you shared 4 out of 5 points with your partner and they decided to share half of the amount they received with you, you would receive 8 points back (i.e. (4 x 4)/2 = 8).</h3><p><em>Press SPACEBAR to continue</em></p></div>"," ","","","","","","","","","","","",""
"html-keyboard-response","136","532226","0.0-17.0","63d1834e69a637cd32f16634","bdp_trlrn","Wed Mar 15 2023 23:30:10 GMT-0400 (Eastern Daylight Time)","3050074","Trustworthy,Untrustworthy","","null","","","","","","<div class='header' style='text-align:left; position: absolute; top: 5%; left: 5%;'><small>Task 2 of 5</small></div><div class='instruxDiv'><p>Thank you for completing the quiz<p>These are the actual partners you will be interacting with in the next block:<p><div class='tc' align='center'><img class='introPic' src='trustrating_stim/white_mw060.bmp'><br><strong>Brian</strong></div><div class='bl' align='center'><img class='introPic' src='trustrating_stim/white_00659_941121_fa_edt.bmp'><br><strong>Joseph</strong></div><div class='br' align='center'><img class='introPic' src='trustrating_stim/white_00109_931230_fa_edt.bmp'><br><strong>Richard</strong></div></div><p>Across <strong>66 rounds</strong> you will interact with each partner <strong>22 times</strong> (in random order).<p style='align:center; color:white'><font <em>Press SPACEBAR to continue</em></p>","null","","","","","","","","","","","",""
"instructions","137","539493","0.0-18.0","63d1834e69a637cd32f16634","bdp_trlrn","Wed Mar 15 2023 23:30:10 GMT-0400 (Eastern Daylight Time)","3050074","Trustworthy,Untrustworthy","[{""page_index"":0,""viewing_time"":5299},{""page_index"":1,""viewing_time"":1967}]","7266","","","","","","","","","","","","","","","","","","",""
"html-keyboard-response","138","546547","0.0-19.0-1.0","63d1834e69a637cd32f16634","bdp_trlrn","Wed Mar 15 2023 23:30:10 GMT-0400 (Eastern Daylight Time)","3050074","Trustworthy,Untrustworthy","","6939","","","","decision","","<div class='trialDiv'><img src='trustrating_stim/white_00109_931230_fa_edt.bmp'><br><font class='baseline'><strong>Richard</strong><p>Choose number of points to send.</font><div class='respPicDiv'><img src='img/responseButtonOffersNo0L.png' class='respPic'></div></div>","4","","1","Richard","11","Shared","0.65,0.35","12","0.65","trustrating_stim/white_00109_931230_fa_edt.bmp","8","5","1"
"html-keyboard-response","139","546812","0.0-19.0-2.0","63d1834e69a637cd32f16634","bdp_trlrn","Wed Mar 15 2023 23:30:10 GMT-0400 (Eastern Daylight Time)","3050074","Trustworthy,Untrustworthy","","null","","","","decisionFB","","<div class='trialDiv'><img src='trustrating_stim/white_00109_931230_fa_edt.bmp'><br><font class='baseline'><strong>Richard</strong><p>Choose number of points to send.</font><div class='respPicDiv'><img src='img/responseButtonOffersNo0L4.png' class='respPic'></div></div>","null","","1","Richard","11","Shared","0.65,0.35","12","0.65","trustrating_stim/white_00109_931230_fa_edt.bmp","8","1","1"
"html-keyboard-response","140","547827","0.0-19.0-3.0","63d1834e69a637cd32f16634","bdp_trlrn","Wed Mar 15 2023 23:30:10 GMT-0400 (Eastern Daylight Time)","3050074","Trustworthy,Untrustworthy","","null","","","","feedback","","<div class='trialDiv'><img src='trustrating_stim/white_00109_931230_fa_edt.bmp'><br><font class='baseline'><strong>Richard</strong><p>Received: <strong>16</strong></font> &nbsp; &nbsp; &nbsp; &nbsp; &nbsp; &nbsp;<font class='posOutcome'>Shared back: <strong>8</strong></font></font><div class='respPicDiv'><img src='img/responseButtonOffersNo0_wht.png' class='respPic'></div></div>","null","","1","Richard","11","Shared","0.65,0.35","12","0.65","trustrating_stim/white_00109_931230_fa_edt.bmp","8","9","1"
"html-keyboard-response","141","549601","0.0-19.0-1.1","63d1834e69a637cd32f16634","bdp_trlrn","Wed Mar 15 2023 23:30:10 GMT-0400 (Eastern Daylight Time)","3050074","Trustworthy,Untrustworthy","","1773","","","","decision","","<div class='trialDiv'><img src='trustrating_stim/white_mw060.bmp'><br><font class='baseline'><strong>Brian</strong><p>Choose number of points to send.</font><div class='respPicDiv'><img src='img/responseButtonOffersNo0L.png' class='respPic'></div></div>","3","","1","Brian","2","Kept","0.35,0.8","11","0.35","trustrating_stim/white_mw060.bmp","1.5","14","2"
"html-keyboard-response","142","549864","0.0-19.0-2.1","63d1834e69a637cd32f16634","bdp_trlrn","Wed Mar 15 2023 23:30:10 GMT-0400 (Eastern Daylight Time)","3050074","Trustworthy,Untrustworthy","","null","","","","decisionFB","","<div class='trialDiv'><img src='trustrating_stim/white_mw060.bmp'><br><font class='baseline'><strong>Brian</strong><p>Choose number of points to send.</font><div class='respPicDiv'><img src='img/responseButtonOffersNo0L3.png' class='respPic'></div></div>","null","","1","Brian","2","Kept","0.35,0.8","11","0.35","trustrating_stim/white_mw060.bmp","1.5","11","2"
"html-keyboard-response","143","550872","0.0-19.0-3.1","63d1834e69a637cd32f16634","bdp_trlrn","Wed Mar 15 2023 23:30:10 GMT-0400 (Eastern Daylight Time)","3050074","Trustworthy,Untrustworthy","","null","","","","feedback","","<div class='trialDiv'><img src='trustrating_stim/white_mw060.bmp'><br><font class='baseline'><strong>Brian</strong><p>Received: <strong>12</strong></font> &nbsp; &nbsp; &nbsp; &nbsp; &nbsp; &nbsp;<font class='negOutcome'>Shared back: <strong>0</strong></font></font><div class='respPicDiv'><img src='img/responseButtonOffersNo0_wht.png' class='respPic'></div></div>","null","","1","Brian","2","Kept","0.35,0.8","11","0.35","trustrating_stim/white_mw060.bmp","1.5","11","2"
"html-keyboard-response","144","553196","0.0-19.0-1.2","63d1834e69a637cd32f16634","bdp_trlrn","Wed Mar 15 2023 23:30:10 GMT-0400 (Eastern Daylight Time)","3050074","Trustworthy,Untrustworthy","","2322","","","","decision","","<div class='trialDiv'><img src='trustrating_stim/white_00659_941121_fa_edt.bmp'><br><font class='baseline'><strong>Joseph</strong><p>Choose number of points to send.</font><div class='respPicDiv'><img src='img/responseButtonOffersNo0L.png' class='respPic'></div></div>","2","","1","Joseph","4","Shared","0.8,0.35","8","0.8","trustrating_stim/white_00659_941121_fa_edt.bmp","3.5","16","3"
"html-keyboard-response","145","553463","0.0-19.0-2.2","63d1834e69a637cd32f16634","bdp_trlrn","Wed Mar 15 2023 23:30:10 GMT-0400 (Eastern Daylight Time)","3050074","Trustworthy,Untrustworthy","","null","","","","decisionFB","","<div class='trialDiv'><img src='trustrating_stim/white_00659_941121_fa_edt.bmp'><br><font class='baseline'><strong>Joseph</strong><p>Choose number of points to send.</font><div class='respPicDiv'><img src='img/responseButtonOffersNo0L2.png' class='respPic'></div></div>","null","","1","Joseph","4","Shared","0.8,0.35","8","0.8","trustrating_stim/white_00659_941121_fa_edt.bmp","3.5","14","3"
"html-keyboard-response","146","554468","0.0-19.0-3.2","63d1834e69a637cd32f16634","bdp_trlrn","Wed Mar 15 2023 23:30:10 GMT-0400 (Eastern Daylight Time)","3050074","Trustworthy,Untrustworthy","","null","","","","feedback","","<div class='trialDiv'><img src='trustrating_stim/white_00659_941121_fa_edt.bmp'><br><font class='baseline'><strong>Joseph</strong><p>Received: <strong>8</strong></font> &nbsp; &nbsp; &nbsp; &nbsp; &nbsp; &nbsp;<font class='posOutcome'>Shared back: <strong>4</strong></font></font><div class='respPicDiv'><img src='img/responseButtonOffersNo0_wht.png' class='respPic'></div></div>","null","","1","Joseph","4","Shared","0.8,0.35","8","0.8","trustrating_stim/white_00659_941121_fa_edt.bmp","3.5","18","3"
"html-keyboard-response","147","561776","0.0-19.0-1.3","63d1834e69a637cd32f16634","bdp_trlrn","Wed Mar 15 2023 23:30:10 GMT-0400 (Eastern Daylight Time)","3050074","Trustworthy,Untrustworthy","","7307","","","","decision","","<div class='trialDiv'><img src='trustrating_stim/white_00109_931230_fa_edt.bmp'><br><font class='baseline'><strong>Richard</strong><p>Choose number of points to send.</font><div class='respPicDiv'><img src='img/responseButtonOffersNo0L.png' class='respPic'></div></div>","5","","2","Richard","11","Shared","0.65,0.35","12","0.65","trustrating_stim/white_00109_931230_fa_edt.bmp","8","23","4"
"html-keyboard-response","148","562028","0.0-19.0-2.3","63d1834e69a637cd32f16634","bdp_trlrn","Wed Mar 15 2023 23:30:10 GMT-0400 (Eastern Daylight Time)","3050074","Trustworthy,Untrustworthy","","null","","","","decisionFB","","<div class='trialDiv'><img src='trustrating_stim/white_00109_931230_fa_edt.bmp'><br><font class='baseline'><strong>Richard</strong><p>Choose number of points to send.</font><div class='respPicDiv'><img src='img/responseButtonOffersNo0L5.png' class='respPic'></div></div>","null","","2","Richard","11","Shared","0.65,0.35","12","0.65","trustrating_stim/white_00109_931230_fa_edt.bmp","8","18","4"
"html-keyboard-response","149","563042","0.0-19.0-3.3","63d1834e69a637cd32f16634","bdp_trlrn","Wed Mar 15 2023 23:30:10 GMT-0400 (Eastern Daylight Time)","3050074","Trustworthy,Untrustworthy","","null","","","","feedback","","<div class='trialDiv'><img src='trustrating_stim/white_00109_931230_fa_edt.bmp'><br><font class='baseline'><strong>Richard</strong><p>Received: <strong>20</strong></font> &nbsp; &nbsp; &nbsp; &nbsp; &nbsp; &nbsp;<font class='posOutcome'>Shared back: <strong>10</strong></font></font><div class='respPicDiv'><img src='img/responseButtonOffersNo0_wht.png' class='respPic'></div></div>","null","","2","Richard","11","Shared","0.65,0.35","12","0.65","trustrating_stim/white_00109_931230_fa_edt.bmp","8","28","4"
"html-keyboard-response","150","565281","0.0-19.0-1.4","63d1834e69a637cd32f16634","bdp_trlrn","Wed Mar 15 2023 23:30:10 GMT-0400 (Eastern Daylight Time)","3050074","Trustworthy,Untrustworthy","","2238","","","","decision","","<div class='trialDiv'><img src='trustrating_stim/white_mw060.bmp'><br><font class='baseline'><strong>Brian</strong><p>Choose number of points to send.</font><div class='respPicDiv'><img src='img/responseButtonOffersNo0L.png' class='respPic'></div></div>","1","","2","Brian","2","Kept","0.35,0.8","11","0.35","trustrating_stim/white_mw060.bmp","1.5","33","5"
"html-keyboard-response","151","565545","0.0-19.0-2.4","63d1834e69a637cd32f16634","bdp_trlrn","Wed Mar 15 2023 23:30:10 GMT-0400 (Eastern Daylight Time)","3050074","Trustworthy,Untrustworthy","","null","","","","decisionFB","","<div class='trialDiv'><img src='trustrating_stim/white_mw060.bmp'><br><font class='baseline'><strong>Brian</strong><p>Choose number of points to send.</font><div class='respPicDiv'><img src='img/responseButtonOffersNo0L1.png' class='respPic'></div></div>","null","","2","Brian","2","Kept","0.35,0.8","11","0.35","trustrating_stim/white_mw060.bmp","1.5","32","5"
"html-keyboard-response","152","566555","0.0-19.0-3.4","63d1834e69a637cd32f16634","bdp_trlrn","Wed Mar 15 2023 23:30:10 GMT-0400 (Eastern Daylight Time)","3050074","Trustworthy,Untrustworthy","","null","","","","feedback","","<div class='trialDiv'><img src='trustrating_stim/white_mw060.bmp'><br><font class='baseline'><strong>Brian</strong><p>Received: <strong>4</strong></font> &nbsp; &nbsp; &nbsp; &nbsp; &nbsp; &nbsp;<font class='negOutcome'>Shared back: <strong>0</strong></font></font><div class='respPicDiv'><img src='img/responseButtonOffersNo0_wht.png' class='respPic'></div></div>","null","","2","Brian","2","Kept","0.35,0.8","11","0.35","trustrating_stim/white_mw060.bmp","1.5","32","5"
"html-keyboard-response","153","570974","0.0-19.0-1.5","63d1834e69a637cd32f16634","bdp_trlrn","Wed Mar 15 2023 23:30:10 GMT-0400 (Eastern Daylight Time)","3050074","Trustworthy,Untrustworthy","","4418","","","","decision","","<div class='trialDiv'><img src='trustrating_stim/white_00659_941121_fa_edt.bmp'><br><font class='baseline'><strong>Joseph</strong><p>Choose number of points to send.</font><div class='respPicDiv'><img src='img/responseButtonOffersNo0L.png' class='respPic'></div></div>","5","","2","Joseph","4","Shared","0.8,0.35","8","0.8","trustrating_stim/white_00659_941121_fa_edt.bmp","3.5","37","6"
"html-keyboard-response","154","571234","0.0-19.0-2.5","63d1834e69a637cd32f16634","bdp_trlrn","Wed Mar 15 2023 23:30:10 GMT-0400 (Eastern Daylight Time)","3050074","Trustworthy,Untrustworthy","","null","","","","decisionFB","","<div class='trialDiv'><img src='trustrating_stim/white_00659_941121_fa_edt.bmp'><br><font class='baseline'><strong>Joseph</strong><p>Choose number of points to send.</font><div class='respPicDiv'><img src='img/responseButtonOffersNo0L5.png' class='respPic'></div></div>","null","","2","Joseph","4","Shared","0.8,0.35","8","0.8","trustrating_stim/white_00659_941121_fa_edt.bmp","3.5","32","6"
"html-keyboard-response","155","572247","0.0-19.0-3.5","63d1834e69a637cd32f16634","bdp_trlrn","Wed Mar 15 2023 23:30:10 GMT-0400 (Eastern Daylight Time)","3050074","Trustworthy,Untrustworthy","","null","","","","feedback","","<div class='trialDiv'><img src='trustrating_stim/white_00659_941121_fa_edt.bmp'><br><font class='baseline'><strong>Joseph</strong><p>Received: <strong>20</strong></font> &nbsp; &nbsp; &nbsp; &nbsp; &nbsp; &nbsp;<font class='posOutcome'>Shared back: <strong>10</strong></font></font><div class='respPicDiv'><img src='img/responseButtonOffersNo0_wht.png' class='respPic'></div></div>","null","","2","Joseph","4","Shared","0.8,0.35","8","0.8","trustrating_stim/white_00659_941121_fa_edt.bmp","3.5","42","6"
"html-keyboard-response","156","574140","0.0-19.0-1.6","63d1834e69a637cd32f16634","bdp_trlrn","Wed Mar 15 2023 23:30:10 GMT-0400 (Eastern Daylight Time)","3050074","Trustworthy,Untrustworthy","","1892","","","","decision","","<div class='trialDiv'><img src='trustrating_stim/white_mw060.bmp'><br><font class='baseline'><strong>Brian</strong><p>Choose number of points to send.</font><div class='respPicDiv'><img src='img/responseButtonOffersNo0L.png' class='respPic'></div></div>","1","","3","Brian","2","Shared","0.35,0.8","11","0.35","trustrating_stim/white_mw060.bmp","1.5","47","7"
"html-keyboard-response","157","574396","0.0-19.0-2.6","63d1834e69a637cd32f16634","bdp_trlrn","Wed Mar 15 2023 23:30:10 GMT-0400 (Eastern Daylight Time)","3050074","Trustworthy,Untrustworthy","","null","","","","decisionFB","","<div class='trialDiv'><img src='trustrating_stim/white_mw060.bmp'><br><font class='baseline'><strong>Brian</strong><p>Choose number of points to send.</font><div class='respPicDiv'><img src='img/responseButtonOffersNo0L1.png' class='respPic'></div></div>","null","","3","Brian","2","Shared","0.35,0.8","11","0.35","trustrating_stim/white_mw060.bmp","1.5","46","7"
"html-keyboard-response","158","575403","0.0-19.0-3.6","63d1834e69a637cd32f16634","bdp_trlrn","Wed Mar 15 2023 23:30:10 GMT-0400 (Eastern Daylight Time)","3050074","Trustworthy,Untrustworthy","","null","","","","feedback","","<div class='trialDiv'><img src='trustrating_stim/white_mw060.bmp'><br><font class='baseline'><strong>Brian</strong><p>Received: <strong>4</strong></font> &nbsp; &nbsp; &nbsp; &nbsp; &nbsp; &nbsp;<font class='posOutcome'>Shared back: <strong>2</strong></font></font><div class='respPicDiv'><img src='img/responseButtonOffersNo0_wht.png' class='respPic'></div></div>","null","","3","Brian","2","Shared","0.35,0.8","11","0.35","trustrating_stim/white_mw060.bmp","1.5","48","7"
"html-keyboard-response","159","577185","0.0-19.0-1.7","63d1834e69a637cd32f16634","bdp_trlrn","Wed Mar 15 2023 23:30:10 GMT-0400 (Eastern Daylight Time)","3050074","Trustworthy,Untrustworthy","","1781","","","","decision","","<div class='trialDiv'><img src='trustrating_stim/white_00109_931230_fa_edt.bmp'><br><font class='baseline'><strong>Richard</strong><p>Choose number of points to send.</font><div class='respPicDiv'><img src='img/responseButtonOffersNo0L.png' class='respPic'></div></div>","5","","3","Richard","11","Shared","0.65,0.35","12","0.65","trustrating_stim/white_00109_931230_fa_edt.bmp","8","53","8"
"html-keyboard-response","160","577444","0.0-19.0-2.7","63d1834e69a637cd32f16634","bdp_trlrn","Wed Mar 15 2023 23:30:10 GMT-0400 (Eastern Daylight Time)","3050074","Trustworthy,Untrustworthy","","null","","","","decisionFB","","<div class='trialDiv'><img src='trustrating_stim/white_00109_931230_fa_edt.bmp'><br><font class='baseline'><strong>Richard</strong><p>Choose number of points to send.</font><div class='respPicDiv'><img src='img/responseButtonOffersNo0L5.png' class='respPic'></div></div>","null","","3","Richard","11","Shared","0.65,0.35","12","0.65","trustrating_stim/white_00109_931230_fa_edt.bmp","8","48","8"
"html-keyboard-response","161","578450","0.0-19.0-3.7","63d1834e69a637cd32f16634","bdp_trlrn","Wed Mar 15 2023 23:30:10 GMT-0400 (Eastern Daylight Time)","3050074","Trustworthy,Untrustworthy","","null","","","","feedback","","<div class='trialDiv'><img src='trustrating_stim/white_00109_931230_fa_edt.bmp'><br><font class='baseline'><strong>Richard</strong><p>Received: <strong>20</strong></font> &nbsp; &nbsp; &nbsp; &nbsp; &nbsp; &nbsp;<font class='posOutcome'>Shared back: <strong>10</strong></font></font><div class='respPicDiv'><img src='img/responseButtonOffersNo0_wht.png' class='respPic'></div></div>","null","","3","Richard","11","Shared","0.65,0.35","12","0.65","trustrating_stim/white_00109_931230_fa_edt.bmp","8","58","8"
"html-keyboard-response","162","579306","0.0-19.0-1.8","63d1834e69a637cd32f16634","bdp_trlrn","Wed Mar 15 2023 23:30:10 GMT-0400 (Eastern Daylight Time)","3050074","Trustworthy,Untrustworthy","","855","","","","decision","","<div class='trialDiv'><img src='trustrating_stim/white_00659_941121_fa_edt.bmp'><br><font class='baseline'><strong>Joseph</strong><p>Choose number of points to send.</font><div class='respPicDiv'><img src='img/responseButtonOffersNo0L.png' class='respPic'></div></div>","5","","3","Joseph","4","Shared","0.8,0.35","8","0.8","trustrating_stim/white_00659_941121_fa_edt.bmp","3.5","63","9"
"html-keyboard-response","163","579573","0.0-19.0-2.8","63d1834e69a637cd32f16634","bdp_trlrn","Wed Mar 15 2023 23:30:10 GMT-0400 (Eastern Daylight Time)","3050074","Trustworthy,Untrustworthy","","null","","","","decisionFB","","<div class='trialDiv'><img src='trustrating_stim/white_00659_941121_fa_edt.bmp'><br><font class='baseline'><strong>Joseph</strong><p>Choose number of points to send.</font><div class='respPicDiv'><img src='img/responseButtonOffersNo0L5.png' class='respPic'></div></div>","null","","3","Joseph","4","Shared","0.8,0.35","8","0.8","trustrating_stim/white_00659_941121_fa_edt.bmp","3.5","58","9"
"html-keyboard-response","164","580579","0.0-19.0-3.8","63d1834e69a637cd32f16634","bdp_trlrn","Wed Mar 15 2023 23:30:10 GMT-0400 (Eastern Daylight Time)","3050074","Trustworthy,Untrustworthy","","null","","","","feedback","","<div class='trialDiv'><img src='trustrating_stim/white_00659_941121_fa_edt.bmp'><br><font class='baseline'><strong>Joseph</strong><p>Received: <strong>20</strong></font> &nbsp; &nbsp; &nbsp; &nbsp; &nbsp; &nbsp;<font class='posOutcome'>Shared back: <strong>10</strong></font></font><div class='respPicDiv'><img src='img/responseButtonOffersNo0_wht.png' class='respPic'></div></div>","null","","3","Joseph","4","Shared","0.8,0.35","8","0.8","trustrating_stim/white_00659_941121_fa_edt.bmp","3.5","68","9"
"html-keyboard-response","165","583072","0.0-19.0-1.9","63d1834e69a637cd32f16634","bdp_trlrn","Wed Mar 15 2023 23:30:10 GMT-0400 (Eastern Daylight Time)","3050074","Trustworthy,Untrustworthy","","2491","","","","decision","","<div class='trialDiv'><img src='trustrating_stim/white_mw060.bmp'><br><font class='baseline'><strong>Brian</strong><p>Choose number of points to send.</font><div class='respPicDiv'><img src='img/responseButtonOffersNo0L.png' class='respPic'></div></div>","2","","4","Brian","2","Shared","0.35,0.8","11","0.35","trustrating_stim/white_mw060.bmp","1.5","73","10"
"html-keyboard-response","166","583328","0.0-19.0-2.9","63d1834e69a637cd32f16634","bdp_trlrn","Wed Mar 15 2023 23:30:10 GMT-0400 (Eastern Daylight Time)","3050074","Trustworthy,Untrustworthy","","null","","","","decisionFB","","<div class='trialDiv'><img src='trustrating_stim/white_mw060.bmp'><br><font class='baseline'><strong>Brian</strong><p>Choose number of points to send.</font><div class='respPicDiv'><img src='img/responseButtonOffersNo0L2.png' class='respPic'></div></div>","null","","4","Brian","2","Shared","0.35,0.8","11","0.35","trustrating_stim/white_mw060.bmp","1.5","71","10"
"html-keyboard-response","167","584341","0.0-19.0-3.9","63d1834e69a637cd32f16634","bdp_trlrn","Wed Mar 15 2023 23:30:10 GMT-0400 (Eastern Daylight Time)","3050074","Trustworthy,Untrustworthy","","null","","","","feedback","","<div class='trialDiv'><img src='trustrating_stim/white_mw060.bmp'><br><font class='baseline'><strong>Brian</strong><p>Received: <strong>8</strong></font> &nbsp; &nbsp; &nbsp; &nbsp; &nbsp; &nbsp;<font class='posOutcome'>Shared back: <strong>4</strong></font></font><div class='respPicDiv'><img src='img/responseButtonOffersNo0_wht.png' class='respPic'></div></div>","null","","4","Brian","2","Shared","0.35,0.8","11","0.35","trustrating_stim/white_mw060.bmp","1.5","75","10"
"html-keyboard-response","168","585775","0.0-19.0-1.10","63d1834e69a637cd32f16634","bdp_trlrn","Wed Mar 15 2023 23:30:10 GMT-0400 (Eastern Daylight Time)","3050074","Trustworthy,Untrustworthy","","1432","","","","decision","","<div class='trialDiv'><img src='trustrating_stim/white_00659_941121_fa_edt.bmp'><br><font class='baseline'><strong>Joseph</strong><p>Choose number of points to send.</font><div class='respPicDiv'><img src='img/responseButtonOffersNo0L.png' class='respPic'></div></div>","5","","4","Joseph","4","Shared","0.8,0.35","8","0.8","trustrating_stim/white_00659_941121_fa_edt.bmp","3.5","80","11"
"html-keyboard-response","169","586028","0.0-19.0-2.10","63d1834e69a637cd32f16634","bdp_trlrn","Wed Mar 15 2023 23:30:10 GMT-0400 (Eastern Daylight Time)","3050074","Trustworthy,Untrustworthy","","null","","","","decisionFB","","<div class='trialDiv'><img src='trustrating_stim/white_00659_941121_fa_edt.bmp'><br><font class='baseline'><strong>Joseph</strong><p>Choose number of points to send.</font><div class='respPicDiv'><img src='img/responseButtonOffersNo0L5.png' class='respPic'></div></div>","null","","4","Joseph","4","Shared","0.8,0.35","8","0.8","trustrating_stim/white_00659_941121_fa_edt.bmp","3.5","75","11"
"html-keyboard-response","170","587041","0.0-19.0-3.10","63d1834e69a637cd32f16634","bdp_trlrn","Wed Mar 15 2023 23:30:10 GMT-0400 (Eastern Daylight Time)","3050074","Trustworthy,Untrustworthy","","null","","","","feedback","","<div class='trialDiv'><img src='trustrating_stim/white_00659_941121_fa_edt.bmp'><br><font class='baseline'><strong>Joseph</strong><p>Received: <strong>20</strong></font> &nbsp; &nbsp; &nbsp; &nbsp; &nbsp; &nbsp;<font class='posOutcome'>Shared back: <strong>10</strong></font></font><div class='respPicDiv'><img src='img/responseButtonOffersNo0_wht.png' class='respPic'></div></div>","null","","4","Joseph","4","Shared","0.8,0.35","8","0.8","trustrating_stim/white_00659_941121_fa_edt.bmp","3.5","85","11"
"html-keyboard-response","171","587748","0.0-19.0-1.11","63d1834e69a637cd32f16634","bdp_trlrn","Wed Mar 15 2023 23:30:10 GMT-0400 (Eastern Daylight Time)","3050074","Trustworthy,Untrustworthy","","706","","","","decision","","<div class='trialDiv'><img src='trustrating_stim/white_00109_931230_fa_edt.bmp'><br><font class='baseline'><strong>Richard</strong><p>Choose number of points to send.</font><div class='respPicDiv'><img src='img/responseButtonOffersNo0L.png' class='respPic'></div></div>","5","","4","Richard","11","Shared","0.65,0.35","12","0.65","trustrating_stim/white_00109_931230_fa_edt.bmp","8","90","12"
"html-keyboard-response","172","588013","0.0-19.0-2.11","63d1834e69a637cd32f16634","bdp_trlrn","Wed Mar 15 2023 23:30:10 GMT-0400 (Eastern Daylight Time)","3050074","Trustworthy,Untrustworthy","","null","","","","decisionFB","","<div class='trialDiv'><img src='trustrating_stim/white_00109_931230_fa_edt.bmp'><br><font class='baseline'><strong>Richard</strong><p>Choose number of points to send.</font><div class='respPicDiv'><img src='img/responseButtonOffersNo0L5.png' class='respPic'></div></div>","null","","4","Richard","11","Shared","0.65,0.35","12","0.65","trustrating_stim/white_00109_931230_fa_edt.bmp","8","85","12"
"html-keyboard-response","173","589018","0.0-19.0-3.11","63d1834e69a637cd32f16634","bdp_trlrn","Wed Mar 15 2023 23:30:10 GMT-0400 (Eastern Daylight Time)","3050074","Trustworthy,Untrustworthy","","null","","","","feedback","","<div class='trialDiv'><img src='trustrating_stim/white_00109_931230_fa_edt.bmp'><br><font class='baseline'><strong>Richard</strong><p>Received: <strong>20</strong></font> &nbsp; &nbsp; &nbsp; &nbsp; &nbsp; &nbsp;<font class='posOutcome'>Shared back: <strong>10</strong></font></font><div class='respPicDiv'><img src='img/responseButtonOffersNo0_wht.png' class='respPic'></div></div>","null","","4","Richard","11","Shared","0.65,0.35","12","0.65","trustrating_stim/white_00109_931230_fa_edt.bmp","8","95","12"
"html-keyboard-response","174","590183","0.0-19.0-1.12","63d1834e69a637cd32f16634","bdp_trlrn","Wed Mar 15 2023 23:30:10 GMT-0400 (Eastern Daylight Time)","3050074","Trustworthy,Untrustworthy","","1164","","","","decision","","<div class='trialDiv'><img src='trustrating_stim/white_00659_941121_fa_edt.bmp'><br><font class='baseline'><strong>Joseph</strong><p>Choose number of points to send.</font><div class='respPicDiv'><img src='img/responseButtonOffersNo0L.png' class='respPic'></div></div>","5","","5","Joseph","4","Shared","0.8,0.35","8","0.8","trustrating_stim/white_00659_941121_fa_edt.bmp","3.5","100","13"
"html-keyboard-response","175","590446","0.0-19.0-2.12","63d1834e69a637cd32f16634","bdp_trlrn","Wed Mar 15 2023 23:30:10 GMT-0400 (Eastern Daylight Time)","3050074","Trustworthy,Untrustworthy","","null","","","","decisionFB","","<div class='trialDiv'><img src='trustrating_stim/white_00659_941121_fa_edt.bmp'><br><font class='baseline'><strong>Joseph</strong><p>Choose number of points to send.</font><div class='respPicDiv'><img src='img/responseButtonOffersNo0L5.png' class='respPic'></div></div>","null","","5","Joseph","4","Shared","0.8,0.35","8","0.8","trustrating_stim/white_00659_941121_fa_edt.bmp","3.5","95","13"
"html-keyboard-response","176","591463","0.0-19.0-3.12","63d1834e69a637cd32f16634","bdp_trlrn","Wed Mar 15 2023 23:30:10 GMT-0400 (Eastern Daylight Time)","3050074","Trustworthy,Untrustworthy","","null","","","","feedback","","<div class='trialDiv'><img src='trustrating_stim/white_00659_941121_fa_edt.bmp'><br><font class='baseline'><strong>Joseph</strong><p>Received: <strong>20</strong></font> &nbsp; &nbsp; &nbsp; &nbsp; &nbsp; &nbsp;<font class='posOutcome'>Shared back: <strong>10</strong></font></font><div class='respPicDiv'><img src='img/responseButtonOffersNo0_wht.png' class='respPic'></div></div>","null","","5","Joseph","4","Shared","0.8,0.35","8","0.8","trustrating_stim/white_00659_941121_fa_edt.bmp","3.5","105","13"
"html-keyboard-response","177","593197","0.0-19.0-1.13","63d1834e69a637cd32f16634","bdp_trlrn","Wed Mar 15 2023 23:30:10 GMT-0400 (Eastern Daylight Time)","3050074","Trustworthy,Untrustworthy","","1733","","","","decision","","<div class='trialDiv'><img src='trustrating_stim/white_mw060.bmp'><br><font class='baseline'><strong>Brian</strong><p>Choose number of points to send.</font><div class='respPicDiv'><img src='img/responseButtonOffersNo0L.png' class='respPic'></div></div>","3","","5","Brian","2","Shared","0.35,0.8","11","0.35","trustrating_stim/white_mw060.bmp","1.5","110","14"
"html-keyboard-response","178","593451","0.0-19.0-2.13","63d1834e69a637cd32f16634","bdp_trlrn","Wed Mar 15 2023 23:30:10 GMT-0400 (Eastern Daylight Time)","3050074","Trustworthy,Untrustworthy","","null","","","","decisionFB","","<div class='trialDiv'><img src='trustrating_stim/white_mw060.bmp'><br><font class='baseline'><strong>Brian</strong><p>Choose number of points to send.</font><div class='respPicDiv'><img src='img/responseButtonOffersNo0L3.png' class='respPic'></div></div>","null","","5","Brian","2","Shared","0.35,0.8","11","0.35","trustrating_stim/white_mw060.bmp","1.5","107","14"
"html-keyboard-response","179","594462","0.0-19.0-3.13","63d1834e69a637cd32f16634","bdp_trlrn","Wed Mar 15 2023 23:30:10 GMT-0400 (Eastern Daylight Time)","3050074","Trustworthy,Untrustworthy","","null","","","","feedback","","<div class='trialDiv'><img src='trustrating_stim/white_mw060.bmp'><br><font class='baseline'><strong>Brian</strong><p>Received: <strong>12</strong></font> &nbsp; &nbsp; &nbsp; &nbsp; &nbsp; &nbsp;<font class='posOutcome'>Shared back: <strong>6</strong></font></font><div class='respPicDiv'><img src='img/responseButtonOffersNo0_wht.png' class='respPic'></div></div>","null","","5","Brian","2","Shared","0.35,0.8","11","0.35","trustrating_stim/white_mw060.bmp","1.5","113","14"
"html-keyboard-response","180","595331","0.0-19.0-1.14","63d1834e69a637cd32f16634","bdp_trlrn","Wed Mar 15 2023 23:30:10 GMT-0400 (Eastern Daylight Time)","3050074","Trustworthy,Untrustworthy","","867","","","","decision","","<div class='trialDiv'><img src='trustrating_stim/white_00109_931230_fa_edt.bmp'><br><font class='baseline'><strong>Richard</strong><p>Choose number of points to send.</font><div class='respPicDiv'><img src='img/responseButtonOffersNo0L.png' class='respPic'></div></div>","5","","5","Richard","11","Shared","0.65,0.35","12","0.65","trustrating_stim/white_00109_931230_fa_edt.bmp","8","118","15"
"html-keyboard-response","181","595596","0.0-19.0-2.14","63d1834e69a637cd32f16634","bdp_trlrn","Wed Mar 15 2023 23:30:10 GMT-0400 (Eastern Daylight Time)","3050074","Trustworthy,Untrustworthy","","null","","","","decisionFB","","<div class='trialDiv'><img src='trustrating_stim/white_00109_931230_fa_edt.bmp'><br><font class='baseline'><strong>Richard</strong><p>Choose number of points to send.</font><div class='respPicDiv'><img src='img/responseButtonOffersNo0L5.png' class='respPic'></div></div>","null","","5","Richard","11","Shared","0.65,0.35","12","0.65","trustrating_stim/white_00109_931230_fa_edt.bmp","8","113","15"
"html-keyboard-response","182","596607","0.0-19.0-3.14","63d1834e69a637cd32f16634","bdp_trlrn","Wed Mar 15 2023 23:30:10 GMT-0400 (Eastern Daylight Time)","3050074","Trustworthy,Untrustworthy","","null","","","","feedback","","<div class='trialDiv'><img src='trustrating_stim/white_00109_931230_fa_edt.bmp'><br><font class='baseline'><strong>Richard</strong><p>Received: <strong>20</strong></font> &nbsp; &nbsp; &nbsp; &nbsp; &nbsp; &nbsp;<font class='posOutcome'>Shared back: <strong>10</strong></font></font><div class='respPicDiv'><img src='img/responseButtonOffersNo0_wht.png' class='respPic'></div></div>","null","","5","Richard","11","Shared","0.65,0.35","12","0.65","trustrating_stim/white_00109_931230_fa_edt.bmp","8","123","15"
"html-keyboard-response","183","597134","0.0-19.0-1.15","63d1834e69a637cd32f16634","bdp_trlrn","Wed Mar 15 2023 23:30:10 GMT-0400 (Eastern Daylight Time)","3050074","Trustworthy,Untrustworthy","","525","","","","decision","","<div class='trialDiv'><img src='trustrating_stim/white_mw060.bmp'><br><font class='baseline'><strong>Brian</strong><p>Choose number of points to send.</font><div class='respPicDiv'><img src='img/responseButtonOffersNo0L.png' class='respPic'></div></div>","5","","6","Brian","2","Kept","0.35,0.8","11","0.35","trustrating_stim/white_mw060.bmp","1.5","128","16"
"html-keyboard-response","184","597388","0.0-19.0-2.15","63d1834e69a637cd32f16634","bdp_trlrn","Wed Mar 15 2023 23:30:10 GMT-0400 (Eastern Daylight Time)","3050074","Trustworthy,Untrustworthy","","null","","","","decisionFB","","<div class='trialDiv'><img src='trustrating_stim/white_mw060.bmp'><br><font class='baseline'><strong>Brian</strong><p>Choose number of points to send.</font><div class='respPicDiv'><img src='img/responseButtonOffersNo0L5.png' class='respPic'></div></div>","null","","6","Brian","2","Kept","0.35,0.8","11","0.35","trustrating_stim/white_mw060.bmp","1.5","123","16"
"html-keyboard-response","185","598391","0.0-19.0-3.15","63d1834e69a637cd32f16634","bdp_trlrn","Wed Mar 15 2023 23:30:10 GMT-0400 (Eastern Daylight Time)","3050074","Trustworthy,Untrustworthy","","null","","","","feedback","","<div class='trialDiv'><img src='trustrating_stim/white_mw060.bmp'><br><font class='baseline'><strong>Brian</strong><p>Received: <strong>20</strong></font> &nbsp; &nbsp; &nbsp; &nbsp; &nbsp; &nbsp;<font class='negOutcome'>Shared back: <strong>0</strong></font></font><div class='respPicDiv'><img src='img/responseButtonOffersNo0_wht.png' class='respPic'></div></div>","null","","6","Brian","2","Kept","0.35,0.8","11","0.35","trustrating_stim/white_mw060.bmp","1.5","123","16"
"html-keyboard-response","186","599884","0.0-19.0-1.16","63d1834e69a637cd32f16634","bdp_trlrn","Wed Mar 15 2023 23:30:10 GMT-0400 (Eastern Daylight Time)","3050074","Trustworthy,Untrustworthy","","1492","","","","decision","","<div class='trialDiv'><img src='trustrating_stim/white_00109_931230_fa_edt.bmp'><br><font class='baseline'><strong>Richard</strong><p>Choose number of points to send.</font><div class='respPicDiv'><img src='img/responseButtonOffersNo0L.png' class='respPic'></div></div>","5","","6","Richard","11","Kept","0.65,0.35","12","0.65","trustrating_stim/white_00109_931230_fa_edt.bmp","8","128","17"
"html-keyboard-response","187","600140","0.0-19.0-2.16","63d1834e69a637cd32f16634","bdp_trlrn","Wed Mar 15 2023 23:30:10 GMT-0400 (Eastern Daylight Time)","3050074","Trustworthy,Untrustworthy","","null","","","","decisionFB","","<div class='trialDiv'><img src='trustrating_stim/white_00109_931230_fa_edt.bmp'><br><font class='baseline'><strong>Richard</strong><p>Choose number of points to send.</font><div class='respPicDiv'><img src='img/responseButtonOffersNo0L5.png' class='respPic'></div></div>","null","","6","Richard","11","Kept","0.65,0.35","12","0.65","trustrating_stim/white_00109_931230_fa_edt.bmp","8","123","17"
"html-keyboard-response","188","601146","0.0-19.0-3.16","63d1834e69a637cd32f16634","bdp_trlrn","Wed Mar 15 2023 23:30:10 GMT-0400 (Eastern Daylight Time)","3050074","Trustworthy,Untrustworthy","","null","","","","feedback","","<div class='trialDiv'><img src='trustrating_stim/white_00109_931230_fa_edt.bmp'><br><font class='baseline'><strong>Richard</strong><p>Received: <strong>20</strong></font> &nbsp; &nbsp; &nbsp; &nbsp; &nbsp; &nbsp;<font class='negOutcome'>Shared back: <strong>0</strong></font></font><div class='respPicDiv'><img src='img/responseButtonOffersNo0_wht.png' class='respPic'></div></div>","null","","6","Richard","11","Kept","0.65,0.35","12","0.65","trustrating_stim/white_00109_931230_fa_edt.bmp","8","123","17"
"html-keyboard-response","189","601933","0.0-19.0-1.17","63d1834e69a637cd32f16634","bdp_trlrn","Wed Mar 15 2023 23:30:10 GMT-0400 (Eastern Daylight Time)","3050074","Trustworthy,Untrustworthy","","786","","","","decision","","<div class='trialDiv'><img src='trustrating_stim/white_00659_941121_fa_edt.bmp'><br><font class='baseline'><strong>Joseph</strong><p>Choose number of points to send.</font><div class='respPicDiv'><img src='img/responseButtonOffersNo0L.png' class='respPic'></div></div>","5","","6","Joseph","4","Kept","0.8,0.35","8","0.8","trustrating_stim/white_00659_941121_fa_edt.bmp","3.5","128","18"
"html-keyboard-response","190","602196","0.0-19.0-2.17","63d1834e69a637cd32f16634","bdp_trlrn","Wed Mar 15 2023 23:30:10 GMT-0400 (Eastern Daylight Time)","3050074","Trustworthy,Untrustworthy","","null","","","","decisionFB","","<div class='trialDiv'><img src='trustrating_stim/white_00659_941121_fa_edt.bmp'><br><font class='baseline'><strong>Joseph</strong><p>Choose number of points to send.</font><div class='respPicDiv'><img src='img/responseButtonOffersNo0L5.png' class='respPic'></div></div>","null","","6","Joseph","4","Kept","0.8,0.35","8","0.8","trustrating_stim/white_00659_941121_fa_edt.bmp","3.5","123","18"
"html-keyboard-response","191","603203","0.0-19.0-3.17","63d1834e69a637cd32f16634","bdp_trlrn","Wed Mar 15 2023 23:30:10 GMT-0400 (Eastern Daylight Time)","3050074","Trustworthy,Untrustworthy","","null","","","","feedback","","<div class='trialDiv'><img src='trustrating_stim/white_00659_941121_fa_edt.bmp'><br><font class='baseline'><strong>Joseph</strong><p>Received: <strong>20</strong></font> &nbsp; &nbsp; &nbsp; &nbsp; &nbsp; &nbsp;<font class='negOutcome'>Shared back: <strong>0</strong></font></font><div class='respPicDiv'><img src='img/responseButtonOffersNo0_wht.png' class='respPic'></div></div>","null","","6","Joseph","4","Kept","0.8,0.35","8","0.8","trustrating_stim/white_00659_941121_fa_edt.bmp","3.5","123","18"
"html-keyboard-response","192","605624","0.0-19.0-1.18","63d1834e69a637cd32f16634","bdp_trlrn","Wed Mar 15 2023 23:30:10 GMT-0400 (Eastern Daylight Time)","3050074","Trustworthy,Untrustworthy","","2420","","","","decision","","<div class='trialDiv'><img src='trustrating_stim/white_mw060.bmp'><br><font class='baseline'><strong>Brian</strong><p>Choose number of points to send.</font><div class='respPicDiv'><img src='img/responseButtonOffersNo0L.png' class='respPic'></div></div>","1","","7","Brian","2","Kept","0.35,0.8","11","0.35","trustrating_stim/white_mw060.bmp","1.5","128","19"
"html-keyboard-response","193","605881","0.0-19.0-2.18","63d1834e69a637cd32f16634","bdp_trlrn","Wed Mar 15 2023 23:30:10 GMT-0400 (Eastern Daylight Time)","3050074","Trustworthy,Untrustworthy","","null","","","","decisionFB","","<div class='trialDiv'><img src='trustrating_stim/white_mw060.bmp'><br><font class='baseline'><strong>Brian</strong><p>Choose number of points to send.</font><div class='respPicDiv'><img src='img/responseButtonOffersNo0L1.png' class='respPic'></div></div>","null","","7","Brian","2","Kept","0.35,0.8","11","0.35","trustrating_stim/white_mw060.bmp","1.5","127","19"
"html-keyboard-response","194","606888","0.0-19.0-3.18","63d1834e69a637cd32f16634","bdp_trlrn","Wed Mar 15 2023 23:30:10 GMT-0400 (Eastern Daylight Time)","3050074","Trustworthy,Untrustworthy","","null","","","","feedback","","<div class='trialDiv'><img src='trustrating_stim/white_mw060.bmp'><br><font class='baseline'><strong>Brian</strong><p>Received: <strong>4</strong></font> &nbsp; &nbsp; &nbsp; &nbsp; &nbsp; &nbsp;<font class='negOutcome'>Shared back: <strong>0</strong></font></font><div class='respPicDiv'><img src='img/responseButtonOffersNo0_wht.png' class='respPic'></div></div>","null","","7","Brian","2","Kept","0.35,0.8","11","0.35","trustrating_stim/white_mw060.bmp","1.5","127","19"
"html-keyboard-response","195","607866","0.0-19.0-1.19","63d1834e69a637cd32f16634","bdp_trlrn","Wed Mar 15 2023 23:30:10 GMT-0400 (Eastern Daylight Time)","3050074","Trustworthy,Untrustworthy","","976","","","","decision","","<div class='trialDiv'><img src='trustrating_stim/white_00109_931230_fa_edt.bmp'><br><font class='baseline'><strong>Richard</strong><p>Choose number of points to send.</font><div class='respPicDiv'><img src='img/responseButtonOffersNo0L.png' class='respPic'></div></div>","3","","7","Richard","11","Shared","0.65,0.35","12","0.65","trustrating_stim/white_00109_931230_fa_edt.bmp","8","132","20"
"html-keyboard-response","196","608128","0.0-19.0-2.19","63d1834e69a637cd32f16634","bdp_trlrn","Wed Mar 15 2023 23:30:10 GMT-0400 (Eastern Daylight Time)","3050074","Trustworthy,Untrustworthy","","null","","","","decisionFB","","<div class='trialDiv'><img src='trustrating_stim/white_00109_931230_fa_edt.bmp'><br><font class='baseline'><strong>Richard</strong><p>Choose number of points to send.</font><div class='respPicDiv'><img src='img/responseButtonOffersNo0L3.png' class='respPic'></div></div>","null","","7","Richard","11","Shared","0.65,0.35","12","0.65","trustrating_stim/white_00109_931230_fa_edt.bmp","8","129","20"
"html-keyboard-response","197","609138","0.0-19.0-3.19","63d1834e69a637cd32f16634","bdp_trlrn","Wed Mar 15 2023 23:30:10 GMT-0400 (Eastern Daylight Time)","3050074","Trustworthy,Untrustworthy","","null","","","","feedback","","<div class='trialDiv'><img src='trustrating_stim/white_00109_931230_fa_edt.bmp'><br><font class='baseline'><strong>Richard</strong><p>Received: <strong>12</strong></font> &nbsp; &nbsp; &nbsp; &nbsp; &nbsp; &nbsp;<font class='posOutcome'>Shared back: <strong>6</strong></font></font><div class='respPicDiv'><img src='img/responseButtonOffersNo0_wht.png' class='respPic'></div></div>","null","","7","Richard","11","Shared","0.65,0.35","12","0.65","trustrating_stim/white_00109_931230_fa_edt.bmp","8","135","20"
"html-keyboard-response","198","609617","0.0-19.0-1.20","63d1834e69a637cd32f16634","bdp_trlrn","Wed Mar 15 2023 23:30:10 GMT-0400 (Eastern Daylight Time)","3050074","Trustworthy,Untrustworthy","","478","","","","decision","","<div class='trialDiv'><img src='trustrating_stim/white_00659_941121_fa_edt.bmp'><br><font class='baseline'><strong>Joseph</strong><p>Choose number of points to send.</font><div class='respPicDiv'><img src='img/responseButtonOffersNo0L.png' class='respPic'></div></div>","4","","7","Joseph","4","Kept","0.8,0.35","8","0.8","trustrating_stim/white_00659_941121_fa_edt.bmp","3.5","140","21"
"html-keyboard-response","199","609879","0.0-19.0-2.20","63d1834e69a637cd32f16634","bdp_trlrn","Wed Mar 15 2023 23:30:10 GMT-0400 (Eastern Daylight Time)","3050074","Trustworthy,Untrustworthy","","null","","","","decisionFB","","<div class='trialDiv'><img src='trustrating_stim/white_00659_941121_fa_edt.bmp'><br><font class='baseline'><strong>Joseph</strong><p>Choose number of points to send.</font><div class='respPicDiv'><img src='img/responseButtonOffersNo0L4.png' class='respPic'></div></div>","null","","7","Joseph","4","Kept","0.8,0.35","8","0.8","trustrating_stim/white_00659_941121_fa_edt.bmp","3.5","136","21"
"html-keyboard-response","200","610888","0.0-19.0-3.20","63d1834e69a637cd32f16634","bdp_trlrn","Wed Mar 15 2023 23:30:10 GMT-0400 (Eastern Daylight Time)","3050074","Trustworthy,Untrustworthy","","null","","","","feedback","","<div class='trialDiv'><img src='trustrating_stim/white_00659_941121_fa_edt.bmp'><br><font class='baseline'><strong>Joseph</strong><p>Received: <strong>16</strong></font> &nbsp; &nbsp; &nbsp; &nbsp; &nbsp; &nbsp;<font class='negOutcome'>Shared back: <strong>0</strong></font></font><div class='respPicDiv'><img src='img/responseButtonOffersNo0_wht.png' class='respPic'></div></div>","null","","7","Joseph","4","Kept","0.8,0.35","8","0.8","trustrating_stim/white_00659_941121_fa_edt.bmp","3.5","136","21"
"html-keyboard-response","201","612633","0.0-19.0-1.21","63d1834e69a637cd32f16634","bdp_trlrn","Wed Mar 15 2023 23:30:10 GMT-0400 (Eastern Daylight Time)","3050074","Trustworthy,Untrustworthy","","1744","","","","decision","","<div class='trialDiv'><img src='trustrating_stim/white_mw060.bmp'><br><font class='baseline'><strong>Brian</strong><p>Choose number of points to send.</font><div class='respPicDiv'><img src='img/responseButtonOffersNo0L.png' class='respPic'></div></div>","2","","8","Brian","2","Kept","0.35,0.8","11","0.35","trustrating_stim/white_mw060.bmp","1.5","141","22"
"html-keyboard-response","202","612895","0.0-19.0-2.21","63d1834e69a637cd32f16634","bdp_trlrn","Wed Mar 15 2023 23:30:10 GMT-0400 (Eastern Daylight Time)","3050074","Trustworthy,Untrustworthy","","null","","","","decisionFB","","<div class='trialDiv'><img src='trustrating_stim/white_mw060.bmp'><br><font class='baseline'><strong>Brian</strong><p>Choose number of points to send.</font><div class='respPicDiv'><img src='img/responseButtonOffersNo0L2.png' class='respPic'></div></div>","null","","8","Brian","2","Kept","0.35,0.8","11","0.35","trustrating_stim/white_mw060.bmp","1.5","139","22"
"html-keyboard-response","203","613906","0.0-19.0-3.21","63d1834e69a637cd32f16634","bdp_trlrn","Wed Mar 15 2023 23:30:10 GMT-0400 (Eastern Daylight Time)","3050074","Trustworthy,Untrustworthy","","null","","","","feedback","","<div class='trialDiv'><img src='trustrating_stim/white_mw060.bmp'><br><font class='baseline'><strong>Brian</strong><p>Received: <strong>8</strong></font> &nbsp; &nbsp; &nbsp; &nbsp; &nbsp; &nbsp;<font class='negOutcome'>Shared back: <strong>0</strong></font></font><div class='respPicDiv'><img src='img/responseButtonOffersNo0_wht.png' class='respPic'></div></div>","null","","8","Brian","2","Kept","0.35,0.8","11","0.35","trustrating_stim/white_mw060.bmp","1.5","139","22"
"html-keyboard-response","204","614948","0.0-19.0-1.22","63d1834e69a637cd32f16634","bdp_trlrn","Wed Mar 15 2023 23:30:10 GMT-0400 (Eastern Daylight Time)","3050074","Trustworthy,Untrustworthy","","1041","","","","decision","","<div class='trialDiv'><img src='trustrating_stim/white_00109_931230_fa_edt.bmp'><br><font class='baseline'><strong>Richard</strong><p>Choose number of points to send.</font><div class='respPicDiv'><img src='img/responseButtonOffersNo0L.png' class='respPic'></div></div>","5","","8","Richard","11","Shared","0.65,0.35","12","0.65","trustrating_stim/white_00109_931230_fa_edt.bmp","8","144","23"
"html-keyboard-response","205","615211","0.0-19.0-2.22","63d1834e69a637cd32f16634","bdp_trlrn","Wed Mar 15 2023 23:30:10 GMT-0400 (Eastern Daylight Time)","3050074","Trustworthy,Untrustworthy","","null","","","","decisionFB","","<div class='trialDiv'><img src='trustrating_stim/white_00109_931230_fa_edt.bmp'><br><font class='baseline'><strong>Richard</strong><p>Choose number of points to send.</font><div class='respPicDiv'><img src='img/responseButtonOffersNo0L5.png' class='respPic'></div></div>","null","","8","Richard","11","Shared","0.65,0.35","12","0.65","trustrating_stim/white_00109_931230_fa_edt.bmp","8","139","23"
"html-keyboard-response","206","616215","0.0-19.0-3.22","63d1834e69a637cd32f16634","bdp_trlrn","Wed Mar 15 2023 23:30:10 GMT-0400 (Eastern Daylight Time)","3050074","Trustworthy,Untrustworthy","","null","","","","feedback","","<div class='trialDiv'><img src='trustrating_stim/white_00109_931230_fa_edt.bmp'><br><font class='baseline'><strong>Richard</strong><p>Received: <strong>20</strong></font> &nbsp; &nbsp; &nbsp; &nbsp; &nbsp; &nbsp;<font class='posOutcome'>Shared back: <strong>10</strong></font></font><div class='respPicDiv'><img src='img/responseButtonOffersNo0_wht.png' class='respPic'></div></div>","null","","8","Richard","11","Shared","0.65,0.35","12","0.65","trustrating_stim/white_00109_931230_fa_edt.bmp","8","149","23"
"html-keyboard-response","207","617475","0.0-19.0-1.23","63d1834e69a637cd32f16634","bdp_trlrn","Wed Mar 15 2023 23:30:10 GMT-0400 (Eastern Daylight Time)","3050074","Trustworthy,Untrustworthy","","1259","","","","decision","","<div class='trialDiv'><img src='trustrating_stim/white_00659_941121_fa_edt.bmp'><br><font class='baseline'><strong>Joseph</strong><p>Choose number of points to send.</font><div class='respPicDiv'><img src='img/responseButtonOffersNo0L.png' class='respPic'></div></div>","5","","8","Joseph","4","Kept","0.8,0.35","8","0.8","trustrating_stim/white_00659_941121_fa_edt.bmp","3.5","154","24"
"html-keyboard-response","208","617731","0.0-19.0-2.23","63d1834e69a637cd32f16634","bdp_trlrn","Wed Mar 15 2023 23:30:10 GMT-0400 (Eastern Daylight Time)","3050074","Trustworthy,Untrustworthy","","null","","","","decisionFB","","<div class='trialDiv'><img src='trustrating_stim/white_00659_941121_fa_edt.bmp'><br><font class='baseline'><strong>Joseph</strong><p>Choose number of points to send.</font><div class='respPicDiv'><img src='img/responseButtonOffersNo0L5.png' class='respPic'></div></div>","null","","8","Joseph","4","Kept","0.8,0.35","8","0.8","trustrating_stim/white_00659_941121_fa_edt.bmp","3.5","149","24"
"html-keyboard-response","209","618746","0.0-19.0-3.23","63d1834e69a637cd32f16634","bdp_trlrn","Wed Mar 15 2023 23:30:10 GMT-0400 (Eastern Daylight Time)","3050074","Trustworthy,Untrustworthy","","null","","","","feedback","","<div class='trialDiv'><img src='trustrating_stim/white_00659_941121_fa_edt.bmp'><br><font class='baseline'><strong>Joseph</strong><p>Received: <strong>20</strong></font> &nbsp; &nbsp; &nbsp; &nbsp; &nbsp; &nbsp;<font class='negOutcome'>Shared back: <strong>0</strong></font></font><div class='respPicDiv'><img src='img/responseButtonOffersNo0_wht.png' class='respPic'></div></div>","null","","8","Joseph","4","Kept","0.8,0.35","8","0.8","trustrating_stim/white_00659_941121_fa_edt.bmp","3.5","149","24"
"","","","","63d1834e69a637cd32f16634","bdp_trlrn","Wed Mar 15 2023 23:30:10 GMT-0400 (Eastern Daylight Time)","3050074","Trustworthy,Untrustworthy","","","blur","210","629249","blurevent","","","","1","","","","","","","","","","",""
"","","","","63d1834e69a637cd32f16634","bdp_trlrn","Wed Mar 15 2023 23:30:10 GMT-0400 (Eastern Daylight Time)","3050074","Trustworthy,Untrustworthy","","","focus","210","632749","focusevent","","","","","","","","","","","","","","",""
"html-keyboard-response","210","633887","0.0-19.0-1.24","63d1834e69a637cd32f16634","bdp_trlrn","Wed Mar 15 2023 23:30:10 GMT-0400 (Eastern Daylight Time)","3050074","Trustworthy,Untrustworthy","","15140","blur","210","629249","decision","","<div class='trialDiv'><img src='trustrating_stim/white_mw060.bmp'><br><font class='baseline'><strong>Brian</strong><p>Choose number of points to send.</font><div class='respPicDiv'><img src='img/responseButtonOffersNo0L.png' class='respPic'></div></div>","1","1","9","Brian","2","Kept","0.35,0.8","11","0.35","trustrating_stim/white_mw060.bmp","1.5","154","25"
"html-keyboard-response","211","634145","0.0-19.0-2.24","63d1834e69a637cd32f16634","bdp_trlrn","Wed Mar 15 2023 23:30:10 GMT-0400 (Eastern Daylight Time)","3050074","Trustworthy,Untrustworthy","","null","","","","decisionFB","","<div class='trialDiv'><img src='trustrating_stim/white_mw060.bmp'><br><font class='baseline'><strong>Brian</strong><p>Choose number of points to send.</font><div class='respPicDiv'><img src='img/responseButtonOffersNo0L1.png' class='respPic'></div></div>","null","","9","Brian","2","Kept","0.35,0.8","11","0.35","trustrating_stim/white_mw060.bmp","1.5","153","25"
"html-keyboard-response","212","635158","0.0-19.0-3.24","63d1834e69a637cd32f16634","bdp_trlrn","Wed Mar 15 2023 23:30:10 GMT-0400 (Eastern Daylight Time)","3050074","Trustworthy,Untrustworthy","","null","","","","feedback","","<div class='trialDiv'><img src='trustrating_stim/white_mw060.bmp'><br><font class='baseline'><strong>Brian</strong><p>Received: <strong>4</strong></font> &nbsp; &nbsp; &nbsp; &nbsp; &nbsp; &nbsp;<font class='negOutcome'>Shared back: <strong>0</strong></font></font><div class='respPicDiv'><img src='img/responseButtonOffersNo0_wht.png' class='respPic'></div></div>","null","","9","Brian","2","Kept","0.35,0.8","11","0.35","trustrating_stim/white_mw060.bmp","1.5","153","25"
"","","","","63d1834e69a637cd32f16634","bdp_trlrn","Wed Mar 15 2023 23:30:10 GMT-0400 (Eastern Daylight Time)","3050074","Trustworthy,Untrustworthy","","","blur","213","649274","blurevent","","","","2","","","","","","","","","","",""
"","","","","63d1834e69a637cd32f16634","bdp_trlrn","Wed Mar 15 2023 23:30:10 GMT-0400 (Eastern Daylight Time)","3050074","Trustworthy,Untrustworthy","","","focus","213","775042","focusevent","","","","","","","","","","","","","","",""
"image-keyboard-response","213","776812","0.0-19.0-0.25-0.25","63d1834e69a637cd32f16634","bdp_trlrn","Wed Mar 15 2023 23:30:10 GMT-0400 (Eastern Daylight Time)","3050074","Trustworthy,Untrustworthy","","141653","","","","blurwarn","","","49","1","","","","","","","","","","",""
