"trial_type","trial_index","time_elapsed","internal_node_id","subject_id","task","startTime","totalTime","labels","view_history","rt","event","trial","time","trialtype","success","stimulus","key_press","aground","name","faceID","outcome","agenttype","agentswpt","agentcurrpshare","face","avgRating","point_total","round"
"pavlovia","0","2","0.0-0.0","636182d3f52ff78fc3f7de50","bdp_trlrn","Wed Mar 15 2023 22:22:04 GMT-0500 (Central Daylight Time)","451434","Untrustworthy,Trustworthy","","","","","","","","","","","","","","","","","","","",""
"instructions","1","2325","0.0-1.0","636182d3f52ff78fc3f7de50","bdp_trlrn","Wed Mar 15 2023 22:22:04 GMT-0500 (Central Daylight Time)","451434","Untrustworthy,Trustworthy","[{""page_index"":0,""viewing_time"":2323}]","2323","","","","","","","","","","","","","","","","","",""
"","","","","636182d3f52ff78fc3f7de50","bdp_trlrn","Wed Mar 15 2023 22:22:04 GMT-0500 (Central Daylight Time)","451434","Untrustworthy,Trustworthy","","","fullscreenenter","2","6051","fullscreenenter","","","","","","","","","","","","","",""
"fullscreen","2","7055","0.0-2.0","636182d3f52ff78fc3f7de50","bdp_trlrn","Wed Mar 15 2023 22:22:04 GMT-0500 (Central Daylight Time)","451434","Untrustworthy,Trustworthy","","","","","","","true","","","","","","","","","","","","",""
"instructions","3","18397","0.0-4.0","636182d3f52ff78fc3f7de50","bdp_trlrn","Wed Mar 15 2023 22:22:04 GMT-0500 (Central Daylight Time)","451434","Untrustworthy,Trustworthy","[{""page_index"":0,""viewing_time"":10148},{""page_index"":1,""viewing_time"":1192}]","11340","","","","","","","","","","","","","","","","","",""
"instructions","4","19523","0.0-5.0","636182d3f52ff78fc3f7de50","bdp_trlrn","Wed Mar 15 2023 22:22:04 GMT-0500 (Central Daylight Time)","451434","Untrustworthy,Trustworthy","[{""page_index"":0,""viewing_time"":1124}]","1125","","","","","","","","","","","","","","","","","",""
"image-keyboard-response","5","22050","0.0-6.0-1.0","636182d3f52ff78fc3f7de50","bdp_trlrn","Wed Mar 15 2023 22:22:04 GMT-0500 (Central Daylight Time)","451434","Untrustworthy,Trustworthy","","2422","","","","rating","","trustrating_stim/white_00120_931230_fa_edt.bmp","5","","","","","","","","","","",""
"image-keyboard-response","6","22255","0.0-6.0-2.0","636182d3f52ff78fc3f7de50","bdp_trlrn","Wed Mar 15 2023 22:22:04 GMT-0500 (Central Daylight Time)","451434","Untrustworthy,Trustworthy","","null","","","","ratingFB","","trustrating_stim/white_00120_931230_fa_edt.bmp","null","","","","","","","","","","",""
"image-keyboard-response","7","22897","0.0-6.0-1.1","636182d3f52ff78fc3f7de50","bdp_trlrn","Wed Mar 15 2023 22:22:04 GMT-0500 (Central Daylight Time)","451434","Untrustworthy,Trustworthy","","538","","","","rating","","trustrating_stim/white_mw033.bmp","6","","","","","","","","","","",""
"image-keyboard-response","8","23107","0.0-6.0-2.1","636182d3f52ff78fc3f7de50","bdp_trlrn","Wed Mar 15 2023 22:22:04 GMT-0500 (Central Daylight Time)","451434","Untrustworthy,Trustworthy","","null","","","","ratingFB","","trustrating_stim/white_mw033.bmp","null","","","","","","","","","","",""
"image-keyboard-response","9","23557","0.0-6.0-1.2","636182d3f52ff78fc3f7de50","bdp_trlrn","Wed Mar 15 2023 22:22:04 GMT-0500 (Central Daylight Time)","451434","Untrustworthy,Trustworthy","","332","","","","rating","","trustrating_stim/white_00898_960530_fa_edt.bmp","5","","","","","","","","","","",""
"image-keyboard-response","10","23763","0.0-6.0-2.2","636182d3f52ff78fc3f7de50","bdp_trlrn","Wed Mar 15 2023 22:22:04 GMT-0500 (Central Daylight Time)","451434","Untrustworthy,Trustworthy","","null","","","","ratingFB","","trustrating_stim/white_00898_960530_fa_edt.bmp","null","","","","","","","","","","",""
"image-keyboard-response","11","24413","0.0-6.0-1.3","636182d3f52ff78fc3f7de50","bdp_trlrn","Wed Mar 15 2023 22:22:04 GMT-0500 (Central Daylight Time)","451434","Untrustworthy,Trustworthy","","543","","","","rating","","trustrating_stim/white_mw060.bmp","5","","","","","","","","","","",""
"image-keyboard-response","12","24630","0.0-6.0-2.3","636182d3f52ff78fc3f7de50","bdp_trlrn","Wed Mar 15 2023 22:22:04 GMT-0500 (Central Daylight Time)","451434","Untrustworthy,Trustworthy","","null","","","","ratingFB","","trustrating_stim/white_mw060.bmp","null","","","","","","","","","","",""
"image-keyboard-response","13","25117","0.0-6.0-1.4","636182d3f52ff78fc3f7de50","bdp_trlrn","Wed Mar 15 2023 22:22:04 GMT-0500 (Central Daylight Time)","451434","Untrustworthy,Trustworthy","","383","","","","rating","","trustrating_stim/white_00807_941205_fb_edt.bmp","5","","","","","","","","","","",""
"image-keyboard-response","14","25320","0.0-6.0-2.4","636182d3f52ff78fc3f7de50","bdp_trlrn","Wed Mar 15 2023 22:22:04 GMT-0500 (Central Daylight Time)","451434","Untrustworthy,Trustworthy","","null","","","","ratingFB","","trustrating_stim/white_00807_941205_fb_edt.bmp","null","","","","","","","","","","",""
"image-keyboard-response","15","25687","0.0-6.0-1.5","636182d3f52ff78fc3f7de50","bdp_trlrn","Wed Mar 15 2023 22:22:04 GMT-0500 (Central Daylight Time)","451434","Untrustworthy,Trustworthy","","262","","","","rating","","trustrating_stim/white_mw099.bmp","6","","","","","","","","","","",""
"image-keyboard-response","16","25890","0.0-6.0-2.5","636182d3f52ff78fc3f7de50","bdp_trlrn","Wed Mar 15 2023 22:22:04 GMT-0500 (Central Daylight Time)","451434","Untrustworthy,Trustworthy","","null","","","","ratingFB","","trustrating_stim/white_mw099.bmp","null","","","","","","","","","","",""
"image-keyboard-response","17","26393","0.0-6.0-1.6","636182d3f52ff78fc3f7de50","bdp_trlrn","Wed Mar 15 2023 22:22:04 GMT-0500 (Central Daylight Time)","451434","Untrustworthy,Trustworthy","","399","","","","rating","","trustrating_stim/white_mw049.bmp","4","","","","","","","","","","",""
"image-keyboard-response","18","26597","0.0-6.0-2.6","636182d3f52ff78fc3f7de50","bdp_trlrn","Wed Mar 15 2023 22:22:04 GMT-0500 (Central Daylight Time)","451434","Untrustworthy,Trustworthy","","null","","","","ratingFB","","trustrating_stim/white_mw049.bmp","null","","","","","","","","","","",""
"image-keyboard-response","19","27384","0.0-6.0-1.7","636182d3f52ff78fc3f7de50","bdp_trlrn","Wed Mar 15 2023 22:22:04 GMT-0500 (Central Daylight Time)","451434","Untrustworthy,Trustworthy","","682","","","","rating","","trustrating_stim/white_00223_940128_fb_edt.bmp","5","","","","","","","","","","",""
"image-keyboard-response","20","27589","0.0-6.0-2.7","636182d3f52ff78fc3f7de50","bdp_trlrn","Wed Mar 15 2023 22:22:04 GMT-0500 (Central Daylight Time)","451434","Untrustworthy,Trustworthy","","null","","","","ratingFB","","trustrating_stim/white_00223_940128_fb_edt.bmp","null","","","","","","","","","","",""
"image-keyboard-response","21","28087","0.0-6.0-1.8","636182d3f52ff78fc3f7de50","bdp_trlrn","Wed Mar 15 2023 22:22:04 GMT-0500 (Central Daylight Time)","451434","Untrustworthy,Trustworthy","","394","","","","rating","","trustrating_stim/white_00109_931230_fa_edt.bmp","6","","","","","","","","","","",""
"image-keyboard-response","22","28289","0.0-6.0-2.8","636182d3f52ff78fc3f7de50","bdp_trlrn","Wed Mar 15 2023 22:22:04 GMT-0500 (Central Daylight Time)","451434","Untrustworthy,Trustworthy","","null","","","","ratingFB","","trustrating_stim/white_00109_931230_fa_edt.bmp","null","","","","","","","","","","",""
"image-keyboard-response","23","28853","0.0-6.0-1.9","636182d3f52ff78fc3f7de50","bdp_trlrn","Wed Mar 15 2023 22:22:04 GMT-0500 (Central Daylight Time)","451434","Untrustworthy,Trustworthy","","460","","","","rating","","trustrating_stim/white_mw035.bmp","5","","","","","","","","","","",""
"image-keyboard-response","24","29056","0.0-6.0-2.9","636182d3f52ff78fc3f7de50","bdp_trlrn","Wed Mar 15 2023 22:22:04 GMT-0500 (Central Daylight Time)","451434","Untrustworthy,Trustworthy","","null","","","","ratingFB","","trustrating_stim/white_mw035.bmp","null","","","","","","","","","","",""
"image-keyboard-response","25","29586","0.0-6.0-1.10","636182d3f52ff78fc3f7de50","bdp_trlrn","Wed Mar 15 2023 22:22:04 GMT-0500 (Central Daylight Time)","451434","Untrustworthy,Trustworthy","","428","","","","rating","","trustrating_stim/white_00757_941201_fa_edt.bmp","5","","","","","","","","","","",""
"image-keyboard-response","26","29787","0.0-6.0-2.10","636182d3f52ff78fc3f7de50","bdp_trlrn","Wed Mar 15 2023 22:22:04 GMT-0500 (Central Daylight Time)","451434","Untrustworthy,Trustworthy","","null","","","","ratingFB","","trustrating_stim/white_00757_941201_fa_edt.bmp","null","","","","","","","","","","",""
"image-keyboard-response","27","30548","0.0-6.0-1.11","636182d3f52ff78fc3f7de50","bdp_trlrn","Wed Mar 15 2023 22:22:04 GMT-0500 (Central Daylight Time)","451434","Untrustworthy,Trustworthy","","658","","","","rating","","trustrating_stim/white_00577_940928_fa_edt.bmp","6","","","","","","","","","","",""
"image-keyboard-response","28","30750","0.0-6.0-2.11","636182d3f52ff78fc3f7de50","bdp_trlrn","Wed Mar 15 2023 22:22:04 GMT-0500 (Central Daylight Time)","451434","Untrustworthy,Trustworthy","","null","","","","ratingFB","","trustrating_stim/white_00577_940928_fa_edt.bmp","null","","","","","","","","","","",""
"image-keyboard-response","29","31283","0.0-6.0-1.12","636182d3f52ff78fc3f7de50","bdp_trlrn","Wed Mar 15 2023 22:22:04 GMT-0500 (Central Daylight Time)","451434","Untrustworthy,Trustworthy","","430","","","","rating","","trustrating_stim/white_mw056.bmp","4","","","","","","","","","","",""
"image-keyboard-response","30","31485","0.0-6.0-2.12","636182d3f52ff78fc3f7de50","bdp_trlrn","Wed Mar 15 2023 22:22:04 GMT-0500 (Central Daylight Time)","451434","Untrustworthy,Trustworthy","","null","","","","ratingFB","","trustrating_stim/white_mw056.bmp","null","","","","","","","","","","",""
"image-keyboard-response","31","31973","0.0-6.0-1.13","636182d3f52ff78fc3f7de50","bdp_trlrn","Wed Mar 15 2023 22:22:04 GMT-0500 (Central Daylight Time)","451434","Untrustworthy,Trustworthy","","385","","","","rating","","trustrating_stim/white_00340_940422_fa_edt.bmp","6","","","","","","","","","","",""
"image-keyboard-response","32","32174","0.0-6.0-2.13","636182d3f52ff78fc3f7de50","bdp_trlrn","Wed Mar 15 2023 22:22:04 GMT-0500 (Central Daylight Time)","451434","Untrustworthy,Trustworthy","","null","","","","ratingFB","","trustrating_stim/white_00340_940422_fa_edt.bmp","null","","","","","","","","","","",""
"image-keyboard-response","33","32693","0.0-6.0-1.14","636182d3f52ff78fc3f7de50","bdp_trlrn","Wed Mar 15 2023 22:22:04 GMT-0500 (Central Daylight Time)","451434","Untrustworthy,Trustworthy","","415","","","","rating","","trustrating_stim/white_mw063.bmp","5","","","","","","","","","","",""
"image-keyboard-response","34","32895","0.0-6.0-2.14","636182d3f52ff78fc3f7de50","bdp_trlrn","Wed Mar 15 2023 22:22:04 GMT-0500 (Central Daylight Time)","451434","Untrustworthy,Trustworthy","","null","","","","ratingFB","","trustrating_stim/white_mw063.bmp","null","","","","","","","","","","",""
"image-keyboard-response","35","33428","0.0-6.0-1.15","636182d3f52ff78fc3f7de50","bdp_trlrn","Wed Mar 15 2023 22:22:04 GMT-0500 (Central Daylight Time)","451434","Untrustworthy,Trustworthy","","430","","","","rating","","trustrating_stim/white_mw053.bmp","4","","","","","","","","","","",""
"image-keyboard-response","36","33629","0.0-6.0-2.15","636182d3f52ff78fc3f7de50","bdp_trlrn","Wed Mar 15 2023 22:22:04 GMT-0500 (Central Daylight Time)","451434","Untrustworthy,Trustworthy","","null","","","","ratingFB","","trustrating_stim/white_mw053.bmp","null","","","","","","","","","","",""
"image-keyboard-response","37","34223","0.0-6.0-1.16","636182d3f52ff78fc3f7de50","bdp_trlrn","Wed Mar 15 2023 22:22:04 GMT-0500 (Central Daylight Time)","451434","Untrustworthy,Trustworthy","","490","","","","rating","","trustrating_stim/white_mw071.bmp","6","","","","","","","","","","",""
"image-keyboard-response","38","34425","0.0-6.0-2.16","636182d3f52ff78fc3f7de50","bdp_trlrn","Wed Mar 15 2023 22:22:04 GMT-0500 (Central Daylight Time)","451434","Untrustworthy,Trustworthy","","null","","","","ratingFB","","trustrating_stim/white_mw071.bmp","null","","","","","","","","","","",""
"image-keyboard-response","39","35048","0.0-6.0-1.17","636182d3f52ff78fc3f7de50","bdp_trlrn","Wed Mar 15 2023 22:22:04 GMT-0500 (Central Daylight Time)","451434","Untrustworthy,Trustworthy","","519","","","","rating","","trustrating_stim/white_00299_940422_fa_edt.bmp","6","","","","","","","","","","",""
"image-keyboard-response","40","35249","0.0-6.0-2.17","636182d3f52ff78fc3f7de50","bdp_trlrn","Wed Mar 15 2023 22:22:04 GMT-0500 (Central Daylight Time)","451434","Untrustworthy,Trustworthy","","null","","","","ratingFB","","trustrating_stim/white_00299_940422_fa_edt.bmp","null","","","","","","","","","","",""
"image-keyboard-response","41","35708","0.0-6.0-1.18","636182d3f52ff78fc3f7de50","bdp_trlrn","Wed Mar 15 2023 22:22:04 GMT-0500 (Central Daylight Time)","451434","Untrustworthy,Trustworthy","","356","","","","rating","","trustrating_stim/white_mw046.bmp","5","","","","","","","","","","",""
"image-keyboard-response","42","35910","0.0-6.0-2.18","636182d3f52ff78fc3f7de50","bdp_trlrn","Wed Mar 15 2023 22:22:04 GMT-0500 (Central Daylight Time)","451434","Untrustworthy,Trustworthy","","null","","","","ratingFB","","trustrating_stim/white_mw046.bmp","null","","","","","","","","","","",""
"image-keyboard-response","43","36396","0.0-6.0-1.19","636182d3f52ff78fc3f7de50","bdp_trlrn","Wed Mar 15 2023 22:22:04 GMT-0500 (Central Daylight Time)","451434","Untrustworthy,Trustworthy","","385","","","","rating","","trustrating_stim/white_mw048.bmp","7","","","","","","","","","","",""
"image-keyboard-response","44","36598","0.0-6.0-2.19","636182d3f52ff78fc3f7de50","bdp_trlrn","Wed Mar 15 2023 22:22:04 GMT-0500 (Central Daylight Time)","451434","Untrustworthy,Trustworthy","","null","","","","ratingFB","","trustrating_stim/white_mw048.bmp","null","","","","","","","","","","",""
"image-keyboard-response","45","37072","0.0-6.0-1.20","636182d3f52ff78fc3f7de50","bdp_trlrn","Wed Mar 15 2023 22:22:04 GMT-0500 (Central Daylight Time)","451434","Untrustworthy,Trustworthy","","372","","","","rating","","trustrating_stim/white_mw089.bmp","4","","","","","","","","","","",""
"image-keyboard-response","46","37274","0.0-6.0-2.20","636182d3f52ff78fc3f7de50","bdp_trlrn","Wed Mar 15 2023 22:22:04 GMT-0500 (Central Daylight Time)","451434","Untrustworthy,Trustworthy","","null","","","","ratingFB","","trustrating_stim/white_mw089.bmp","null","","","","","","","","","","",""
"image-keyboard-response","47","37778","0.0-6.0-1.21","636182d3f52ff78fc3f7de50","bdp_trlrn","Wed Mar 15 2023 22:22:04 GMT-0500 (Central Daylight Time)","451434","Untrustworthy,Trustworthy","","401","","","","rating","","trustrating_stim/white_00659_941121_fa_edt.bmp","6","","","","","","","","","","",""
"image-keyboard-response","48","37980","0.0-6.0-2.21","636182d3f52ff78fc3f7de50","bdp_trlrn","Wed Mar 15 2023 22:22:04 GMT-0500 (Central Daylight Time)","451434","Untrustworthy,Trustworthy","","null","","","","ratingFB","","trustrating_stim/white_00659_941121_fa_edt.bmp","null","","","","","","","","","","",""
"image-keyboard-response","49","38454","0.0-6.0-1.22","636182d3f52ff78fc3f7de50","bdp_trlrn","Wed Mar 15 2023 22:22:04 GMT-0500 (Central Daylight Time)","451434","Untrustworthy,Trustworthy","","370","","","","rating","","trustrating_stim/white_00785_941205_fb_edt.bmp","5","","","","","","","","","","",""
"image-keyboard-response","50","38656","0.0-6.0-2.22","636182d3f52ff78fc3f7de50","bdp_trlrn","Wed Mar 15 2023 22:22:04 GMT-0500 (Central Daylight Time)","451434","Untrustworthy,Trustworthy","","null","","","","ratingFB","","trustrating_stim/white_00785_941205_fb_edt.bmp","null","","","","","","","","","","",""
"image-keyboard-response","51","39143","0.0-6.0-1.23","636182d3f52ff78fc3f7de50","bdp_trlrn","Wed Mar 15 2023 22:22:04 GMT-0500 (Central Daylight Time)","451434","Untrustworthy,Trustworthy","","383","","","","rating","","trustrating_stim/white_00602_940928_fb_edt.bmp","7","","","","","","","","","","",""
"image-keyboard-response","52","39344","0.0-6.0-2.23","636182d3f52ff78fc3f7de50","bdp_trlrn","Wed Mar 15 2023 22:22:04 GMT-0500 (Central Daylight Time)","451434","Untrustworthy,Trustworthy","","null","","","","ratingFB","","trustrating_stim/white_00602_940928_fb_edt.bmp","null","","","","","","","","","","",""
"image-keyboard-response","53","39668","0.0-6.0-1.24","636182d3f52ff78fc3f7de50","bdp_trlrn","Wed Mar 15 2023 22:22:04 GMT-0500 (Central Daylight Time)","451434","Untrustworthy,Trustworthy","","220","","","","rating","","trustrating_stim/white_mw097.bmp","6","","","","","","","","","","",""
"image-keyboard-response","54","39869","0.0-6.0-2.24","636182d3f52ff78fc3f7de50","bdp_trlrn","Wed Mar 15 2023 22:22:04 GMT-0500 (Central Daylight Time)","451434","Untrustworthy,Trustworthy","","null","","","","ratingFB","","trustrating_stim/white_mw097.bmp","null","","","","","","","","","","",""
"image-keyboard-response","55","40253","0.0-6.0-1.25","636182d3f52ff78fc3f7de50","bdp_trlrn","Wed Mar 15 2023 22:22:04 GMT-0500 (Central Daylight Time)","451434","Untrustworthy,Trustworthy","","280","","","","rating","","trustrating_stim/white_00761_941201_fb_edt.bmp","4","","","","","","","","","","",""
"image-keyboard-response","56","40456","0.0-6.0-2.25","636182d3f52ff78fc3f7de50","bdp_trlrn","Wed Mar 15 2023 22:22:04 GMT-0500 (Central Daylight Time)","451434","Untrustworthy,Trustworthy","","null","","","","ratingFB","","trustrating_stim/white_00761_941201_fb_edt.bmp","null","","","","","","","","","","",""
"image-keyboard-response","57","40824","0.0-6.0-1.26","636182d3f52ff78fc3f7de50","bdp_trlrn","Wed Mar 15 2023 22:22:04 GMT-0500 (Central Daylight Time)","451434","Untrustworthy,Trustworthy","","266","","","","rating","","trustrating_stim/white_mw084.bmp","6","","","","","","","","","","",""
"image-keyboard-response","58","41026","0.0-6.0-2.26","636182d3f52ff78fc3f7de50","bdp_trlrn","Wed Mar 15 2023 22:22:04 GMT-0500 (Central Daylight Time)","451434","Untrustworthy,Trustworthy","","null","","","","ratingFB","","trustrating_stim/white_mw084.bmp","null","","","","","","","","","","",""
"image-keyboard-response","59","41392","0.0-6.0-1.27","636182d3f52ff78fc3f7de50","bdp_trlrn","Wed Mar 15 2023 22:22:04 GMT-0500 (Central Daylight Time)","451434","Untrustworthy,Trustworthy","","262","","","","rating","","trustrating_stim/white_mw066.bmp","7","","","","","","","","","","",""
"image-keyboard-response","60","41595","0.0-6.0-2.27","636182d3f52ff78fc3f7de50","bdp_trlrn","Wed Mar 15 2023 22:22:04 GMT-0500 (Central Daylight Time)","451434","Untrustworthy,Trustworthy","","null","","","","ratingFB","","trustrating_stim/white_mw066.bmp","null","","","","","","","","","","",""
"image-keyboard-response","61","42098","0.0-6.0-1.28","636182d3f52ff78fc3f7de50","bdp_trlrn","Wed Mar 15 2023 22:22:04 GMT-0500 (Central Daylight Time)","451434","Untrustworthy,Trustworthy","","399","","","","rating","","trustrating_stim/white_00519_940519_fb_edt.bmp","5","","","","","","","","","","",""
"image-keyboard-response","62","42300","0.0-6.0-2.28","636182d3f52ff78fc3f7de50","bdp_trlrn","Wed Mar 15 2023 22:22:04 GMT-0500 (Central Daylight Time)","451434","Untrustworthy,Trustworthy","","null","","","","ratingFB","","trustrating_stim/white_00519_940519_fb_edt.bmp","null","","","","","","","","","","",""
"image-keyboard-response","63","42712","0.0-6.0-1.29","636182d3f52ff78fc3f7de50","bdp_trlrn","Wed Mar 15 2023 22:22:04 GMT-0500 (Central Daylight Time)","451434","Untrustworthy,Trustworthy","","309","","","","rating","","trustrating_stim/white_00129_931230_fb_edt.bmp","4","","","","","","","","","","",""
"image-keyboard-response","64","42915","0.0-6.0-2.29","636182d3f52ff78fc3f7de50","bdp_trlrn","Wed Mar 15 2023 22:22:04 GMT-0500 (Central Daylight Time)","451434","Untrustworthy,Trustworthy","","null","","","","ratingFB","","trustrating_stim/white_00129_931230_fb_edt.bmp","null","","","","","","","","","","",""
"image-keyboard-response","65","43238","0.0-6.0-1.30","636182d3f52ff78fc3f7de50","bdp_trlrn","Wed Mar 15 2023 22:22:04 GMT-0500 (Central Daylight Time)","451434","Untrustworthy,Trustworthy","","221","","","","rating","","trustrating_stim/white_00120_931230_fa_edt.bmp","6","","","","","","","","","","",""
"image-keyboard-response","66","43441","0.0-6.0-2.30","636182d3f52ff78fc3f7de50","bdp_trlrn","Wed Mar 15 2023 22:22:04 GMT-0500 (Central Daylight Time)","451434","Untrustworthy,Trustworthy","","null","","","","ratingFB","","trustrating_stim/white_00120_931230_fa_edt.bmp","null","","","","","","","","","","",""
"image-keyboard-response","67","43868","0.0-6.0-1.31","636182d3f52ff78fc3f7de50","bdp_trlrn","Wed Mar 15 2023 22:22:04 GMT-0500 (Central Daylight Time)","451434","Untrustworthy,Trustworthy","","322","","","","rating","","trustrating_stim/white_00299_940422_fa_edt.bmp","7","","","","","","","","","","",""
"image-keyboard-response","68","44075","0.0-6.0-2.31","636182d3f52ff78fc3f7de50","bdp_trlrn","Wed Mar 15 2023 22:22:04 GMT-0500 (Central Daylight Time)","451434","Untrustworthy,Trustworthy","","null","","","","ratingFB","","trustrating_stim/white_00299_940422_fa_edt.bmp","null","","","","","","","","","","",""
"image-keyboard-response","69","44458","0.0-6.0-1.32","636182d3f52ff78fc3f7de50","bdp_trlrn","Wed Mar 15 2023 22:22:04 GMT-0500 (Central Daylight Time)","451434","Untrustworthy,Trustworthy","","278","","","","rating","","trustrating_stim/white_mw084.bmp","6","","","","","","","","","","",""
"image-keyboard-response","70","44660","0.0-6.0-2.32","636182d3f52ff78fc3f7de50","bdp_trlrn","Wed Mar 15 2023 22:22:04 GMT-0500 (Central Daylight Time)","451434","Untrustworthy,Trustworthy","","null","","","","ratingFB","","trustrating_stim/white_mw084.bmp","null","","","","","","","","","","",""
"image-keyboard-response","71","45163","0.0-6.0-1.33","636182d3f52ff78fc3f7de50","bdp_trlrn","Wed Mar 15 2023 22:22:04 GMT-0500 (Central Daylight Time)","451434","Untrustworthy,Trustworthy","","399","","","","rating","","trustrating_stim/white_00223_940128_fb_edt.bmp","4","","","","","","","","","","",""
"image-keyboard-response","72","45365","0.0-6.0-2.33","636182d3f52ff78fc3f7de50","bdp_trlrn","Wed Mar 15 2023 22:22:04 GMT-0500 (Central Daylight Time)","451434","Untrustworthy,Trustworthy","","null","","","","ratingFB","","trustrating_stim/white_00223_940128_fb_edt.bmp","null","","","","","","","","","","",""
"image-keyboard-response","73","45914","0.0-6.0-1.34","636182d3f52ff78fc3f7de50","bdp_trlrn","Wed Mar 15 2023 22:22:04 GMT-0500 (Central Daylight Time)","451434","Untrustworthy,Trustworthy","","444","","","","rating","","trustrating_stim/white_00602_940928_fb_edt.bmp","4","","","","","","","","","","",""
"image-keyboard-response","74","46115","0.0-6.0-2.34","636182d3f52ff78fc3f7de50","bdp_trlrn","Wed Mar 15 2023 22:22:04 GMT-0500 (Central Daylight Time)","451434","Untrustworthy,Trustworthy","","null","","","","ratingFB","","trustrating_stim/white_00602_940928_fb_edt.bmp","null","","","","","","","","","","",""
"image-keyboard-response","75","46542","0.0-6.0-1.35","636182d3f52ff78fc3f7de50","bdp_trlrn","Wed Mar 15 2023 22:22:04 GMT-0500 (Central Daylight Time)","451434","Untrustworthy,Trustworthy","","324","","","","rating","","trustrating_stim/white_00807_941205_fb_edt.bmp","5","","","","","","","","","","",""
"image-keyboard-response","76","46744","0.0-6.0-2.35","636182d3f52ff78fc3f7de50","bdp_trlrn","Wed Mar 15 2023 22:22:04 GMT-0500 (Central Daylight Time)","451434","Untrustworthy,Trustworthy","","null","","","","ratingFB","","trustrating_stim/white_00807_941205_fb_edt.bmp","null","","","","","","","","","","",""
"image-keyboard-response","77","47158","0.0-6.0-1.36","636182d3f52ff78fc3f7de50","bdp_trlrn","Wed Mar 15 2023 22:22:04 GMT-0500 (Central Daylight Time)","451434","Untrustworthy,Trustworthy","","311","","","","rating","","trustrating_stim/white_mw071.bmp","5","","","","","","","","","","",""
"image-keyboard-response","78","47360","0.0-6.0-2.36","636182d3f52ff78fc3f7de50","bdp_trlrn","Wed Mar 15 2023 22:22:04 GMT-0500 (Central Daylight Time)","451434","Untrustworthy,Trustworthy","","null","","","","ratingFB","","trustrating_stim/white_mw071.bmp","null","","","","","","","","","","",""
"image-keyboard-response","79","47772","0.0-6.0-1.37","636182d3f52ff78fc3f7de50","bdp_trlrn","Wed Mar 15 2023 22:22:04 GMT-0500 (Central Daylight Time)","451434","Untrustworthy,Trustworthy","","309","","","","rating","","trustrating_stim/white_00898_960530_fa_edt.bmp","6","","","","","","","","","","",""
"image-keyboard-response","80","47976","0.0-6.0-2.37","636182d3f52ff78fc3f7de50","bdp_trlrn","Wed Mar 15 2023 22:22:04 GMT-0500 (Central Daylight Time)","451434","Untrustworthy,Trustworthy","","null","","","","ratingFB","","trustrating_stim/white_00898_960530_fa_edt.bmp","null","","","","","","","","","","",""
"image-keyboard-response","81","48419","0.0-6.0-1.38","636182d3f52ff78fc3f7de50","bdp_trlrn","Wed Mar 15 2023 22:22:04 GMT-0500 (Central Daylight Time)","451434","Untrustworthy,Trustworthy","","336","","","","rating","","trustrating_stim/white_mw035.bmp","5","","","","","","","","","","",""
"image-keyboard-response","82","48621","0.0-6.0-2.38","636182d3f52ff78fc3f7de50","bdp_trlrn","Wed Mar 15 2023 22:22:04 GMT-0500 (Central Daylight Time)","451434","Untrustworthy,Trustworthy","","null","","","","ratingFB","","trustrating_stim/white_mw035.bmp","null","","","","","","","","","","",""
"image-keyboard-response","83","49107","0.0-6.0-1.39","636182d3f52ff78fc3f7de50","bdp_trlrn","Wed Mar 15 2023 22:22:04 GMT-0500 (Central Daylight Time)","451434","Untrustworthy,Trustworthy","","382","","","","rating","","trustrating_stim/white_00761_941201_fb_edt.bmp","5","","","","","","","","","","",""
"image-keyboard-response","84","49309","0.0-6.0-2.39","636182d3f52ff78fc3f7de50","bdp_trlrn","Wed Mar 15 2023 22:22:04 GMT-0500 (Central Daylight Time)","451434","Untrustworthy,Trustworthy","","null","","","","ratingFB","","trustrating_stim/white_00761_941201_fb_edt.bmp","null","","","","","","","","","","",""
"image-keyboard-response","85","49963","0.0-6.0-1.40","636182d3f52ff78fc3f7de50","bdp_trlrn","Wed Mar 15 2023 22:22:04 GMT-0500 (Central Daylight Time)","451434","Untrustworthy,Trustworthy","","550","","","","rating","","trustrating_stim/white_mw066.bmp","7","","","","","","","","","","",""
"image-keyboard-response","86","50180","0.0-6.0-2.40","636182d3f52ff78fc3f7de50","bdp_trlrn","Wed Mar 15 2023 22:22:04 GMT-0500 (Central Daylight Time)","451434","Untrustworthy,Trustworthy","","null","","","","ratingFB","","trustrating_stim/white_mw066.bmp","null","","","","","","","","","","",""
"image-keyboard-response","87","51088","0.0-6.0-1.41","636182d3f52ff78fc3f7de50","bdp_trlrn","Wed Mar 15 2023 22:22:04 GMT-0500 (Central Daylight Time)","451434","Untrustworthy,Trustworthy","","804","","","","rating","","trustrating_stim/white_mw056.bmp","5","","","","","","","","","","",""
"image-keyboard-response","88","51291","0.0-6.0-2.41","636182d3f52ff78fc3f7de50","bdp_trlrn","Wed Mar 15 2023 22:22:04 GMT-0500 (Central Daylight Time)","451434","Untrustworthy,Trustworthy","","null","","","","ratingFB","","trustrating_stim/white_mw056.bmp","null","","","","","","","","","","",""
"image-keyboard-response","89","51988","0.0-6.0-1.42","636182d3f52ff78fc3f7de50","bdp_trlrn","Wed Mar 15 2023 22:22:04 GMT-0500 (Central Daylight Time)","451434","Untrustworthy,Trustworthy","","591","","","","rating","","trustrating_stim/white_00659_941121_fa_edt.bmp","5","","","","","","","","","","",""
"image-keyboard-response","90","52190","0.0-6.0-2.42","636182d3f52ff78fc3f7de50","bdp_trlrn","Wed Mar 15 2023 22:22:04 GMT-0500 (Central Daylight Time)","451434","Untrustworthy,Trustworthy","","null","","","","ratingFB","","trustrating_stim/white_00659_941121_fa_edt.bmp","null","","","","","","","","","","",""
"image-keyboard-response","91","52738","0.0-6.0-1.43","636182d3f52ff78fc3f7de50","bdp_trlrn","Wed Mar 15 2023 22:22:04 GMT-0500 (Central Daylight Time)","451434","Untrustworthy,Trustworthy","","444","","","","rating","","trustrating_stim/white_00785_941205_fb_edt.bmp","4","","","","","","","","","","",""
"image-keyboard-response","92","52940","0.0-6.0-2.43","636182d3f52ff78fc3f7de50","bdp_trlrn","Wed Mar 15 2023 22:22:04 GMT-0500 (Central Daylight Time)","451434","Untrustworthy,Trustworthy","","null","","","","ratingFB","","trustrating_stim/white_00785_941205_fb_edt.bmp","null","","","","","","","","","","",""
"image-keyboard-response","93","53923","0.0-6.0-1.44","636182d3f52ff78fc3f7de50","bdp_trlrn","Wed Mar 15 2023 22:22:04 GMT-0500 (Central Daylight Time)","451434","Untrustworthy,Trustworthy","","879","","","","rating","","trustrating_stim/white_00340_940422_fa_edt.bmp","3","","","","","","","","","","",""
"image-keyboard-response","94","54125","0.0-6.0-2.44","636182d3f52ff78fc3f7de50","bdp_trlrn","Wed Mar 15 2023 22:22:04 GMT-0500 (Central Daylight Time)","451434","Untrustworthy,Trustworthy","","null","","","","ratingFB","","trustrating_stim/white_00340_940422_fa_edt.bmp","null","","","","","","","","","","",""
"image-keyboard-response","95","54553","0.0-6.0-1.45","636182d3f52ff78fc3f7de50","bdp_trlrn","Wed Mar 15 2023 22:22:04 GMT-0500 (Central Daylight Time)","451434","Untrustworthy,Trustworthy","","324","","","","rating","","trustrating_stim/white_mw089.bmp","4","","","","","","","","","","",""
"image-keyboard-response","96","54755","0.0-6.0-2.45","636182d3f52ff78fc3f7de50","bdp_trlrn","Wed Mar 15 2023 22:22:04 GMT-0500 (Central Daylight Time)","451434","Untrustworthy,Trustworthy","","null","","","","ratingFB","","trustrating_stim/white_mw089.bmp","null","","","","","","","","","","",""
"image-keyboard-response","97","55303","0.0-6.0-1.46","636182d3f52ff78fc3f7de50","bdp_trlrn","Wed Mar 15 2023 22:22:04 GMT-0500 (Central Daylight Time)","451434","Untrustworthy,Trustworthy","","444","","","","rating","","trustrating_stim/white_mw049.bmp","3","","","","","","","","","","",""
"image-keyboard-response","98","55505","0.0-6.0-2.46","636182d3f52ff78fc3f7de50","bdp_trlrn","Wed Mar 15 2023 22:22:04 GMT-0500 (Central Daylight Time)","451434","Untrustworthy,Trustworthy","","null","","","","ratingFB","","trustrating_stim/white_mw049.bmp","null","","","","","","","","","","",""
"image-keyboard-response","99","56023","0.0-6.0-1.47","636182d3f52ff78fc3f7de50","bdp_trlrn","Wed Mar 15 2023 22:22:04 GMT-0500 (Central Daylight Time)","451434","Untrustworthy,Trustworthy","","413","","","","rating","","trustrating_stim/white_mw046.bmp","6","","","","","","","","","","",""
"image-keyboard-response","100","56226","0.0-6.0-2.47","636182d3f52ff78fc3f7de50","bdp_trlrn","Wed Mar 15 2023 22:22:04 GMT-0500 (Central Daylight Time)","451434","Untrustworthy,Trustworthy","","null","","","","ratingFB","","trustrating_stim/white_mw046.bmp","null","","","","","","","","","","",""
"image-keyboard-response","101","56758","0.0-6.0-1.48","636182d3f52ff78fc3f7de50","bdp_trlrn","Wed Mar 15 2023 22:22:04 GMT-0500 (Central Daylight Time)","451434","Untrustworthy,Trustworthy","","428","","","","rating","","trustrating_stim/white_00577_940928_fa_edt.bmp","4","","","","","","","","","","",""
"image-keyboard-response","102","56960","0.0-6.0-2.48","636182d3f52ff78fc3f7de50","bdp_trlrn","Wed Mar 15 2023 22:22:04 GMT-0500 (Central Daylight Time)","451434","Untrustworthy,Trustworthy","","null","","","","ratingFB","","trustrating_stim/white_00577_940928_fa_edt.bmp","null","","","","","","","","","","",""
"image-keyboard-response","103","57628","0.0-6.0-1.49","636182d3f52ff78fc3f7de50","bdp_trlrn","Wed Mar 15 2023 22:22:04 GMT-0500 (Central Daylight Time)","451434","Untrustworthy,Trustworthy","","564","","","","rating","","trustrating_stim/white_mw033.bmp","5","","","","","","","","","","",""
"image-keyboard-response","104","57830","0.0-6.0-2.49","636182d3f52ff78fc3f7de50","bdp_trlrn","Wed Mar 15 2023 22:22:04 GMT-0500 (Central Daylight Time)","451434","Untrustworthy,Trustworthy","","null","","","","ratingFB","","trustrating_stim/white_mw033.bmp","null","","","","","","","","","","",""
"image-keyboard-response","105","58288","0.0-6.0-1.50","636182d3f52ff78fc3f7de50","bdp_trlrn","Wed Mar 15 2023 22:22:04 GMT-0500 (Central Daylight Time)","451434","Untrustworthy,Trustworthy","","354","","","","rating","","trustrating_stim/white_mw063.bmp","4","","","","","","","","","","",""
"image-keyboard-response","106","58490","0.0-6.0-2.50","636182d3f52ff78fc3f7de50","bdp_trlrn","Wed Mar 15 2023 22:22:04 GMT-0500 (Central Daylight Time)","451434","Untrustworthy,Trustworthy","","null","","","","ratingFB","","trustrating_stim/white_mw063.bmp","null","","","","","","","","","","",""
"image-keyboard-response","107","58948","0.0-6.0-1.51","636182d3f52ff78fc3f7de50","bdp_trlrn","Wed Mar 15 2023 22:22:04 GMT-0500 (Central Daylight Time)","451434","Untrustworthy,Trustworthy","","353","","","","rating","","trustrating_stim/white_00757_941201_fa_edt.bmp","4","","","","","","","","","","",""
"image-keyboard-response","108","59150","0.0-6.0-2.51","636182d3f52ff78fc3f7de50","bdp_trlrn","Wed Mar 15 2023 22:22:04 GMT-0500 (Central Daylight Time)","451434","Untrustworthy,Trustworthy","","null","","","","ratingFB","","trustrating_stim/white_00757_941201_fa_edt.bmp","null","","","","","","","","","","",""
"image-keyboard-response","109","59638","0.0-6.0-1.52","636182d3f52ff78fc3f7de50","bdp_trlrn","Wed Mar 15 2023 22:22:04 GMT-0500 (Central Daylight Time)","451434","Untrustworthy,Trustworthy","","383","","","","rating","","trustrating_stim/white_00109_931230_fa_edt.bmp","5","","","","","","","","","","",""
"image-keyboard-response","110","59846","0.0-6.0-2.52","636182d3f52ff78fc3f7de50","bdp_trlrn","Wed Mar 15 2023 22:22:04 GMT-0500 (Central Daylight Time)","451434","Untrustworthy,Trustworthy","","null","","","","ratingFB","","trustrating_stim/white_00109_931230_fa_edt.bmp","null","","","","","","","","","","",""
"image-keyboard-response","111","60388","0.0-6.0-1.53","636182d3f52ff78fc3f7de50","bdp_trlrn","Wed Mar 15 2023 22:22:04 GMT-0500 (Central Daylight Time)","451434","Untrustworthy,Trustworthy","","438","","","","rating","","trustrating_stim/white_mw053.bmp","4","","","","","","","","","","",""
"image-keyboard-response","112","60590","0.0-6.0-2.53","636182d3f52ff78fc3f7de50","bdp_trlrn","Wed Mar 15 2023 22:22:04 GMT-0500 (Central Daylight Time)","451434","Untrustworthy,Trustworthy","","null","","","","ratingFB","","trustrating_stim/white_mw053.bmp","null","","","","","","","","","","",""
"image-keyboard-response","113","60867","0.0-6.0-1.54","636182d3f52ff78fc3f7de50","bdp_trlrn","Wed Mar 15 2023 22:22:04 GMT-0500 (Central Daylight Time)","451434","Untrustworthy,Trustworthy","","173","","","","rating","","trustrating_stim/white_mw060.bmp","7","","","","","","","","","","",""
"image-keyboard-response","114","61070","0.0-6.0-2.54","636182d3f52ff78fc3f7de50","bdp_trlrn","Wed Mar 15 2023 22:22:04 GMT-0500 (Central Daylight Time)","451434","Untrustworthy,Trustworthy","","null","","","","ratingFB","","trustrating_stim/white_mw060.bmp","null","","","","","","","","","","",""
"image-keyboard-response","115","61646","0.0-6.0-1.55","636182d3f52ff78fc3f7de50","bdp_trlrn","Wed Mar 15 2023 22:22:04 GMT-0500 (Central Daylight Time)","451434","Untrustworthy,Trustworthy","","473","","","","rating","","trustrating_stim/white_00519_940519_fb_edt.bmp","4","","","","","","","","","","",""
"image-keyboard-response","116","61849","0.0-6.0-2.55","636182d3f52ff78fc3f7de50","bdp_trlrn","Wed Mar 15 2023 22:22:04 GMT-0500 (Central Daylight Time)","451434","Untrustworthy,Trustworthy","","null","","","","ratingFB","","trustrating_stim/white_00519_940519_fb_edt.bmp","null","","","","","","","","","","",""
"image-keyboard-response","117","62923","0.0-6.0-1.56","636182d3f52ff78fc3f7de50","bdp_trlrn","Wed Mar 15 2023 22:22:04 GMT-0500 (Central Daylight Time)","451434","Untrustworthy,Trustworthy","","967","","","","rating","","trustrating_stim/white_mw097.bmp","3","","","","","","","","","","",""
"image-keyboard-response","118","63126","0.0-6.0-2.56","636182d3f52ff78fc3f7de50","bdp_trlrn","Wed Mar 15 2023 22:22:04 GMT-0500 (Central Daylight Time)","451434","Untrustworthy,Trustworthy","","null","","","","ratingFB","","trustrating_stim/white_mw097.bmp","null","","","","","","","","","","",""
"image-keyboard-response","119","64138","0.0-6.0-1.57","636182d3f52ff78fc3f7de50","bdp_trlrn","Wed Mar 15 2023 22:22:04 GMT-0500 (Central Daylight Time)","451434","Untrustworthy,Trustworthy","","907","","","","rating","","trustrating_stim/white_00129_931230_fb_edt.bmp","7","","","","","","","","","","",""
"image-keyboard-response","120","64340","0.0-6.0-2.57","636182d3f52ff78fc3f7de50","bdp_trlrn","Wed Mar 15 2023 22:22:04 GMT-0500 (Central Daylight Time)","451434","Untrustworthy,Trustworthy","","null","","","","ratingFB","","trustrating_stim/white_00129_931230_fb_edt.bmp","null","","","","","","","","","","",""
"image-keyboard-response","121","65428","0.0-6.0-1.58","636182d3f52ff78fc3f7de50","bdp_trlrn","Wed Mar 15 2023 22:22:04 GMT-0500 (Central Daylight Time)","451434","Untrustworthy,Trustworthy","","983","","","","rating","","trustrating_stim/white_mw048.bmp","4","","","","","","","","","","",""
"image-keyboard-response","122","65630","0.0-6.0-2.58","636182d3f52ff78fc3f7de50","bdp_trlrn","Wed Mar 15 2023 22:22:04 GMT-0500 (Central Daylight Time)","451434","Untrustworthy,Trustworthy","","null","","","","ratingFB","","trustrating_stim/white_mw048.bmp","null","","","","","","","","","","",""
"image-keyboard-response","123","66523","0.0-6.0-1.59","636182d3f52ff78fc3f7de50","bdp_trlrn","Wed Mar 15 2023 22:22:04 GMT-0500 (Central Daylight Time)","451434","Untrustworthy,Trustworthy","","788","","","","rating","","trustrating_stim/white_mw099.bmp","6","","","","","","","","","","",""
"image-keyboard-response","124","66726","0.0-6.0-2.59","636182d3f52ff78fc3f7de50","bdp_trlrn","Wed Mar 15 2023 22:22:04 GMT-0500 (Central Daylight Time)","451434","Untrustworthy,Trustworthy","","null","","","","ratingFB","","trustrating_stim/white_mw099.bmp","null","","","","","","","","","","",""
"instructions","125","69140","0.0-7.0","636182d3f52ff78fc3f7de50","bdp_trlrn","Wed Mar 15 2023 22:22:04 GMT-0500 (Central Daylight Time)","451434","Untrustworthy,Trustworthy","[{""page_index"":0,""viewing_time"":2310}]","2310","","","","","","","","","","","","","","","","","",""
"instructions","126","176031","0.0-8.0","636182d3f52ff78fc3f7de50","bdp_trlrn","Wed Mar 15 2023 22:22:04 GMT-0500 (Central Daylight Time)","451434","Untrustworthy,Trustworthy","[{""page_index"":0,""viewing_time"":9631},{""page_index"":1,""viewing_time"":21256},{""page_index"":2,""viewing_time"":10215},{""page_index"":3,""viewing_time"":9975},{""page_index"":4,""viewing_time"":11206},{""page_index"":5,""viewing_time"":11742},{""page_index"":6,""viewing_time"":24783},{""page_index"":7,""viewing_time"":7980}]","106788","","","","","","","","","","","","","","","","","",""
"html-keyboard-response","127","185865","0.0-9.0","636182d3f52ff78fc3f7de50","bdp_trlrn","Wed Mar 15 2023 22:22:04 GMT-0500 (Central Daylight Time)","451434","Untrustworthy,Trustworthy","","9832","","","","","","<div class='header' style='text-align:left; position: absolute; top: 5%; left: 5%;'><small>Task 3 of 5</small></div><div class='instruxDiv'><p><strong>1) What is the minimum number of points you can choose to send to your partner?</strong></p><p>a) 0</p><p>b) 1</p><p>c) 5</p>","C","","","","","","","","","","",""
"html-keyboard-response","128","188077","0.0-10.0","636182d3f52ff78fc3f7de50","bdp_trlrn","Wed Mar 15 2023 22:22:04 GMT-0500 (Central Daylight Time)","451434","Untrustworthy,Trustworthy","","2107","","","","","","<div class='header' style='text-align:left; position: absolute; top: 5%; left: 5%;'><small>Task 3 of 5</small></div><div class='instruxDiv'><p><strong>1) What is the minimum number of points you can choose to send to your partner?</strong></p><p>a) 1</p><p>b) 1</p><p style='color:#FF0000'>c) 5</p><h3 style='color:#FF0000'>Incorrect!</h3><h3 class='center-content'>The correct response is b).</h3><h3 class='center-content'>The minimum number of points you can choose to send to your partner is 1 point.</h3><p><em>Press SPACEBAR to continue</em></p></div>"," ","","","","","","","","","","",""
"html-keyboard-response","129","193611","0.0-11.0","636182d3f52ff78fc3f7de50","bdp_trlrn","Wed Mar 15 2023 22:22:04 GMT-0500 (Central Daylight Time)","451434","Untrustworthy,Trustworthy","","5432","","","","","","<div class='header' style='text-align:left; position: absolute; top: 5%; left: 5%;'><small>Task 3 of 5</small></div><div class='instruxDiv'><p><strong>2) What is the maximum number of points you can choose to send to your partner?</strong></p><p>a) 8</p><p>b) 5</p><p>c) 3</p>","B","","","","","","","","","","",""
"html-keyboard-response","130","195000","0.0-12.0","636182d3f52ff78fc3f7de50","bdp_trlrn","Wed Mar 15 2023 22:22:04 GMT-0500 (Central Daylight Time)","451434","Untrustworthy,Trustworthy","","1287","","","","","","<div class='header' style='text-align:left; position: absolute; top: 5%; left: 5%;'><small>Task 3 of 5</small></div><div class='instruxDiv'><p><strong>2) What is the maximum number of points you can choose to send to your partner?</strong></p><p>a) 8</p><p style='color:#00FF00'>b) 5</p><p>c) 3</p><h3 style='color:#00FF00'>Correct!</h3><h3 class='center-content'>The correct response is b).</h3><h3 class='center-content'>The maximum number of points you can choose to send to your partner is 5 points.</h3><p><em>Press SPACEBAR to continue</em></p></div>"," ","","","","","","","","","","",""
"html-keyboard-response","131","197901","0.0-13.0","636182d3f52ff78fc3f7de50","bdp_trlrn","Wed Mar 15 2023 22:22:04 GMT-0500 (Central Daylight Time)","451434","Untrustworthy,Trustworthy","","2798","","","","","","<div class='header' style='text-align:left; position: absolute; top: 5%; left: 5%;'><small>Task 3 of 5</small></div><div class='instruxDiv'><p><strong>3) What happens to the amount of points you send to your partner?</strong></p><p>a) Nothing</p><p>b) It doubles</p><p>c) It quadruples</p>","C","","","","","","","","","","",""
"html-keyboard-response","132","199065","0.0-14.0","636182d3f52ff78fc3f7de50","bdp_trlrn","Wed Mar 15 2023 22:22:04 GMT-0500 (Central Daylight Time)","451434","Untrustworthy,Trustworthy","","1061","","","","","","<div class='header' style='text-align:left; position: absolute; top: 5%; left: 5%;'><small>Task 3 of 5</small></div><div class='instruxDiv'><p><strong>3) What happens to the amount of points you send to your partner?</strong></p><p>a) Nothing</p><p>b) It doubles</p><p style='color:#00FF00'>c) It quadruples</p><h3 style='color:#00FF00'>Correct!</h3><h3 class='center-content'>The correct response is c).</h3><h3 class='center-content'>The amount of points you send to your partner quadruples.</h3><p><em>Press SPACEBAR to continue</em></p></div>"," ","","","","","","","","","","",""
"html-keyboard-response","133","205538","0.0-15.0","636182d3f52ff78fc3f7de50","bdp_trlrn","Wed Mar 15 2023 22:22:04 GMT-0500 (Central Daylight Time)","451434","Untrustworthy,Trustworthy","","6371","","","","","","<div class='header' style='text-align:left; position: absolute; top: 5%; left: 5%;'><small>Task 3 of 5</small></div><div class='instruxDiv'><p><strong>4) If you decided to share 4 out of 5 points with your partner, and they decided to share half of the amount they received with you, how many points would you receive back from them on this round?</strong></p><p>a) 16</p><p>b) 0</p><p>c) 8</p>","C","","","","","","","","","","",""
"html-keyboard-response","134","207269","0.0-16.0","636182d3f52ff78fc3f7de50","bdp_trlrn","Wed Mar 15 2023 22:22:04 GMT-0500 (Central Daylight Time)","451434","Untrustworthy,Trustworthy","","1630","","","","","","<div class='header' style='text-align:left; position: absolute; top: 5%; left: 5%;'><small>Task 3 of 5</small></div><div class='instruxDiv'><p><strong>4) If you decided to share 4 out of 5 points with your partner, and they decided to share half of the amount they received with you, how many points would you receive back from them on this round?</strong></p><p>a) 16</p><p>b) 0</p><p style='color:#00FF00'>c) 8</p><h3 style='color:#00FF00'>Correct!</h3><h3 class='center-content'>The correct response is c).</h3><h3 class='center-content'>If you shared 4 out of 5 points with your partner and they decided to share half of the amount they received with you, you would receive 8 points back (i.e. (4 x 4)/2 = 8).</h3><p><em>Press SPACEBAR to continue</em></p></div>"," ","","","","","","","","","","",""
"html-keyboard-response","135","212374","0.0-17.0","636182d3f52ff78fc3f7de50","bdp_trlrn","Wed Mar 15 2023 22:22:04 GMT-0500 (Central Daylight Time)","451434","Untrustworthy,Trustworthy","","null","","","","","","<div class='header' style='text-align:left; position: absolute; top: 5%; left: 5%;'><small>Task 3 of 5</small></div><div class='instruxDiv'><p>Thank you for completing the quiz<p>These are the actual partners you will be interacting with in the next block:<p><div class='tc' align='center'><img class='introPic' src='trustrating_stim/white_mw053.bmp'><br><strong>Caleb</strong></div><div class='bl' align='center'><img class='introPic' src='trustrating_stim/white_00129_931230_fb_edt.bmp'><br><strong>Jacob</strong></div><div class='br' align='center'><img class='introPic' src='trustrating_stim/white_mw060.bmp'><br><strong>Evan</strong></div></div><p>Across <strong>66 rounds</strong> you will interact with each partner <strong>22 times</strong> (in random order).<p style='align:center; color:white'><font <em>Press SPACEBAR to continue</em></p>","null","","","","","","","","","","",""
"instructions","136","217313","0.0-18.0","636182d3f52ff78fc3f7de50","bdp_trlrn","Wed Mar 15 2023 22:22:04 GMT-0500 (Central Daylight Time)","451434","Untrustworthy,Trustworthy","[{""page_index"":0,""viewing_time"":1795},{""page_index"":1,""viewing_time"":3143}]","4938","","","","","","","","","","","","","","","","","",""
"html-keyboard-response","137","219893","0.0-19.0-1.0","636182d3f52ff78fc3f7de50","bdp_trlrn","Wed Mar 15 2023 22:22:04 GMT-0500 (Central Daylight Time)","451434","Untrustworthy,Trustworthy","","2475","","","","decision","","<div class='trialDiv'><img src='trustrating_stim/white_00129_931230_fb_edt.bmp'><br><font class='baseline'><strong>Jacob</strong><p>Choose number of points to send.</font><div class='respPicDiv'><img src='img/responseButtonOffersNo0L.png' class='respPic'></div></div>","2","1","Jacob","7","Kept","0.2,0.65","10","0.2","trustrating_stim/white_00129_931230_fb_edt.bmp","5.5","5","1"
"html-keyboard-response","138","220145","0.0-19.0-2.0","636182d3f52ff78fc3f7de50","bdp_trlrn","Wed Mar 15 2023 22:22:04 GMT-0500 (Central Daylight Time)","451434","Untrustworthy,Trustworthy","","null","","","","decisionFB","","<div class='trialDiv'><img src='trustrating_stim/white_00129_931230_fb_edt.bmp'><br><font class='baseline'><strong>Jacob</strong><p>Choose number of points to send.</font><div class='respPicDiv'><img src='img/responseButtonOffersNo0L2.png' class='respPic'></div></div>","null","1","Jacob","7","Kept","0.2,0.65","10","0.2","trustrating_stim/white_00129_931230_fb_edt.bmp","5.5","3","1"
"html-keyboard-response","139","221149","0.0-19.0-3.0","636182d3f52ff78fc3f7de50","bdp_trlrn","Wed Mar 15 2023 22:22:04 GMT-0500 (Central Daylight Time)","451434","Untrustworthy,Trustworthy","","null","","","","feedback","","<div class='trialDiv'><img src='trustrating_stim/white_00129_931230_fb_edt.bmp'><br><font class='baseline'><strong>Jacob</strong><p>Received: <strong>8</strong></font> &nbsp; &nbsp; &nbsp; &nbsp; &nbsp; &nbsp;<font class='negOutcome'>Shared back: <strong>0</strong></font></font><div class='respPicDiv'><img src='img/responseButtonOffersNo0_wht.png' class='respPic'></div></div>","null","1","Jacob","7","Kept","0.2,0.65","10","0.2","trustrating_stim/white_00129_931230_fb_edt.bmp","5.5","3","1"
"html-keyboard-response","140","221608","0.0-19.0-1.1","636182d3f52ff78fc3f7de50","bdp_trlrn","Wed Mar 15 2023 22:22:04 GMT-0500 (Central Daylight Time)","451434","Untrustworthy,Trustworthy","","458","","","","decision","","<div class='trialDiv'><img src='trustrating_stim/white_mw053.bmp'><br><font class='baseline'><strong>Caleb</strong><p>Choose number of points to send.</font><div class='respPicDiv'><img src='img/responseButtonOffersNo0L.png' class='respPic'></div></div>","3","1","Caleb","2","Shared","0.65,0.35","13","0.65","trustrating_stim/white_mw053.bmp","4","8","2"
"html-keyboard-response","141","221859","0.0-19.0-2.1","636182d3f52ff78fc3f7de50","bdp_trlrn","Wed Mar 15 2023 22:22:04 GMT-0500 (Central Daylight Time)","451434","Untrustworthy,Trustworthy","","null","","","","decisionFB","","<div class='trialDiv'><img src='trustrating_stim/white_mw053.bmp'><br><font class='baseline'><strong>Caleb</strong><p>Choose number of points to send.</font><div class='respPicDiv'><img src='img/responseButtonOffersNo0L3.png' class='respPic'></div></div>","null","1","Caleb","2","Shared","0.65,0.35","13","0.65","trustrating_stim/white_mw053.bmp","4","5","2"
"html-keyboard-response","142","222862","0.0-19.0-3.1","636182d3f52ff78fc3f7de50","bdp_trlrn","Wed Mar 15 2023 22:22:04 GMT-0500 (Central Daylight Time)","451434","Untrustworthy,Trustworthy","","null","","","","feedback","","<div class='trialDiv'><img src='trustrating_stim/white_mw053.bmp'><br><font class='baseline'><strong>Caleb</strong><p>Received: <strong>12</strong></font> &nbsp; &nbsp; &nbsp; &nbsp; &nbsp; &nbsp;<font class='posOutcome'>Shared back: <strong>6</strong></font></font><div class='respPicDiv'><img src='img/responseButtonOffersNo0_wht.png' class='respPic'></div></div>","null","1","Caleb","2","Shared","0.65,0.35","13","0.65","trustrating_stim/white_mw053.bmp","4","11","2"
"html-keyboard-response","143","223560","0.0-19.0-1.2","636182d3f52ff78fc3f7de50","bdp_trlrn","Wed Mar 15 2023 22:22:04 GMT-0500 (Central Daylight Time)","451434","Untrustworthy,Trustworthy","","696","","","","decision","","<div class='trialDiv'><img src='trustrating_stim/white_mw060.bmp'><br><font class='baseline'><strong>Evan</strong><p>Choose number of points to send.</font><div class='respPicDiv'><img src='img/responseButtonOffersNo0L.png' class='respPic'></div></div>","3","1","Evan","8","Kept","0.65,0.2","8","0.65","trustrating_stim/white_mw060.bmp","6","16","3"
"html-keyboard-response","144","223813","0.0-19.0-2.2","636182d3f52ff78fc3f7de50","bdp_trlrn","Wed Mar 15 2023 22:22:04 GMT-0500 (Central Daylight Time)","451434","Untrustworthy,Trustworthy","","null","","","","decisionFB","","<div class='trialDiv'><img src='trustrating_stim/white_mw060.bmp'><br><font class='baseline'><strong>Evan</strong><p>Choose number of points to send.</font><div class='respPicDiv'><img src='img/responseButtonOffersNo0L3.png' class='respPic'></div></div>","null","1","Evan","8","Kept","0.65,0.2","8","0.65","trustrating_stim/white_mw060.bmp","6","13","3"
"html-keyboard-response","145","224815","0.0-19.0-3.2","636182d3f52ff78fc3f7de50","bdp_trlrn","Wed Mar 15 2023 22:22:04 GMT-0500 (Central Daylight Time)","451434","Untrustworthy,Trustworthy","","null","","","","feedback","","<div class='trialDiv'><img src='trustrating_stim/white_mw060.bmp'><br><font class='baseline'><strong>Evan</strong><p>Received: <strong>12</strong></font> &nbsp; &nbsp; &nbsp; &nbsp; &nbsp; &nbsp;<font class='negOutcome'>Shared back: <strong>0</strong></font></font><div class='respPicDiv'><img src='img/responseButtonOffersNo0_wht.png' class='respPic'></div></div>","null","1","Evan","8","Kept","0.65,0.2","8","0.65","trustrating_stim/white_mw060.bmp","6","13","3"
"html-keyboard-response","146","225405","0.0-19.0-1.3","636182d3f52ff78fc3f7de50","bdp_trlrn","Wed Mar 15 2023 22:22:04 GMT-0500 (Central Daylight Time)","451434","Untrustworthy,Trustworthy","","588","","","","decision","","<div class='trialDiv'><img src='trustrating_stim/white_mw053.bmp'><br><font class='baseline'><strong>Caleb</strong><p>Choose number of points to send.</font><div class='respPicDiv'><img src='img/responseButtonOffersNo0L.png' class='respPic'></div></div>","2","2","Caleb","2","Shared","0.65,0.35","13","0.65","trustrating_stim/white_mw053.bmp","4","18","4"
"html-keyboard-response","147","225658","0.0-19.0-2.3","636182d3f52ff78fc3f7de50","bdp_trlrn","Wed Mar 15 2023 22:22:04 GMT-0500 (Central Daylight Time)","451434","Untrustworthy,Trustworthy","","null","","","","decisionFB","","<div class='trialDiv'><img src='trustrating_stim/white_mw053.bmp'><br><font class='baseline'><strong>Caleb</strong><p>Choose number of points to send.</font><div class='respPicDiv'><img src='img/responseButtonOffersNo0L2.png' class='respPic'></div></div>","null","2","Caleb","2","Shared","0.65,0.35","13","0.65","trustrating_stim/white_mw053.bmp","4","16","4"
"html-keyboard-response","148","226661","0.0-19.0-3.3","636182d3f52ff78fc3f7de50","bdp_trlrn","Wed Mar 15 2023 22:22:04 GMT-0500 (Central Daylight Time)","451434","Untrustworthy,Trustworthy","","null","","","","feedback","","<div class='trialDiv'><img src='trustrating_stim/white_mw053.bmp'><br><font class='baseline'><strong>Caleb</strong><p>Received: <strong>8</strong></font> &nbsp; &nbsp; &nbsp; &nbsp; &nbsp; &nbsp;<font class='posOutcome'>Shared back: <strong>4</strong></font></font><div class='respPicDiv'><img src='img/responseButtonOffersNo0_wht.png' class='respPic'></div></div>","null","2","Caleb","2","Shared","0.65,0.35","13","0.65","trustrating_stim/white_mw053.bmp","4","20","4"
"html-keyboard-response","149","227116","0.0-19.0-1.4","636182d3f52ff78fc3f7de50","bdp_trlrn","Wed Mar 15 2023 22:22:04 GMT-0500 (Central Daylight Time)","451434","Untrustworthy,Trustworthy","","453","","","","decision","","<div class='trialDiv'><img src='trustrating_stim/white_mw060.bmp'><br><font class='baseline'><strong>Evan</strong><p>Choose number of points to send.</font><div class='respPicDiv'><img src='img/responseButtonOffersNo0L.png' class='respPic'></div></div>","3","2","Evan","8","Shared","0.65,0.2","8","0.65","trustrating_stim/white_mw060.bmp","6","25","5"
"html-keyboard-response","150","227370","0.0-19.0-2.4","636182d3f52ff78fc3f7de50","bdp_trlrn","Wed Mar 15 2023 22:22:04 GMT-0500 (Central Daylight Time)","451434","Untrustworthy,Trustworthy","","null","","","","decisionFB","","<div class='trialDiv'><img src='trustrating_stim/white_mw060.bmp'><br><font class='baseline'><strong>Evan</strong><p>Choose number of points to send.</font><div class='respPicDiv'><img src='img/responseButtonOffersNo0L3.png' class='respPic'></div></div>","null","2","Evan","8","Shared","0.65,0.2","8","0.65","trustrating_stim/white_mw060.bmp","6","22","5"
"html-keyboard-response","151","228372","0.0-19.0-3.4","636182d3f52ff78fc3f7de50","bdp_trlrn","Wed Mar 15 2023 22:22:04 GMT-0500 (Central Daylight Time)","451434","Untrustworthy,Trustworthy","","null","","","","feedback","","<div class='trialDiv'><img src='trustrating_stim/white_mw060.bmp'><br><font class='baseline'><strong>Evan</strong><p>Received: <strong>12</strong></font> &nbsp; &nbsp; &nbsp; &nbsp; &nbsp; &nbsp;<font class='posOutcome'>Shared back: <strong>6</strong></font></font><div class='respPicDiv'><img src='img/responseButtonOffersNo0_wht.png' class='respPic'></div></div>","null","2","Evan","8","Shared","0.65,0.2","8","0.65","trustrating_stim/white_mw060.bmp","6","28","5"
"html-keyboard-response","152","228736","0.0-19.0-1.5","636182d3f52ff78fc3f7de50","bdp_trlrn","Wed Mar 15 2023 22:22:04 GMT-0500 (Central Daylight Time)","451434","Untrustworthy,Trustworthy","","362","","","","decision","","<div class='trialDiv'><img src='trustrating_stim/white_00129_931230_fb_edt.bmp'><br><font class='baseline'><strong>Jacob</strong><p>Choose number of points to send.</font><div class='respPicDiv'><img src='img/responseButtonOffersNo0L.png' class='respPic'></div></div>","2","2","Jacob","7","Kept","0.2,0.65","10","0.2","trustrating_stim/white_00129_931230_fb_edt.bmp","5.5","33","6"
"html-keyboard-response","153","228989","0.0-19.0-2.5","636182d3f52ff78fc3f7de50","bdp_trlrn","Wed Mar 15 2023 22:22:04 GMT-0500 (Central Daylight Time)","451434","Untrustworthy,Trustworthy","","null","","","","decisionFB","","<div class='trialDiv'><img src='trustrating_stim/white_00129_931230_fb_edt.bmp'><br><font class='baseline'><strong>Jacob</strong><p>Choose number of points to send.</font><div class='respPicDiv'><img src='img/responseButtonOffersNo0L2.png' class='respPic'></div></div>","null","2","Jacob","7","Kept","0.2,0.65","10","0.2","trustrating_stim/white_00129_931230_fb_edt.bmp","5.5","31","6"
"html-keyboard-response","154","229992","0.0-19.0-3.5","636182d3f52ff78fc3f7de50","bdp_trlrn","Wed Mar 15 2023 22:22:04 GMT-0500 (Central Daylight Time)","451434","Untrustworthy,Trustworthy","","null","","","","feedback","","<div class='trialDiv'><img src='trustrating_stim/white_00129_931230_fb_edt.bmp'><br><font class='baseline'><strong>Jacob</strong><p>Received: <strong>8</strong></font> &nbsp; &nbsp; &nbsp; &nbsp; &nbsp; &nbsp;<font class='negOutcome'>Shared back: <strong>0</strong></font></font><div class='respPicDiv'><img src='img/responseButtonOffersNo0_wht.png' class='respPic'></div></div>","null","2","Jacob","7","Kept","0.2,0.65","10","0.2","trustrating_stim/white_00129_931230_fb_edt.bmp","5.5","31","6"
"html-keyboard-response","155","230565","0.0-19.0-1.6","636182d3f52ff78fc3f7de50","bdp_trlrn","Wed Mar 15 2023 22:22:04 GMT-0500 (Central Daylight Time)","451434","Untrustworthy,Trustworthy","","571","","","","decision","","<div class='trialDiv'><img src='trustrating_stim/white_mw053.bmp'><br><font class='baseline'><strong>Caleb</strong><p>Choose number of points to send.</font><div class='respPicDiv'><img src='img/responseButtonOffersNo0L.png' class='respPic'></div></div>","4","3","Caleb","2","Kept","0.65,0.35","13","0.65","trustrating_stim/white_mw053.bmp","4","36","7"
"html-keyboard-response","156","230819","0.0-19.0-2.6","636182d3f52ff78fc3f7de50","bdp_trlrn","Wed Mar 15 2023 22:22:04 GMT-0500 (Central Daylight Time)","451434","Untrustworthy,Trustworthy","","null","","","","decisionFB","","<div class='trialDiv'><img src='trustrating_stim/white_mw053.bmp'><br><font class='baseline'><strong>Caleb</strong><p>Choose number of points to send.</font><div class='respPicDiv'><img src='img/responseButtonOffersNo0L4.png' class='respPic'></div></div>","null","3","Caleb","2","Kept","0.65,0.35","13","0.65","trustrating_stim/white_mw053.bmp","4","32","7"
"html-keyboard-response","157","231821","0.0-19.0-3.6","636182d3f52ff78fc3f7de50","bdp_trlrn","Wed Mar 15 2023 22:22:04 GMT-0500 (Central Daylight Time)","451434","Untrustworthy,Trustworthy","","null","","","","feedback","","<div class='trialDiv'><img src='trustrating_stim/white_mw053.bmp'><br><font class='baseline'><strong>Caleb</strong><p>Received: <strong>16</strong></font> &nbsp; &nbsp; &nbsp; &nbsp; &nbsp; &nbsp;<font class='negOutcome'>Shared back: <strong>0</strong></font></font><div class='respPicDiv'><img src='img/responseButtonOffersNo0_wht.png' class='respPic'></div></div>","null","3","Caleb","2","Kept","0.65,0.35","13","0.65","trustrating_stim/white_mw053.bmp","4","32","7"
"html-keyboard-response","158","231976","0.0-19.0-1.7","636182d3f52ff78fc3f7de50","bdp_trlrn","Wed Mar 15 2023 22:22:04 GMT-0500 (Central Daylight Time)","451434","Untrustworthy,Trustworthy","","152","","","","decision","","<div class='trialDiv'><img src='trustrating_stim/white_mw060.bmp'><br><font class='baseline'><strong>Evan</strong><p>Choose number of points to send.</font><div class='respPicDiv'><img src='img/responseButtonOffersNo0L.png' class='respPic'></div></div>","4","3","Evan","8","Shared","0.65,0.2","8","0.65","trustrating_stim/white_mw060.bmp","6","37","8"
"html-keyboard-response","159","232228","0.0-19.0-2.7","636182d3f52ff78fc3f7de50","bdp_trlrn","Wed Mar 15 2023 22:22:04 GMT-0500 (Central Daylight Time)","451434","Untrustworthy,Trustworthy","","null","","","","decisionFB","","<div class='trialDiv'><img src='trustrating_stim/white_mw060.bmp'><br><font class='baseline'><strong>Evan</strong><p>Choose number of points to send.</font><div class='respPicDiv'><img src='img/responseButtonOffersNo0L4.png' class='respPic'></div></div>","null","3","Evan","8","Shared","0.65,0.2","8","0.65","trustrating_stim/white_mw060.bmp","6","33","8"
"html-keyboard-response","160","233231","0.0-19.0-3.7","636182d3f52ff78fc3f7de50","bdp_trlrn","Wed Mar 15 2023 22:22:04 GMT-0500 (Central Daylight Time)","451434","Untrustworthy,Trustworthy","","null","","","","feedback","","<div class='trialDiv'><img src='trustrating_stim/white_mw060.bmp'><br><font class='baseline'><strong>Evan</strong><p>Received: <strong>16</strong></font> &nbsp; &nbsp; &nbsp; &nbsp; &nbsp; &nbsp;<font class='posOutcome'>Shared back: <strong>8</strong></font></font><div class='respPicDiv'><img src='img/responseButtonOffersNo0_wht.png' class='respPic'></div></div>","null","3","Evan","8","Shared","0.65,0.2","8","0.65","trustrating_stim/white_mw060.bmp","6","41","8"
"html-keyboard-response","161","233551","0.0-19.0-1.8","636182d3f52ff78fc3f7de50","bdp_trlrn","Wed Mar 15 2023 22:22:04 GMT-0500 (Central Daylight Time)","451434","Untrustworthy,Trustworthy","","318","","","","decision","","<div class='trialDiv'><img src='trustrating_stim/white_00129_931230_fb_edt.bmp'><br><font class='baseline'><strong>Jacob</strong><p>Choose number of points to send.</font><div class='respPicDiv'><img src='img/responseButtonOffersNo0L.png' class='respPic'></div></div>","3","3","Jacob","7","Kept","0.2,0.65","10","0.2","trustrating_stim/white_00129_931230_fb_edt.bmp","5.5","46","9"
"html-keyboard-response","162","233804","0.0-19.0-2.8","636182d3f52ff78fc3f7de50","bdp_trlrn","Wed Mar 15 2023 22:22:04 GMT-0500 (Central Daylight Time)","451434","Untrustworthy,Trustworthy","","null","","","","decisionFB","","<div class='trialDiv'><img src='trustrating_stim/white_00129_931230_fb_edt.bmp'><br><font class='baseline'><strong>Jacob</strong><p>Choose number of points to send.</font><div class='respPicDiv'><img src='img/responseButtonOffersNo0L3.png' class='respPic'></div></div>","null","3","Jacob","7","Kept","0.2,0.65","10","0.2","trustrating_stim/white_00129_931230_fb_edt.bmp","5.5","43","9"
"html-keyboard-response","163","234807","0.0-19.0-3.8","636182d3f52ff78fc3f7de50","bdp_trlrn","Wed Mar 15 2023 22:22:04 GMT-0500 (Central Daylight Time)","451434","Untrustworthy,Trustworthy","","null","","","","feedback","","<div class='trialDiv'><img src='trustrating_stim/white_00129_931230_fb_edt.bmp'><br><font class='baseline'><strong>Jacob</strong><p>Received: <strong>12</strong></font> &nbsp; &nbsp; &nbsp; &nbsp; &nbsp; &nbsp;<font class='negOutcome'>Shared back: <strong>0</strong></font></font><div class='respPicDiv'><img src='img/responseButtonOffersNo0_wht.png' class='respPic'></div></div>","null","3","Jacob","7","Kept","0.2,0.65","10","0.2","trustrating_stim/white_00129_931230_fb_edt.bmp","5.5","43","9"
"html-keyboard-response","164","235051","0.0-19.0-1.9","636182d3f52ff78fc3f7de50","bdp_trlrn","Wed Mar 15 2023 22:22:04 GMT-0500 (Central Daylight Time)","451434","Untrustworthy,Trustworthy","","241","","","","decision","","<div class='trialDiv'><img src='trustrating_stim/white_mw060.bmp'><br><font class='baseline'><strong>Evan</strong><p>Choose number of points to send.</font><div class='respPicDiv'><img src='img/responseButtonOffersNo0L.png' class='respPic'></div></div>","5","4","Evan","8","Shared","0.65,0.2","8","0.65","trustrating_stim/white_mw060.bmp","6","48","10"
"html-keyboard-response","165","235304","0.0-19.0-2.9","636182d3f52ff78fc3f7de50","bdp_trlrn","Wed Mar 15 2023 22:22:04 GMT-0500 (Central Daylight Time)","451434","Untrustworthy,Trustworthy","","null","","","","decisionFB","","<div class='trialDiv'><img src='trustrating_stim/white_mw060.bmp'><br><font class='baseline'><strong>Evan</strong><p>Choose number of points to send.</font><div class='respPicDiv'><img src='img/responseButtonOffersNo0L5.png' class='respPic'></div></div>","null","4","Evan","8","Shared","0.65,0.2","8","0.65","trustrating_stim/white_mw060.bmp","6","43","10"
"html-keyboard-response","166","236307","0.0-19.0-3.9","636182d3f52ff78fc3f7de50","bdp_trlrn","Wed Mar 15 2023 22:22:04 GMT-0500 (Central Daylight Time)","451434","Untrustworthy,Trustworthy","","null","","","","feedback","","<div class='trialDiv'><img src='trustrating_stim/white_mw060.bmp'><br><font class='baseline'><strong>Evan</strong><p>Received: <strong>20</strong></font> &nbsp; &nbsp; &nbsp; &nbsp; &nbsp; &nbsp;<font class='posOutcome'>Shared back: <strong>10</strong></font></font><div class='respPicDiv'><img src='img/responseButtonOffersNo0_wht.png' class='respPic'></div></div>","null","4","Evan","8","Shared","0.65,0.2","8","0.65","trustrating_stim/white_mw060.bmp","6","53","10"
"html-keyboard-response","167","237337","0.0-19.0-1.10","636182d3f52ff78fc3f7de50","bdp_trlrn","Wed Mar 15 2023 22:22:04 GMT-0500 (Central Daylight Time)","451434","Untrustworthy,Trustworthy","","1028","","","","decision","","<div class='trialDiv'><img src='trustrating_stim/white_00129_931230_fb_edt.bmp'><br><font class='baseline'><strong>Jacob</strong><p>Choose number of points to send.</font><div class='respPicDiv'><img src='img/responseButtonOffersNo0L.png' class='respPic'></div></div>","3","4","Jacob","7","Shared","0.2,0.65","10","0.2","trustrating_stim/white_00129_931230_fb_edt.bmp","5.5","58","11"
"html-keyboard-response","168","237590","0.0-19.0-2.10","636182d3f52ff78fc3f7de50","bdp_trlrn","Wed Mar 15 2023 22:22:04 GMT-0500 (Central Daylight Time)","451434","Untrustworthy,Trustworthy","","null","","","","decisionFB","","<div class='trialDiv'><img src='trustrating_stim/white_00129_931230_fb_edt.bmp'><br><font class='baseline'><strong>Jacob</strong><p>Choose number of points to send.</font><div class='respPicDiv'><img src='img/responseButtonOffersNo0L3.png' class='respPic'></div></div>","null","4","Jacob","7","Shared","0.2,0.65","10","0.2","trustrating_stim/white_00129_931230_fb_edt.bmp","5.5","55","11"
"html-keyboard-response","169","238594","0.0-19.0-3.10","636182d3f52ff78fc3f7de50","bdp_trlrn","Wed Mar 15 2023 22:22:04 GMT-0500 (Central Daylight Time)","451434","Untrustworthy,Trustworthy","","null","","","","feedback","","<div class='trialDiv'><img src='trustrating_stim/white_00129_931230_fb_edt.bmp'><br><font class='baseline'><strong>Jacob</strong><p>Received: <strong>12</strong></font> &nbsp; &nbsp; &nbsp; &nbsp; &nbsp; &nbsp;<font class='posOutcome'>Shared back: <strong>6</strong></font></font><div class='respPicDiv'><img src='img/responseButtonOffersNo0_wht.png' class='respPic'></div></div>","null","4","Jacob","7","Shared","0.2,0.65","10","0.2","trustrating_stim/white_00129_931230_fb_edt.bmp","5.5","61","11"
"html-keyboard-response","170","238741","0.0-19.0-1.11","636182d3f52ff78fc3f7de50","bdp_trlrn","Wed Mar 15 2023 22:22:04 GMT-0500 (Central Daylight Time)","451434","Untrustworthy,Trustworthy","","145","","","","decision","","<div class='trialDiv'><img src='trustrating_stim/white_mw053.bmp'><br><font class='baseline'><strong>Caleb</strong><p>Choose number of points to send.</font><div class='respPicDiv'><img src='img/responseButtonOffersNo0L.png' class='respPic'></div></div>","2","4","Caleb","2","Shared","0.65,0.35","13","0.65","trustrating_stim/white_mw053.bmp","4","66","12"
"html-keyboard-response","171","238994","0.0-19.0-2.11","636182d3f52ff78fc3f7de50","bdp_trlrn","Wed Mar 15 2023 22:22:04 GMT-0500 (Central Daylight Time)","451434","Untrustworthy,Trustworthy","","null","","","","decisionFB","","<div class='trialDiv'><img src='trustrating_stim/white_mw053.bmp'><br><font class='baseline'><strong>Caleb</strong><p>Choose number of points to send.</font><div class='respPicDiv'><img src='img/responseButtonOffersNo0L2.png' class='respPic'></div></div>","null","4","Caleb","2","Shared","0.65,0.35","13","0.65","trustrating_stim/white_mw053.bmp","4","64","12"
"html-keyboard-response","172","239997","0.0-19.0-3.11","636182d3f52ff78fc3f7de50","bdp_trlrn","Wed Mar 15 2023 22:22:04 GMT-0500 (Central Daylight Time)","451434","Untrustworthy,Trustworthy","","null","","","","feedback","","<div class='trialDiv'><img src='trustrating_stim/white_mw053.bmp'><br><font class='baseline'><strong>Caleb</strong><p>Received: <strong>8</strong></font> &nbsp; &nbsp; &nbsp; &nbsp; &nbsp; &nbsp;<font class='posOutcome'>Shared back: <strong>4</strong></font></font><div class='respPicDiv'><img src='img/responseButtonOffersNo0_wht.png' class='respPic'></div></div>","null","4","Caleb","2","Shared","0.65,0.35","13","0.65","trustrating_stim/white_mw053.bmp","4","68","12"
"html-keyboard-response","173","240451","0.0-19.0-1.12","636182d3f52ff78fc3f7de50","bdp_trlrn","Wed Mar 15 2023 22:22:04 GMT-0500 (Central Daylight Time)","451434","Untrustworthy,Trustworthy","","451","","","","decision","","<div class='trialDiv'><img src='trustrating_stim/white_mw060.bmp'><br><font class='baseline'><strong>Evan</strong><p>Choose number of points to send.</font><div class='respPicDiv'><img src='img/responseButtonOffersNo0L.png' class='respPic'></div></div>","2","5","Evan","8","Kept","0.65,0.2","8","0.65","trustrating_stim/white_mw060.bmp","6","73","13"
"html-keyboard-response","174","240703","0.0-19.0-2.12","636182d3f52ff78fc3f7de50","bdp_trlrn","Wed Mar 15 2023 22:22:04 GMT-0500 (Central Daylight Time)","451434","Untrustworthy,Trustworthy","","null","","","","decisionFB","","<div class='trialDiv'><img src='trustrating_stim/white_mw060.bmp'><br><font class='baseline'><strong>Evan</strong><p>Choose number of points to send.</font><div class='respPicDiv'><img src='img/responseButtonOffersNo0L2.png' class='respPic'></div></div>","null","5","Evan","8","Kept","0.65,0.2","8","0.65","trustrating_stim/white_mw060.bmp","6","71","13"
"html-keyboard-response","175","241706","0.0-19.0-3.12","636182d3f52ff78fc3f7de50","bdp_trlrn","Wed Mar 15 2023 22:22:04 GMT-0500 (Central Daylight Time)","451434","Untrustworthy,Trustworthy","","null","","","","feedback","","<div class='trialDiv'><img src='trustrating_stim/white_mw060.bmp'><br><font class='baseline'><strong>Evan</strong><p>Received: <strong>8</strong></font> &nbsp; &nbsp; &nbsp; &nbsp; &nbsp; &nbsp;<font class='negOutcome'>Shared back: <strong>0</strong></font></font><div class='respPicDiv'><img src='img/responseButtonOffersNo0_wht.png' class='respPic'></div></div>","null","5","Evan","8","Kept","0.65,0.2","8","0.65","trustrating_stim/white_mw060.bmp","6","71","13"
"html-keyboard-response","176","241951","0.0-19.0-1.13","636182d3f52ff78fc3f7de50","bdp_trlrn","Wed Mar 15 2023 22:22:04 GMT-0500 (Central Daylight Time)","451434","Untrustworthy,Trustworthy","","242","","","","decision","","<div class='trialDiv'><img src='trustrating_stim/white_mw053.bmp'><br><font class='baseline'><strong>Caleb</strong><p>Choose number of points to send.</font><div class='respPicDiv'><img src='img/responseButtonOffersNo0L.png' class='respPic'></div></div>","4","5","Caleb","2","Kept","0.65,0.35","13","0.65","trustrating_stim/white_mw053.bmp","4","76","14"
"html-keyboard-response","177","242204","0.0-19.0-2.13","636182d3f52ff78fc3f7de50","bdp_trlrn","Wed Mar 15 2023 22:22:04 GMT-0500 (Central Daylight Time)","451434","Untrustworthy,Trustworthy","","null","","","","decisionFB","","<div class='trialDiv'><img src='trustrating_stim/white_mw053.bmp'><br><font class='baseline'><strong>Caleb</strong><p>Choose number of points to send.</font><div class='respPicDiv'><img src='img/responseButtonOffersNo0L4.png' class='respPic'></div></div>","null","5","Caleb","2","Kept","0.65,0.35","13","0.65","trustrating_stim/white_mw053.bmp","4","72","14"
"html-keyboard-response","178","243205","0.0-19.0-3.13","636182d3f52ff78fc3f7de50","bdp_trlrn","Wed Mar 15 2023 22:22:04 GMT-0500 (Central Daylight Time)","451434","Untrustworthy,Trustworthy","","null","","","","feedback","","<div class='trialDiv'><img src='trustrating_stim/white_mw053.bmp'><br><font class='baseline'><strong>Caleb</strong><p>Received: <strong>16</strong></font> &nbsp; &nbsp; &nbsp; &nbsp; &nbsp; &nbsp;<font class='negOutcome'>Shared back: <strong>0</strong></font></font><div class='respPicDiv'><img src='img/responseButtonOffersNo0_wht.png' class='respPic'></div></div>","null","5","Caleb","2","Kept","0.65,0.35","13","0.65","trustrating_stim/white_mw053.bmp","4","72","14"
"html-keyboard-response","179","243421","0.0-19.0-1.14","636182d3f52ff78fc3f7de50","bdp_trlrn","Wed Mar 15 2023 22:22:04 GMT-0500 (Central Daylight Time)","451434","Untrustworthy,Trustworthy","","214","","","","decision","","<div class='trialDiv'><img src='trustrating_stim/white_00129_931230_fb_edt.bmp'><br><font class='baseline'><strong>Jacob</strong><p>Choose number of points to send.</font><div class='respPicDiv'><img src='img/responseButtonOffersNo0L.png' class='respPic'></div></div>","4","5","Jacob","7","Shared","0.2,0.65","10","0.2","trustrating_stim/white_00129_931230_fb_edt.bmp","5.5","77","15"
"html-keyboard-response","180","243687","0.0-19.0-2.14","636182d3f52ff78fc3f7de50","bdp_trlrn","Wed Mar 15 2023 22:22:04 GMT-0500 (Central Daylight Time)","451434","Untrustworthy,Trustworthy","","null","","","","decisionFB","","<div class='trialDiv'><img src='trustrating_stim/white_00129_931230_fb_edt.bmp'><br><font class='baseline'><strong>Jacob</strong><p>Choose number of points to send.</font><div class='respPicDiv'><img src='img/responseButtonOffersNo0L4.png' class='respPic'></div></div>","null","5","Jacob","7","Shared","0.2,0.65","10","0.2","trustrating_stim/white_00129_931230_fb_edt.bmp","5.5","73","15"
"html-keyboard-response","181","244690","0.0-19.0-3.14","636182d3f52ff78fc3f7de50","bdp_trlrn","Wed Mar 15 2023 22:22:04 GMT-0500 (Central Daylight Time)","451434","Untrustworthy,Trustworthy","","null","","","","feedback","","<div class='trialDiv'><img src='trustrating_stim/white_00129_931230_fb_edt.bmp'><br><font class='baseline'><strong>Jacob</strong><p>Received: <strong>16</strong></font> &nbsp; &nbsp; &nbsp; &nbsp; &nbsp; &nbsp;<font class='posOutcome'>Shared back: <strong>8</strong></font></font><div class='respPicDiv'><img src='img/responseButtonOffersNo0_wht.png' class='respPic'></div></div>","null","5","Jacob","7","Shared","0.2,0.65","10","0.2","trustrating_stim/white_00129_931230_fb_edt.bmp","5.5","81","15"
"html-keyboard-response","182","245011","0.0-19.0-1.15","636182d3f52ff78fc3f7de50","bdp_trlrn","Wed Mar 15 2023 22:22:04 GMT-0500 (Central Daylight Time)","451434","Untrustworthy,Trustworthy","","318","","","","decision","","<div class='trialDiv'><img src='trustrating_stim/white_mw053.bmp'><br><font class='baseline'><strong>Caleb</strong><p>Choose number of points to send.</font><div class='respPicDiv'><img src='img/responseButtonOffersNo0L.png' class='respPic'></div></div>","3","6","Caleb","2","Kept","0.65,0.35","13","0.65","trustrating_stim/white_mw053.bmp","4","86","16"
"html-keyboard-response","183","245263","0.0-19.0-2.15","636182d3f52ff78fc3f7de50","bdp_trlrn","Wed Mar 15 2023 22:22:04 GMT-0500 (Central Daylight Time)","451434","Untrustworthy,Trustworthy","","null","","","","decisionFB","","<div class='trialDiv'><img src='trustrating_stim/white_mw053.bmp'><br><font class='baseline'><strong>Caleb</strong><p>Choose number of points to send.</font><div class='respPicDiv'><img src='img/responseButtonOffersNo0L3.png' class='respPic'></div></div>","null","6","Caleb","2","Kept","0.65,0.35","13","0.65","trustrating_stim/white_mw053.bmp","4","83","16"
"html-keyboard-response","184","246266","0.0-19.0-3.15","636182d3f52ff78fc3f7de50","bdp_trlrn","Wed Mar 15 2023 22:22:04 GMT-0500 (Central Daylight Time)","451434","Untrustworthy,Trustworthy","","null","","","","feedback","","<div class='trialDiv'><img src='trustrating_stim/white_mw053.bmp'><br><font class='baseline'><strong>Caleb</strong><p>Received: <strong>12</strong></font> &nbsp; &nbsp; &nbsp; &nbsp; &nbsp; &nbsp;<font class='negOutcome'>Shared back: <strong>0</strong></font></font><div class='respPicDiv'><img src='img/responseButtonOffersNo0_wht.png' class='respPic'></div></div>","null","6","Caleb","2","Kept","0.65,0.35","13","0.65","trustrating_stim/white_mw053.bmp","4","83","16"
"html-keyboard-response","185","246480","0.0-19.0-1.16","636182d3f52ff78fc3f7de50","bdp_trlrn","Wed Mar 15 2023 22:22:04 GMT-0500 (Central Daylight Time)","451434","Untrustworthy,Trustworthy","","213","","","","decision","","<div class='trialDiv'><img src='trustrating_stim/white_00129_931230_fb_edt.bmp'><br><font class='baseline'><strong>Jacob</strong><p>Choose number of points to send.</font><div class='respPicDiv'><img src='img/responseButtonOffersNo0L.png' class='respPic'></div></div>","2","6","Jacob","7","Kept","0.2,0.65","10","0.2","trustrating_stim/white_00129_931230_fb_edt.bmp","5.5","88","17"
"html-keyboard-response","186","246733","0.0-19.0-2.16","636182d3f52ff78fc3f7de50","bdp_trlrn","Wed Mar 15 2023 22:22:04 GMT-0500 (Central Daylight Time)","451434","Untrustworthy,Trustworthy","","null","","","","decisionFB","","<div class='trialDiv'><img src='trustrating_stim/white_00129_931230_fb_edt.bmp'><br><font class='baseline'><strong>Jacob</strong><p>Choose number of points to send.</font><div class='respPicDiv'><img src='img/responseButtonOffersNo0L2.png' class='respPic'></div></div>","null","6","Jacob","7","Kept","0.2,0.65","10","0.2","trustrating_stim/white_00129_931230_fb_edt.bmp","5.5","86","17"
"html-keyboard-response","187","247735","0.0-19.0-3.16","636182d3f52ff78fc3f7de50","bdp_trlrn","Wed Mar 15 2023 22:22:04 GMT-0500 (Central Daylight Time)","451434","Untrustworthy,Trustworthy","","null","","","","feedback","","<div class='trialDiv'><img src='trustrating_stim/white_00129_931230_fb_edt.bmp'><br><font class='baseline'><strong>Jacob</strong><p>Received: <strong>8</strong></font> &nbsp; &nbsp; &nbsp; &nbsp; &nbsp; &nbsp;<font class='negOutcome'>Shared back: <strong>0</strong></font></font><div class='respPicDiv'><img src='img/responseButtonOffersNo0_wht.png' class='respPic'></div></div>","null","6","Jacob","7","Kept","0.2,0.65","10","0.2","trustrating_stim/white_00129_931230_fb_edt.bmp","5.5","86","17"
"html-keyboard-response","188","247861","0.0-19.0-1.17","636182d3f52ff78fc3f7de50","bdp_trlrn","Wed Mar 15 2023 22:22:04 GMT-0500 (Central Daylight Time)","451434","Untrustworthy,Trustworthy","","124","","","","decision","","<div class='trialDiv'><img src='trustrating_stim/white_mw060.bmp'><br><font class='baseline'><strong>Evan</strong><p>Choose number of points to send.</font><div class='respPicDiv'><img src='img/responseButtonOffersNo0L.png' class='respPic'></div></div>","3","6","Evan","8","Shared","0.65,0.2","8","0.65","trustrating_stim/white_mw060.bmp","6","91","18"
"html-keyboard-response","189","248114","0.0-19.0-2.17","636182d3f52ff78fc3f7de50","bdp_trlrn","Wed Mar 15 2023 22:22:04 GMT-0500 (Central Daylight Time)","451434","Untrustworthy,Trustworthy","","null","","","","decisionFB","","<div class='trialDiv'><img src='trustrating_stim/white_mw060.bmp'><br><font class='baseline'><strong>Evan</strong><p>Choose number of points to send.</font><div class='respPicDiv'><img src='img/responseButtonOffersNo0L3.png' class='respPic'></div></div>","null","6","Evan","8","Shared","0.65,0.2","8","0.65","trustrating_stim/white_mw060.bmp","6","88","18"
"html-keyboard-response","190","249116","0.0-19.0-3.17","636182d3f52ff78fc3f7de50","bdp_trlrn","Wed Mar 15 2023 22:22:04 GMT-0500 (Central Daylight Time)","451434","Untrustworthy,Trustworthy","","null","","","","feedback","","<div class='trialDiv'><img src='trustrating_stim/white_mw060.bmp'><br><font class='baseline'><strong>Evan</strong><p>Received: <strong>12</strong></font> &nbsp; &nbsp; &nbsp; &nbsp; &nbsp; &nbsp;<font class='posOutcome'>Shared back: <strong>6</strong></font></font><div class='respPicDiv'><img src='img/responseButtonOffersNo0_wht.png' class='respPic'></div></div>","null","6","Evan","8","Shared","0.65,0.2","8","0.65","trustrating_stim/white_mw060.bmp","6","94","18"
"html-keyboard-response","191","249482","0.0-19.0-1.18","636182d3f52ff78fc3f7de50","bdp_trlrn","Wed Mar 15 2023 22:22:04 GMT-0500 (Central Daylight Time)","451434","Untrustworthy,Trustworthy","","363","","","","decision","","<div class='trialDiv'><img src='trustrating_stim/white_00129_931230_fb_edt.bmp'><br><font class='baseline'><strong>Jacob</strong><p>Choose number of points to send.</font><div class='respPicDiv'><img src='img/responseButtonOffersNo0L.png' class='respPic'></div></div>","4","7","Jacob","7","Kept","0.2,0.65","10","0.2","trustrating_stim/white_00129_931230_fb_edt.bmp","5.5","99","19"
"html-keyboard-response","192","249734","0.0-19.0-2.18","636182d3f52ff78fc3f7de50","bdp_trlrn","Wed Mar 15 2023 22:22:04 GMT-0500 (Central Daylight Time)","451434","Untrustworthy,Trustworthy","","null","","","","decisionFB","","<div class='trialDiv'><img src='trustrating_stim/white_00129_931230_fb_edt.bmp'><br><font class='baseline'><strong>Jacob</strong><p>Choose number of points to send.</font><div class='respPicDiv'><img src='img/responseButtonOffersNo0L4.png' class='respPic'></div></div>","null","7","Jacob","7","Kept","0.2,0.65","10","0.2","trustrating_stim/white_00129_931230_fb_edt.bmp","5.5","95","19"
"html-keyboard-response","193","250738","0.0-19.0-3.18","636182d3f52ff78fc3f7de50","bdp_trlrn","Wed Mar 15 2023 22:22:04 GMT-0500 (Central Daylight Time)","451434","Untrustworthy,Trustworthy","","null","","","","feedback","","<div class='trialDiv'><img src='trustrating_stim/white_00129_931230_fb_edt.bmp'><br><font class='baseline'><strong>Jacob</strong><p>Received: <strong>16</strong></font> &nbsp; &nbsp; &nbsp; &nbsp; &nbsp; &nbsp;<font class='negOutcome'>Shared back: <strong>0</strong></font></font><div class='respPicDiv'><img src='img/responseButtonOffersNo0_wht.png' class='respPic'></div></div>","null","7","Jacob","7","Kept","0.2,0.65","10","0.2","trustrating_stim/white_00129_931230_fb_edt.bmp","5.5","95","19"
"html-keyboard-response","194","250861","0.0-19.0-1.19","636182d3f52ff78fc3f7de50","bdp_trlrn","Wed Mar 15 2023 22:22:04 GMT-0500 (Central Daylight Time)","451434","Untrustworthy,Trustworthy","","122","","","","decision","","<div class='trialDiv'><img src='trustrating_stim/white_mw060.bmp'><br><font class='baseline'><strong>Evan</strong><p>Choose number of points to send.</font><div class='respPicDiv'><img src='img/responseButtonOffersNo0L.png' class='respPic'></div></div>","2","7","Evan","8","Kept","0.65,0.2","8","0.65","trustrating_stim/white_mw060.bmp","6","100","20"
"html-keyboard-response","195","251113","0.0-19.0-2.19","636182d3f52ff78fc3f7de50","bdp_trlrn","Wed Mar 15 2023 22:22:04 GMT-0500 (Central Daylight Time)","451434","Untrustworthy,Trustworthy","","null","","","","decisionFB","","<div class='trialDiv'><img src='trustrating_stim/white_mw060.bmp'><br><font class='baseline'><strong>Evan</strong><p>Choose number of points to send.</font><div class='respPicDiv'><img src='img/responseButtonOffersNo0L2.png' class='respPic'></div></div>","null","7","Evan","8","Kept","0.65,0.2","8","0.65","trustrating_stim/white_mw060.bmp","6","98","20"
"html-keyboard-response","196","252116","0.0-19.0-3.19","636182d3f52ff78fc3f7de50","bdp_trlrn","Wed Mar 15 2023 22:22:04 GMT-0500 (Central Daylight Time)","451434","Untrustworthy,Trustworthy","","null","","","","feedback","","<div class='trialDiv'><img src='trustrating_stim/white_mw060.bmp'><br><font class='baseline'><strong>Evan</strong><p>Received: <strong>8</strong></font> &nbsp; &nbsp; &nbsp; &nbsp; &nbsp; &nbsp;<font class='negOutcome'>Shared back: <strong>0</strong></font></font><div class='respPicDiv'><img src='img/responseButtonOffersNo0_wht.png' class='respPic'></div></div>","null","7","Evan","8","Kept","0.65,0.2","8","0.65","trustrating_stim/white_mw060.bmp","6","98","20"
"html-keyboard-response","197","252391","0.0-19.0-1.20","636182d3f52ff78fc3f7de50","bdp_trlrn","Wed Mar 15 2023 22:22:04 GMT-0500 (Central Daylight Time)","451434","Untrustworthy,Trustworthy","","274","","","","decision","","<div class='trialDiv'><img src='trustrating_stim/white_mw053.bmp'><br><font class='baseline'><strong>Caleb</strong><p>Choose number of points to send.</font><div class='respPicDiv'><img src='img/responseButtonOffersNo0L.png' class='respPic'></div></div>","3","7","Caleb","2","Kept","0.65,0.35","13","0.65","trustrating_stim/white_mw053.bmp","4","103","21"
"html-keyboard-response","198","252644","0.0-19.0-2.20","636182d3f52ff78fc3f7de50","bdp_trlrn","Wed Mar 15 2023 22:22:04 GMT-0500 (Central Daylight Time)","451434","Untrustworthy,Trustworthy","","null","","","","decisionFB","","<div class='trialDiv'><img src='trustrating_stim/white_mw053.bmp'><br><font class='baseline'><strong>Caleb</strong><p>Choose number of points to send.</font><div class='respPicDiv'><img src='img/responseButtonOffersNo0L3.png' class='respPic'></div></div>","null","7","Caleb","2","Kept","0.65,0.35","13","0.65","trustrating_stim/white_mw053.bmp","4","100","21"
"html-keyboard-response","199","253647","0.0-19.0-3.20","636182d3f52ff78fc3f7de50","bdp_trlrn","Wed Mar 15 2023 22:22:04 GMT-0500 (Central Daylight Time)","451434","Untrustworthy,Trustworthy","","null","","","","feedback","","<div class='trialDiv'><img src='trustrating_stim/white_mw053.bmp'><br><font class='baseline'><strong>Caleb</strong><p>Received: <strong>12</strong></font> &nbsp; &nbsp; &nbsp; &nbsp; &nbsp; &nbsp;<font class='negOutcome'>Shared back: <strong>0</strong></font></font><div class='respPicDiv'><img src='img/responseButtonOffersNo0_wht.png' class='respPic'></div></div>","null","7","Caleb","2","Kept","0.65,0.35","13","0.65","trustrating_stim/white_mw053.bmp","4","100","21"
"html-keyboard-response","200","253936","0.0-19.0-1.21","636182d3f52ff78fc3f7de50","bdp_trlrn","Wed Mar 15 2023 22:22:04 GMT-0500 (Central Daylight Time)","451434","Untrustworthy,Trustworthy","","288","","","","decision","","<div class='trialDiv'><img src='trustrating_stim/white_00129_931230_fb_edt.bmp'><br><font class='baseline'><strong>Jacob</strong><p>Choose number of points to send.</font><div class='respPicDiv'><img src='img/responseButtonOffersNo0L.png' class='respPic'></div></div>","1","8","Jacob","7","Kept","0.2,0.65","10","0.2","trustrating_stim/white_00129_931230_fb_edt.bmp","5.5","105","22"
"html-keyboard-response","201","254189","0.0-19.0-2.21","636182d3f52ff78fc3f7de50","bdp_trlrn","Wed Mar 15 2023 22:22:04 GMT-0500 (Central Daylight Time)","451434","Untrustworthy,Trustworthy","","null","","","","decisionFB","","<div class='trialDiv'><img src='trustrating_stim/white_00129_931230_fb_edt.bmp'><br><font class='baseline'><strong>Jacob</strong><p>Choose number of points to send.</font><div class='respPicDiv'><img src='img/responseButtonOffersNo0L1.png' class='respPic'></div></div>","null","8","Jacob","7","Kept","0.2,0.65","10","0.2","trustrating_stim/white_00129_931230_fb_edt.bmp","5.5","104","22"
"html-keyboard-response","202","255192","0.0-19.0-3.21","636182d3f52ff78fc3f7de50","bdp_trlrn","Wed Mar 15 2023 22:22:04 GMT-0500 (Central Daylight Time)","451434","Untrustworthy,Trustworthy","","null","","","","feedback","","<div class='trialDiv'><img src='trustrating_stim/white_00129_931230_fb_edt.bmp'><br><font class='baseline'><strong>Jacob</strong><p>Received: <strong>4</strong></font> &nbsp; &nbsp; &nbsp; &nbsp; &nbsp; &nbsp;<font class='negOutcome'>Shared back: <strong>0</strong></font></font><div class='respPicDiv'><img src='img/responseButtonOffersNo0_wht.png' class='respPic'></div></div>","null","8","Jacob","7","Kept","0.2,0.65","10","0.2","trustrating_stim/white_00129_931230_fb_edt.bmp","5.5","104","22"
"html-keyboard-response","203","255406","0.0-19.0-1.22","636182d3f52ff78fc3f7de50","bdp_trlrn","Wed Mar 15 2023 22:22:04 GMT-0500 (Central Daylight Time)","451434","Untrustworthy,Trustworthy","","212","","","","decision","","<div class='trialDiv'><img src='trustrating_stim/white_mw060.bmp'><br><font class='baseline'><strong>Evan</strong><p>Choose number of points to send.</font><div class='respPicDiv'><img src='img/responseButtonOffersNo0L.png' class='respPic'></div></div>","3","8","Evan","8","Kept","0.65,0.2","8","0.65","trustrating_stim/white_mw060.bmp","6","109","23"
"html-keyboard-response","204","255659","0.0-19.0-2.22","636182d3f52ff78fc3f7de50","bdp_trlrn","Wed Mar 15 2023 22:22:04 GMT-0500 (Central Daylight Time)","451434","Untrustworthy,Trustworthy","","null","","","","decisionFB","","<div class='trialDiv'><img src='trustrating_stim/white_mw060.bmp'><br><font class='baseline'><strong>Evan</strong><p>Choose number of points to send.</font><div class='respPicDiv'><img src='img/responseButtonOffersNo0L3.png' class='respPic'></div></div>","null","8","Evan","8","Kept","0.65,0.2","8","0.65","trustrating_stim/white_mw060.bmp","6","106","23"
"html-keyboard-response","205","256661","0.0-19.0-3.22","636182d3f52ff78fc3f7de50","bdp_trlrn","Wed Mar 15 2023 22:22:04 GMT-0500 (Central Daylight Time)","451434","Untrustworthy,Trustworthy","","null","","","","feedback","","<div class='trialDiv'><img src='trustrating_stim/white_mw060.bmp'><br><font class='baseline'><strong>Evan</strong><p>Received: <strong>12</strong></font> &nbsp; &nbsp; &nbsp; &nbsp; &nbsp; &nbsp;<font class='negOutcome'>Shared back: <strong>0</strong></font></font><div class='respPicDiv'><img src='img/responseButtonOffersNo0_wht.png' class='respPic'></div></div>","null","8","Evan","8","Kept","0.65,0.2","8","0.65","trustrating_stim/white_mw060.bmp","6","106","23"
"html-keyboard-response","206","256861","0.0-19.0-1.23","636182d3f52ff78fc3f7de50","bdp_trlrn","Wed Mar 15 2023 22:22:04 GMT-0500 (Central Daylight Time)","451434","Untrustworthy,Trustworthy","","196","","","","decision","","<div class='trialDiv'><img src='trustrating_stim/white_mw053.bmp'><br><font class='baseline'><strong>Caleb</strong><p>Choose number of points to send.</font><div class='respPicDiv'><img src='img/responseButtonOffersNo0L.png' class='respPic'></div></div>","2","8","Caleb","2","Kept","0.65,0.35","13","0.65","trustrating_stim/white_mw053.bmp","4","111","24"
"html-keyboard-response","207","257114","0.0-19.0-2.23","636182d3f52ff78fc3f7de50","bdp_trlrn","Wed Mar 15 2023 22:22:04 GMT-0500 (Central Daylight Time)","451434","Untrustworthy,Trustworthy","","null","","","","decisionFB","","<div class='trialDiv'><img src='trustrating_stim/white_mw053.bmp'><br><font class='baseline'><strong>Caleb</strong><p>Choose number of points to send.</font><div class='respPicDiv'><img src='img/responseButtonOffersNo0L2.png' class='respPic'></div></div>","null","8","Caleb","2","Kept","0.65,0.35","13","0.65","trustrating_stim/white_mw053.bmp","4","109","24"
"html-keyboard-response","208","258118","0.0-19.0-3.23","636182d3f52ff78fc3f7de50","bdp_trlrn","Wed Mar 15 2023 22:22:04 GMT-0500 (Central Daylight Time)","451434","Untrustworthy,Trustworthy","","null","","","","feedback","","<div class='trialDiv'><img src='trustrating_stim/white_mw053.bmp'><br><font class='baseline'><strong>Caleb</strong><p>Received: <strong>8</strong></font> &nbsp; &nbsp; &nbsp; &nbsp; &nbsp; &nbsp;<font class='negOutcome'>Shared back: <strong>0</strong></font></font><div class='respPicDiv'><img src='img/responseButtonOffersNo0_wht.png' class='respPic'></div></div>","null","8","Caleb","2","Kept","0.65,0.35","13","0.65","trustrating_stim/white_mw053.bmp","4","109","24"
"html-keyboard-response","209","258346","0.0-19.0-1.24","636182d3f52ff78fc3f7de50","bdp_trlrn","Wed Mar 15 2023 22:22:04 GMT-0500 (Central Daylight Time)","451434","Untrustworthy,Trustworthy","","227","","","","decision","","<div class='trialDiv'><img src='trustrating_stim/white_mw060.bmp'><br><font class='baseline'><strong>Evan</strong><p>Choose number of points to send.</font><div class='respPicDiv'><img src='img/responseButtonOffersNo0L.png' class='respPic'></div></div>","4","9","Evan","8","Kept","0.65,0.2","8","0.65","trustrating_stim/white_mw060.bmp","6","114","25"
"html-keyboard-response","210","258599","0.0-19.0-2.24","636182d3f52ff78fc3f7de50","bdp_trlrn","Wed Mar 15 2023 22:22:04 GMT-0500 (Central Daylight Time)","451434","Untrustworthy,Trustworthy","","null","","","","decisionFB","","<div class='trialDiv'><img src='trustrating_stim/white_mw060.bmp'><br><font class='baseline'><strong>Evan</strong><p>Choose number of points to send.</font><div class='respPicDiv'><img src='img/responseButtonOffersNo0L4.png' class='respPic'></div></div>","null","9","Evan","8","Kept","0.65,0.2","8","0.65","trustrating_stim/white_mw060.bmp","6","110","25"
"html-keyboard-response","211","259602","0.0-19.0-3.24","636182d3f52ff78fc3f7de50","bdp_trlrn","Wed Mar 15 2023 22:22:04 GMT-0500 (Central Daylight Time)","451434","Untrustworthy,Trustworthy","","null","","","","feedback","","<div class='trialDiv'><img src='trustrating_stim/white_mw060.bmp'><br><font class='baseline'><strong>Evan</strong><p>Received: <strong>16</strong></font> &nbsp; &nbsp; &nbsp; &nbsp; &nbsp; &nbsp;<font class='negOutcome'>Shared back: <strong>0</strong></font></font><div class='respPicDiv'><img src='img/responseButtonOffersNo0_wht.png' class='respPic'></div></div>","null","9","Evan","8","Kept","0.65,0.2","8","0.65","trustrating_stim/white_mw060.bmp","6","110","25"
"html-keyboard-response","212","259635","0.0-19.0-1.25","636182d3f52ff78fc3f7de50","bdp_trlrn","Wed Mar 15 2023 22:22:04 GMT-0500 (Central Daylight Time)","451434","Untrustworthy,Trustworthy","","31","","","","decision","","<div class='trialDiv'><img src='trustrating_stim/white_00129_931230_fb_edt.bmp'><br><font class='baseline'><strong>Jacob</strong><p>Choose number of points to send.</font><div class='respPicDiv'><img src='img/responseButtonOffersNo0L.png' class='respPic'></div></div>","3","9","Jacob","7","Kept","0.2,0.65","10","0.2","trustrating_stim/white_00129_931230_fb_edt.bmp","5.5","115","26"
"html-keyboard-response","213","259886","0.0-19.0-2.25","636182d3f52ff78fc3f7de50","bdp_trlrn","Wed Mar 15 2023 22:22:04 GMT-0500 (Central Daylight Time)","451434","Untrustworthy,Trustworthy","","null","","","","decisionFB","","<div class='trialDiv'><img src='trustrating_stim/white_00129_931230_fb_edt.bmp'><br><font class='baseline'><strong>Jacob</strong><p>Choose number of points to send.</font><div class='respPicDiv'><img src='img/responseButtonOffersNo0L3.png' class='respPic'></div></div>","null","9","Jacob","7","Kept","0.2,0.65","10","0.2","trustrating_stim/white_00129_931230_fb_edt.bmp","5.5","112","26"
"html-keyboard-response","214","260889","0.0-19.0-3.25","636182d3f52ff78fc3f7de50","bdp_trlrn","Wed Mar 15 2023 22:22:04 GMT-0500 (Central Daylight Time)","451434","Untrustworthy,Trustworthy","","null","","","","feedback","","<div class='trialDiv'><img src='trustrating_stim/white_00129_931230_fb_edt.bmp'><br><font class='baseline'><strong>Jacob</strong><p>Received: <strong>12</strong></font> &nbsp; &nbsp; &nbsp; &nbsp; &nbsp; &nbsp;<font class='negOutcome'>Shared back: <strong>0</strong></font></font><div class='respPicDiv'><img src='img/responseButtonOffersNo0_wht.png' class='respPic'></div></div>","null","9","Jacob","7","Kept","0.2,0.65","10","0.2","trustrating_stim/white_00129_931230_fb_edt.bmp","5.5","112","26"
"html-keyboard-response","215","260940","0.0-19.0-1.26","636182d3f52ff78fc3f7de50","bdp_trlrn","Wed Mar 15 2023 22:22:04 GMT-0500 (Central Daylight Time)","451434","Untrustworthy,Trustworthy","","48","","","","decision","","<div class='trialDiv'><img src='trustrating_stim/white_mw053.bmp'><br><font class='baseline'><strong>Caleb</strong><p>Choose number of points to send.</font><div class='respPicDiv'><img src='img/responseButtonOffersNo0L.png' class='respPic'></div></div>","2","9","Caleb","2","Shared","0.65,0.35","13","0.65","trustrating_stim/white_mw053.bmp","4","117","27"
"html-keyboard-response","216","261192","0.0-19.0-2.26","636182d3f52ff78fc3f7de50","bdp_trlrn","Wed Mar 15 2023 22:22:04 GMT-0500 (Central Daylight Time)","451434","Untrustworthy,Trustworthy","","null","","","","decisionFB","","<div class='trialDiv'><img src='trustrating_stim/white_mw053.bmp'><br><font class='baseline'><strong>Caleb</strong><p>Choose number of points to send.</font><div class='respPicDiv'><img src='img/responseButtonOffersNo0L2.png' class='respPic'></div></div>","null","9","Caleb","2","Shared","0.65,0.35","13","0.65","trustrating_stim/white_mw053.bmp","4","115","27"
"html-keyboard-response","217","262195","0.0-19.0-3.26","636182d3f52ff78fc3f7de50","bdp_trlrn","Wed Mar 15 2023 22:22:04 GMT-0500 (Central Daylight Time)","451434","Untrustworthy,Trustworthy","","null","","","","feedback","","<div class='trialDiv'><img src='trustrating_stim/white_mw053.bmp'><br><font class='baseline'><strong>Caleb</strong><p>Received: <strong>8</strong></font> &nbsp; &nbsp; &nbsp; &nbsp; &nbsp; &nbsp;<font class='posOutcome'>Shared back: <strong>4</strong></font></font><div class='respPicDiv'><img src='img/responseButtonOffersNo0_wht.png' class='respPic'></div></div>","null","9","Caleb","2","Shared","0.65,0.35","13","0.65","trustrating_stim/white_mw053.bmp","4","119","27"
"html-keyboard-response","218","262576","0.0-19.0-1.27","636182d3f52ff78fc3f7de50","bdp_trlrn","Wed Mar 15 2023 22:22:04 GMT-0500 (Central Daylight Time)","451434","Untrustworthy,Trustworthy","","379","","","","decision","","<div class='trialDiv'><img src='trustrating_stim/white_00129_931230_fb_edt.bmp'><br><font class='baseline'><strong>Jacob</strong><p>Choose number of points to send.</font><div class='respPicDiv'><img src='img/responseButtonOffersNo0L.png' class='respPic'></div></div>","1","10","Jacob","7","Kept","0.2,0.65","10","0.2","trustrating_stim/white_00129_931230_fb_edt.bmp","5.5","124","28"
"html-keyboard-response","219","262829","0.0-19.0-2.27","636182d3f52ff78fc3f7de50","bdp_trlrn","Wed Mar 15 2023 22:22:04 GMT-0500 (Central Daylight Time)","451434","Untrustworthy,Trustworthy","","null","","","","decisionFB","","<div class='trialDiv'><img src='trustrating_stim/white_00129_931230_fb_edt.bmp'><br><font class='baseline'><strong>Jacob</strong><p>Choose number of points to send.</font><div class='respPicDiv'><img src='img/responseButtonOffersNo0L1.png' class='respPic'></div></div>","null","10","Jacob","7","Kept","0.2,0.65","10","0.2","trustrating_stim/white_00129_931230_fb_edt.bmp","5.5","123","28"
"html-keyboard-response","220","263831","0.0-19.0-3.27","636182d3f52ff78fc3f7de50","bdp_trlrn","Wed Mar 15 2023 22:22:04 GMT-0500 (Central Daylight Time)","451434","Untrustworthy,Trustworthy","","null","","","","feedback","","<div class='trialDiv'><img src='trustrating_stim/white_00129_931230_fb_edt.bmp'><br><font class='baseline'><strong>Jacob</strong><p>Received: <strong>4</strong></font> &nbsp; &nbsp; &nbsp; &nbsp; &nbsp; &nbsp;<font class='negOutcome'>Shared back: <strong>0</strong></font></font><div class='respPicDiv'><img src='img/responseButtonOffersNo0_wht.png' class='respPic'></div></div>","null","10","Jacob","7","Kept","0.2,0.65","10","0.2","trustrating_stim/white_00129_931230_fb_edt.bmp","5.5","123","28"
"html-keyboard-response","221","264241","0.0-19.0-1.28","636182d3f52ff78fc3f7de50","bdp_trlrn","Wed Mar 15 2023 22:22:04 GMT-0500 (Central Daylight Time)","451434","Untrustworthy,Trustworthy","","408","","","","decision","","<div class='trialDiv'><img src='trustrating_stim/white_mw060.bmp'><br><font class='baseline'><strong>Evan</strong><p>Choose number of points to send.</font><div class='respPicDiv'><img src='img/responseButtonOffersNo0L.png' class='respPic'></div></div>","2","10","Evan","8","Shared","0.65,0.2","8","0.65","trustrating_stim/white_mw060.bmp","6","128","29"
