"trial_type","trial_index","time_elapsed","internal_node_id","subject_id","task","startTime","totalTime","labels","view_history","rt","event","trial","time","trialtype","success","stimulus","key_press","aground","name","faceID","outcome","agenttype","agentswpt","agentcurrpshare","face","avgRating","point_total","round"
"pavlovia","0","2","0.0-0.0","59aae1188cef7d00011f8884","bdp_trlrn","Tue Mar 14 2023 21:32:02 GMT-0400 (Eastern Daylight Time)","449118","Untrustworthy,Trustworthy","","","","","","","","","","","","","","","","","","","",""
"instructions","1","3523","0.0-1.0","59aae1188cef7d00011f8884","bdp_trlrn","Tue Mar 14 2023 21:32:02 GMT-0400 (Eastern Daylight Time)","449118","Untrustworthy,Trustworthy","[{""page_index"":0,""viewing_time"":3521}]","3521","","","","","","","","","","","","","","","","","",""
"","","","","59aae1188cef7d00011f8884","bdp_trlrn","Tue Mar 14 2023 21:32:02 GMT-0400 (Eastern Daylight Time)","449118","Untrustworthy,Trustworthy","","","fullscreenenter","2","7688","fullscreenenter","","","","","","","","","","","","","",""
"fullscreen","2","8688","0.0-2.0","59aae1188cef7d00011f8884","bdp_trlrn","Tue Mar 14 2023 21:32:02 GMT-0400 (Eastern Daylight Time)","449118","Untrustworthy,Trustworthy","","","","","","","true","","","","","","","","","","","","",""
"instructions","3","16724","0.0-4.0","59aae1188cef7d00011f8884","bdp_trlrn","Tue Mar 14 2023 21:32:02 GMT-0400 (Eastern Daylight Time)","449118","Untrustworthy,Trustworthy","[{""page_index"":0,""viewing_time"":6254},{""page_index"":1,""viewing_time"":1781}]","8035","","","","","","","","","","","","","","","","","",""
"instructions","4","17642","0.0-5.0","59aae1188cef7d00011f8884","bdp_trlrn","Tue Mar 14 2023 21:32:02 GMT-0400 (Eastern Daylight Time)","449118","Untrustworthy,Trustworthy","[{""page_index"":0,""viewing_time"":918}]","918","","","","","","","","","","","","","","","","","",""
"image-keyboard-response","5","18598","0.0-6.0-1.0","59aae1188cef7d00011f8884","bdp_trlrn","Tue Mar 14 2023 21:32:02 GMT-0400 (Eastern Daylight Time)","449118","Untrustworthy,Trustworthy","","854","","","","rating","","trustrating_stim/white_mw060.bmp","5","","","","","","","","","","",""
"image-keyboard-response","6","18803","0.0-6.0-2.0","59aae1188cef7d00011f8884","bdp_trlrn","Tue Mar 14 2023 21:32:02 GMT-0400 (Eastern Daylight Time)","449118","Untrustworthy,Trustworthy","","null","","","","ratingFB","","trustrating_stim/white_mw060.bmp","null","","","","","","","","","","",""
"image-keyboard-response","7","19666","0.0-6.0-1.1","59aae1188cef7d00011f8884","bdp_trlrn","Tue Mar 14 2023 21:32:02 GMT-0400 (Eastern Daylight Time)","449118","Untrustworthy,Trustworthy","","754","","","","rating","","trustrating_stim/white_mw035.bmp","5","","","","","","","","","","",""
"image-keyboard-response","8","19877","0.0-6.0-2.1","59aae1188cef7d00011f8884","bdp_trlrn","Tue Mar 14 2023 21:32:02 GMT-0400 (Eastern Daylight Time)","449118","Untrustworthy,Trustworthy","","null","","","","ratingFB","","trustrating_stim/white_mw035.bmp","null","","","","","","","","","","",""
"image-keyboard-response","9","20446","0.0-6.0-1.2","59aae1188cef7d00011f8884","bdp_trlrn","Tue Mar 14 2023 21:32:02 GMT-0400 (Eastern Daylight Time)","449118","Untrustworthy,Trustworthy","","467","","","","rating","","trustrating_stim/white_00898_960530_fa_edt.bmp","5","","","","","","","","","","",""
"image-keyboard-response","10","20652","0.0-6.0-2.2","59aae1188cef7d00011f8884","bdp_trlrn","Tue Mar 14 2023 21:32:02 GMT-0400 (Eastern Daylight Time)","449118","Untrustworthy,Trustworthy","","null","","","","ratingFB","","trustrating_stim/white_00898_960530_fa_edt.bmp","null","","","","","","","","","","",""
"image-keyboard-response","11","21598","0.0-6.0-1.3","59aae1188cef7d00011f8884","bdp_trlrn","Tue Mar 14 2023 21:32:02 GMT-0400 (Eastern Daylight Time)","449118","Untrustworthy,Trustworthy","","845","","","","rating","","trustrating_stim/white_00785_941205_fb_edt.bmp","5","","","","","","","","","","",""
"image-keyboard-response","12","21801","0.0-6.0-2.3","59aae1188cef7d00011f8884","bdp_trlrn","Tue Mar 14 2023 21:32:02 GMT-0400 (Eastern Daylight Time)","449118","Untrustworthy,Trustworthy","","null","","","","ratingFB","","trustrating_stim/white_00785_941205_fb_edt.bmp","null","","","","","","","","","","",""
"image-keyboard-response","13","23034","0.0-6.0-1.4","59aae1188cef7d00011f8884","bdp_trlrn","Tue Mar 14 2023 21:32:02 GMT-0400 (Eastern Daylight Time)","449118","Untrustworthy,Trustworthy","","1122","","","","rating","","trustrating_stim/white_00761_941201_fb_edt.bmp","3","","","","","","","","","","",""
"image-keyboard-response","14","23246","0.0-6.0-2.4","59aae1188cef7d00011f8884","bdp_trlrn","Tue Mar 14 2023 21:32:02 GMT-0400 (Eastern Daylight Time)","449118","Untrustworthy,Trustworthy","","null","","","","ratingFB","","trustrating_stim/white_00761_941201_fb_edt.bmp","null","","","","","","","","","","",""
"image-keyboard-response","15","23966","0.0-6.0-1.5","59aae1188cef7d00011f8884","bdp_trlrn","Tue Mar 14 2023 21:32:02 GMT-0400 (Eastern Daylight Time)","449118","Untrustworthy,Trustworthy","","619","","","","rating","","trustrating_stim/white_mw089.bmp","5","","","","","","","","","","",""
"image-keyboard-response","16","24179","0.0-6.0-2.5","59aae1188cef7d00011f8884","bdp_trlrn","Tue Mar 14 2023 21:32:02 GMT-0400 (Eastern Daylight Time)","449118","Untrustworthy,Trustworthy","","null","","","","ratingFB","","trustrating_stim/white_mw089.bmp","null","","","","","","","","","","",""
"image-keyboard-response","17","24874","0.0-6.0-1.6","59aae1188cef7d00011f8884","bdp_trlrn","Tue Mar 14 2023 21:32:02 GMT-0400 (Eastern Daylight Time)","449118","Untrustworthy,Trustworthy","","594","","","","rating","","trustrating_stim/white_mw053.bmp","5","","","","","","","","","","",""
"image-keyboard-response","18","25075","0.0-6.0-2.6","59aae1188cef7d00011f8884","bdp_trlrn","Tue Mar 14 2023 21:32:02 GMT-0400 (Eastern Daylight Time)","449118","Untrustworthy,Trustworthy","","null","","","","ratingFB","","trustrating_stim/white_mw053.bmp","null","","","","","","","","","","",""
"image-keyboard-response","19","26136","0.0-6.0-1.7","59aae1188cef7d00011f8884","bdp_trlrn","Tue Mar 14 2023 21:32:02 GMT-0400 (Eastern Daylight Time)","449118","Untrustworthy,Trustworthy","","959","","","","rating","","trustrating_stim/white_00659_941121_fa_edt.bmp","3","","","","","","","","","","",""
"image-keyboard-response","20","26337","0.0-6.0-2.7","59aae1188cef7d00011f8884","bdp_trlrn","Tue Mar 14 2023 21:32:02 GMT-0400 (Eastern Daylight Time)","449118","Untrustworthy,Trustworthy","","null","","","","ratingFB","","trustrating_stim/white_00659_941121_fa_edt.bmp","null","","","","","","","","","","",""
"image-keyboard-response","21","27279","0.0-6.0-1.8","59aae1188cef7d00011f8884","bdp_trlrn","Tue Mar 14 2023 21:32:02 GMT-0400 (Eastern Daylight Time)","449118","Untrustworthy,Trustworthy","","841","","","","rating","","trustrating_stim/white_00577_940928_fa_edt.bmp","5","","","","","","","","","","",""
"image-keyboard-response","22","27481","0.0-6.0-2.8","59aae1188cef7d00011f8884","bdp_trlrn","Tue Mar 14 2023 21:32:02 GMT-0400 (Eastern Daylight Time)","449118","Untrustworthy,Trustworthy","","null","","","","ratingFB","","trustrating_stim/white_00577_940928_fa_edt.bmp","null","","","","","","","","","","",""
"image-keyboard-response","23","28301","0.0-6.0-1.9","59aae1188cef7d00011f8884","bdp_trlrn","Tue Mar 14 2023 21:32:02 GMT-0400 (Eastern Daylight Time)","449118","Untrustworthy,Trustworthy","","718","","","","rating","","trustrating_stim/white_00299_940422_fa_edt.bmp","5","","","","","","","","","","",""
"image-keyboard-response","24","28503","0.0-6.0-2.9","59aae1188cef7d00011f8884","bdp_trlrn","Tue Mar 14 2023 21:32:02 GMT-0400 (Eastern Daylight Time)","449118","Untrustworthy,Trustworthy","","null","","","","ratingFB","","trustrating_stim/white_00299_940422_fa_edt.bmp","null","","","","","","","","","","",""
"image-keyboard-response","25","29237","0.0-6.0-1.10","59aae1188cef7d00011f8884","bdp_trlrn","Tue Mar 14 2023 21:32:02 GMT-0400 (Eastern Daylight Time)","449118","Untrustworthy,Trustworthy","","633","","","","rating","","trustrating_stim/white_mw063.bmp","5","","","","","","","","","","",""
"image-keyboard-response","26","29438","0.0-6.0-2.10","59aae1188cef7d00011f8884","bdp_trlrn","Tue Mar 14 2023 21:32:02 GMT-0400 (Eastern Daylight Time)","449118","Untrustworthy,Trustworthy","","null","","","","ratingFB","","trustrating_stim/white_mw063.bmp","null","","","","","","","","","","",""
"image-keyboard-response","27","30329","0.0-6.0-1.11","59aae1188cef7d00011f8884","bdp_trlrn","Tue Mar 14 2023 21:32:02 GMT-0400 (Eastern Daylight Time)","449118","Untrustworthy,Trustworthy","","788","","","","rating","","trustrating_stim/white_00120_931230_fa_edt.bmp","5","","","","","","","","","","",""
"image-keyboard-response","28","30529","0.0-6.0-2.11","59aae1188cef7d00011f8884","bdp_trlrn","Tue Mar 14 2023 21:32:02 GMT-0400 (Eastern Daylight Time)","449118","Untrustworthy,Trustworthy","","null","","","","ratingFB","","trustrating_stim/white_00120_931230_fa_edt.bmp","null","","","","","","","","","","",""
"image-keyboard-response","29","31250","0.0-6.0-1.12","59aae1188cef7d00011f8884","bdp_trlrn","Tue Mar 14 2023 21:32:02 GMT-0400 (Eastern Daylight Time)","449118","Untrustworthy,Trustworthy","","619","","","","rating","","trustrating_stim/white_mw071.bmp","5","","","","","","","","","","",""
"image-keyboard-response","30","31451","0.0-6.0-2.12","59aae1188cef7d00011f8884","bdp_trlrn","Tue Mar 14 2023 21:32:02 GMT-0400 (Eastern Daylight Time)","449118","Untrustworthy,Trustworthy","","null","","","","ratingFB","","trustrating_stim/white_mw071.bmp","null","","","","","","","","","","",""
"image-keyboard-response","31","32115","0.0-6.0-1.13","59aae1188cef7d00011f8884","bdp_trlrn","Tue Mar 14 2023 21:32:02 GMT-0400 (Eastern Daylight Time)","449118","Untrustworthy,Trustworthy","","562","","","","rating","","trustrating_stim/white_00129_931230_fb_edt.bmp","5","","","","","","","","","","",""
"image-keyboard-response","32","32316","0.0-6.0-2.13","59aae1188cef7d00011f8884","bdp_trlrn","Tue Mar 14 2023 21:32:02 GMT-0400 (Eastern Daylight Time)","449118","Untrustworthy,Trustworthy","","null","","","","ratingFB","","trustrating_stim/white_00129_931230_fb_edt.bmp","null","","","","","","","","","","",""
"image-keyboard-response","33","33812","0.0-6.0-1.14","59aae1188cef7d00011f8884","bdp_trlrn","Tue Mar 14 2023 21:32:02 GMT-0400 (Eastern Daylight Time)","449118","Untrustworthy,Trustworthy","","1395","","","","rating","","trustrating_stim/white_mw048.bmp","2","","","","","","","","","","",""
"image-keyboard-response","34","34013","0.0-6.0-2.14","59aae1188cef7d00011f8884","bdp_trlrn","Tue Mar 14 2023 21:32:02 GMT-0400 (Eastern Daylight Time)","449118","Untrustworthy,Trustworthy","","null","","","","ratingFB","","trustrating_stim/white_mw048.bmp","null","","","","","","","","","","",""
"image-keyboard-response","35","35139","0.0-6.0-1.15","59aae1188cef7d00011f8884","bdp_trlrn","Tue Mar 14 2023 21:32:02 GMT-0400 (Eastern Daylight Time)","449118","Untrustworthy,Trustworthy","","1024","","","","rating","","trustrating_stim/white_mw066.bmp","5","","","","","","","","","","",""
"image-keyboard-response","36","35340","0.0-6.0-2.15","59aae1188cef7d00011f8884","bdp_trlrn","Tue Mar 14 2023 21:32:02 GMT-0400 (Eastern Daylight Time)","449118","Untrustworthy,Trustworthy","","null","","","","ratingFB","","trustrating_stim/white_mw066.bmp","null","","","","","","","","","","",""
"image-keyboard-response","37","36373","0.0-6.0-1.16","59aae1188cef7d00011f8884","bdp_trlrn","Tue Mar 14 2023 21:32:02 GMT-0400 (Eastern Daylight Time)","449118","Untrustworthy,Trustworthy","","932","","","","rating","","trustrating_stim/white_00340_940422_fa_edt.bmp","5","","","","","","","","","","",""
"image-keyboard-response","38","36576","0.0-6.0-2.16","59aae1188cef7d00011f8884","bdp_trlrn","Tue Mar 14 2023 21:32:02 GMT-0400 (Eastern Daylight Time)","449118","Untrustworthy,Trustworthy","","null","","","","ratingFB","","trustrating_stim/white_00340_940422_fa_edt.bmp","null","","","","","","","","","","",""
"image-keyboard-response","39","37844","0.0-6.0-1.17","59aae1188cef7d00011f8884","bdp_trlrn","Tue Mar 14 2023 21:32:02 GMT-0400 (Eastern Daylight Time)","449118","Untrustworthy,Trustworthy","","1168","","","","rating","","trustrating_stim/white_mw097.bmp","3","","","","","","","","","","",""
"image-keyboard-response","40","38045","0.0-6.0-2.17","59aae1188cef7d00011f8884","bdp_trlrn","Tue Mar 14 2023 21:32:02 GMT-0400 (Eastern Daylight Time)","449118","Untrustworthy,Trustworthy","","null","","","","ratingFB","","trustrating_stim/white_mw097.bmp","null","","","","","","","","","","",""
"image-keyboard-response","41","38877","0.0-6.0-1.18","59aae1188cef7d00011f8884","bdp_trlrn","Tue Mar 14 2023 21:32:02 GMT-0400 (Eastern Daylight Time)","449118","Untrustworthy,Trustworthy","","731","","","","rating","","trustrating_stim/white_mw046.bmp","5","","","","","","","","","","",""
"image-keyboard-response","42","39079","0.0-6.0-2.18","59aae1188cef7d00011f8884","bdp_trlrn","Tue Mar 14 2023 21:32:02 GMT-0400 (Eastern Daylight Time)","449118","Untrustworthy,Trustworthy","","null","","","","ratingFB","","trustrating_stim/white_mw046.bmp","null","","","","","","","","","","",""
"image-keyboard-response","43","39853","0.0-6.0-1.19","59aae1188cef7d00011f8884","bdp_trlrn","Tue Mar 14 2023 21:32:02 GMT-0400 (Eastern Daylight Time)","449118","Untrustworthy,Trustworthy","","673","","","","rating","","trustrating_stim/white_mw084.bmp","5","","","","","","","","","","",""
"image-keyboard-response","44","40055","0.0-6.0-2.19","59aae1188cef7d00011f8884","bdp_trlrn","Tue Mar 14 2023 21:32:02 GMT-0400 (Eastern Daylight Time)","449118","Untrustworthy,Trustworthy","","null","","","","ratingFB","","trustrating_stim/white_mw084.bmp","null","","","","","","","","","","",""
"image-keyboard-response","45","41318","0.0-6.0-1.20","59aae1188cef7d00011f8884","bdp_trlrn","Tue Mar 14 2023 21:32:02 GMT-0400 (Eastern Daylight Time)","449118","Untrustworthy,Trustworthy","","1161","","","","rating","","trustrating_stim/white_00223_940128_fb_edt.bmp","3","","","","","","","","","","",""
"image-keyboard-response","46","41519","0.0-6.0-2.20","59aae1188cef7d00011f8884","bdp_trlrn","Tue Mar 14 2023 21:32:02 GMT-0400 (Eastern Daylight Time)","449118","Untrustworthy,Trustworthy","","null","","","","ratingFB","","trustrating_stim/white_00223_940128_fb_edt.bmp","null","","","","","","","","","","",""
"image-keyboard-response","47","42772","0.0-6.0-1.21","59aae1188cef7d00011f8884","bdp_trlrn","Tue Mar 14 2023 21:32:02 GMT-0400 (Eastern Daylight Time)","449118","Untrustworthy,Trustworthy","","1152","","","","rating","","trustrating_stim/white_00757_941201_fa_edt.bmp","5","","","","","","","","","","",""
"image-keyboard-response","48","42973","0.0-6.0-2.21","59aae1188cef7d00011f8884","bdp_trlrn","Tue Mar 14 2023 21:32:02 GMT-0400 (Eastern Daylight Time)","449118","Untrustworthy,Trustworthy","","null","","","","ratingFB","","trustrating_stim/white_00757_941201_fa_edt.bmp","null","","","","","","","","","","",""
"image-keyboard-response","49","45416","0.0-6.0-1.22","59aae1188cef7d00011f8884","bdp_trlrn","Tue Mar 14 2023 21:32:02 GMT-0400 (Eastern Daylight Time)","449118","Untrustworthy,Trustworthy","","2341","","","","rating","","trustrating_stim/white_00807_941205_fb_edt.bmp","5","","","","","","","","","","",""
"image-keyboard-response","50","45618","0.0-6.0-2.22","59aae1188cef7d00011f8884","bdp_trlrn","Tue Mar 14 2023 21:32:02 GMT-0400 (Eastern Daylight Time)","449118","Untrustworthy,Trustworthy","","null","","","","ratingFB","","trustrating_stim/white_00807_941205_fb_edt.bmp","null","","","","","","","","","","",""
"image-keyboard-response","51","46539","0.0-6.0-1.23","59aae1188cef7d00011f8884","bdp_trlrn","Tue Mar 14 2023 21:32:02 GMT-0400 (Eastern Daylight Time)","449118","Untrustworthy,Trustworthy","","820","","","","rating","","trustrating_stim/white_00109_931230_fa_edt.bmp","5","","","","","","","","","","",""
"image-keyboard-response","52","46740","0.0-6.0-2.23","59aae1188cef7d00011f8884","bdp_trlrn","Tue Mar 14 2023 21:32:02 GMT-0400 (Eastern Daylight Time)","449118","Untrustworthy,Trustworthy","","null","","","","ratingFB","","trustrating_stim/white_00109_931230_fa_edt.bmp","null","","","","","","","","","","",""
"image-keyboard-response","53","47757","0.0-6.0-1.24","59aae1188cef7d00011f8884","bdp_trlrn","Tue Mar 14 2023 21:32:02 GMT-0400 (Eastern Daylight Time)","449118","Untrustworthy,Trustworthy","","915","","","","rating","","trustrating_stim/white_00602_940928_fb_edt.bmp","5","","","","","","","","","","",""
"image-keyboard-response","54","47958","0.0-6.0-2.24","59aae1188cef7d00011f8884","bdp_trlrn","Tue Mar 14 2023 21:32:02 GMT-0400 (Eastern Daylight Time)","449118","Untrustworthy,Trustworthy","","null","","","","ratingFB","","trustrating_stim/white_00602_940928_fb_edt.bmp","null","","","","","","","","","","",""
"image-keyboard-response","55","48995","0.0-6.0-1.25","59aae1188cef7d00011f8884","bdp_trlrn","Tue Mar 14 2023 21:32:02 GMT-0400 (Eastern Daylight Time)","449118","Untrustworthy,Trustworthy","","936","","","","rating","","trustrating_stim/white_00519_940519_fb_edt.bmp","5","","","","","","","","","","",""
"image-keyboard-response","56","49197","0.0-6.0-2.25","59aae1188cef7d00011f8884","bdp_trlrn","Tue Mar 14 2023 21:32:02 GMT-0400 (Eastern Daylight Time)","449118","Untrustworthy,Trustworthy","","null","","","","ratingFB","","trustrating_stim/white_00519_940519_fb_edt.bmp","null","","","","","","","","","","",""
"image-keyboard-response","57","50173","0.0-6.0-1.26","59aae1188cef7d00011f8884","bdp_trlrn","Tue Mar 14 2023 21:32:02 GMT-0400 (Eastern Daylight Time)","449118","Untrustworthy,Trustworthy","","873","","","","rating","","trustrating_stim/white_mw033.bmp","5","","","","","","","","","","",""
"image-keyboard-response","58","50374","0.0-6.0-2.26","59aae1188cef7d00011f8884","bdp_trlrn","Tue Mar 14 2023 21:32:02 GMT-0400 (Eastern Daylight Time)","449118","Untrustworthy,Trustworthy","","null","","","","ratingFB","","trustrating_stim/white_mw033.bmp","null","","","","","","","","","","",""
"image-keyboard-response","59","51894","0.0-6.0-1.27","59aae1188cef7d00011f8884","bdp_trlrn","Tue Mar 14 2023 21:32:02 GMT-0400 (Eastern Daylight Time)","449118","Untrustworthy,Trustworthy","","1417","","","","rating","","trustrating_stim/white_mw056.bmp","5","","","","","","","","","","",""
"image-keyboard-response","60","52095","0.0-6.0-2.27","59aae1188cef7d00011f8884","bdp_trlrn","Tue Mar 14 2023 21:32:02 GMT-0400 (Eastern Daylight Time)","449118","Untrustworthy,Trustworthy","","null","","","","ratingFB","","trustrating_stim/white_mw056.bmp","null","","","","","","","","","","",""
"image-keyboard-response","61","52895","0.0-6.0-1.28","59aae1188cef7d00011f8884","bdp_trlrn","Tue Mar 14 2023 21:32:02 GMT-0400 (Eastern Daylight Time)","449118","Untrustworthy,Trustworthy","","698","","","","rating","","trustrating_stim/white_mw049.bmp","5","","","","","","","","","","",""
"image-keyboard-response","62","53097","0.0-6.0-2.28","59aae1188cef7d00011f8884","bdp_trlrn","Tue Mar 14 2023 21:32:02 GMT-0400 (Eastern Daylight Time)","449118","Untrustworthy,Trustworthy","","null","","","","ratingFB","","trustrating_stim/white_mw049.bmp","null","","","","","","","","","","",""
"image-keyboard-response","63","53956","0.0-6.0-1.29","59aae1188cef7d00011f8884","bdp_trlrn","Tue Mar 14 2023 21:32:02 GMT-0400 (Eastern Daylight Time)","449118","Untrustworthy,Trustworthy","","757","","","","rating","","trustrating_stim/white_mw099.bmp","5","","","","","","","","","","",""
"image-keyboard-response","64","54158","0.0-6.0-2.29","59aae1188cef7d00011f8884","bdp_trlrn","Tue Mar 14 2023 21:32:02 GMT-0400 (Eastern Daylight Time)","449118","Untrustworthy,Trustworthy","","null","","","","ratingFB","","trustrating_stim/white_mw099.bmp","null","","","","","","","","","","",""
"image-keyboard-response","65","55041","0.0-6.0-1.30","59aae1188cef7d00011f8884","bdp_trlrn","Tue Mar 14 2023 21:32:02 GMT-0400 (Eastern Daylight Time)","449118","Untrustworthy,Trustworthy","","781","","","","rating","","trustrating_stim/white_mw049.bmp","5","","","","","","","","","","",""
"image-keyboard-response","66","55242","0.0-6.0-2.30","59aae1188cef7d00011f8884","bdp_trlrn","Tue Mar 14 2023 21:32:02 GMT-0400 (Eastern Daylight Time)","449118","Untrustworthy,Trustworthy","","null","","","","ratingFB","","trustrating_stim/white_mw049.bmp","null","","","","","","","","","","",""
"image-keyboard-response","67","56161","0.0-6.0-1.31","59aae1188cef7d00011f8884","bdp_trlrn","Tue Mar 14 2023 21:32:02 GMT-0400 (Eastern Daylight Time)","449118","Untrustworthy,Trustworthy","","817","","","","rating","","trustrating_stim/white_00757_941201_fa_edt.bmp","5","","","","","","","","","","",""
"image-keyboard-response","68","56362","0.0-6.0-2.31","59aae1188cef7d00011f8884","bdp_trlrn","Tue Mar 14 2023 21:32:02 GMT-0400 (Eastern Daylight Time)","449118","Untrustworthy,Trustworthy","","null","","","","ratingFB","","trustrating_stim/white_00757_941201_fa_edt.bmp","null","","","","","","","","","","",""
"image-keyboard-response","69","57043","0.0-6.0-1.32","59aae1188cef7d00011f8884","bdp_trlrn","Tue Mar 14 2023 21:32:02 GMT-0400 (Eastern Daylight Time)","449118","Untrustworthy,Trustworthy","","579","","","","rating","","trustrating_stim/white_mw046.bmp","5","","","","","","","","","","",""
"image-keyboard-response","70","57244","0.0-6.0-2.32","59aae1188cef7d00011f8884","bdp_trlrn","Tue Mar 14 2023 21:32:02 GMT-0400 (Eastern Daylight Time)","449118","Untrustworthy,Trustworthy","","null","","","","ratingFB","","trustrating_stim/white_mw046.bmp","null","","","","","","","","","","",""
"image-keyboard-response","71","58458","0.0-6.0-1.33","59aae1188cef7d00011f8884","bdp_trlrn","Tue Mar 14 2023 21:32:02 GMT-0400 (Eastern Daylight Time)","449118","Untrustworthy,Trustworthy","","1112","","","","rating","","trustrating_stim/white_mw048.bmp","2","","","","","","","","","","",""
"image-keyboard-response","72","58659","0.0-6.0-2.33","59aae1188cef7d00011f8884","bdp_trlrn","Tue Mar 14 2023 21:32:02 GMT-0400 (Eastern Daylight Time)","449118","Untrustworthy,Trustworthy","","null","","","","ratingFB","","trustrating_stim/white_mw048.bmp","null","","","","","","","","","","",""
"image-keyboard-response","73","59476","0.0-6.0-1.34","59aae1188cef7d00011f8884","bdp_trlrn","Tue Mar 14 2023 21:32:02 GMT-0400 (Eastern Daylight Time)","449118","Untrustworthy,Trustworthy","","716","","","","rating","","trustrating_stim/white_mw084.bmp","5","","","","","","","","","","",""
"image-keyboard-response","74","59676","0.0-6.0-2.34","59aae1188cef7d00011f8884","bdp_trlrn","Tue Mar 14 2023 21:32:02 GMT-0400 (Eastern Daylight Time)","449118","Untrustworthy,Trustworthy","","null","","","","ratingFB","","trustrating_stim/white_mw084.bmp","null","","","","","","","","","","",""
"image-keyboard-response","75","60497","0.0-6.0-1.35","59aae1188cef7d00011f8884","bdp_trlrn","Tue Mar 14 2023 21:32:02 GMT-0400 (Eastern Daylight Time)","449118","Untrustworthy,Trustworthy","","719","","","","rating","","trustrating_stim/white_00577_940928_fa_edt.bmp","5","","","","","","","","","","",""
"image-keyboard-response","76","60698","0.0-6.0-2.35","59aae1188cef7d00011f8884","bdp_trlrn","Tue Mar 14 2023 21:32:02 GMT-0400 (Eastern Daylight Time)","449118","Untrustworthy,Trustworthy","","null","","","","ratingFB","","trustrating_stim/white_00577_940928_fa_edt.bmp","null","","","","","","","","","","",""
"image-keyboard-response","77","61527","0.0-6.0-1.36","59aae1188cef7d00011f8884","bdp_trlrn","Tue Mar 14 2023 21:32:02 GMT-0400 (Eastern Daylight Time)","449118","Untrustworthy,Trustworthy","","726","","","","rating","","trustrating_stim/white_00340_940422_fa_edt.bmp","5","","","","","","","","","","",""
"image-keyboard-response","78","61728","0.0-6.0-2.36","59aae1188cef7d00011f8884","bdp_trlrn","Tue Mar 14 2023 21:32:02 GMT-0400 (Eastern Daylight Time)","449118","Untrustworthy,Trustworthy","","null","","","","ratingFB","","trustrating_stim/white_00340_940422_fa_edt.bmp","null","","","","","","","","","","",""
"image-keyboard-response","79","62526","0.0-6.0-1.37","59aae1188cef7d00011f8884","bdp_trlrn","Tue Mar 14 2023 21:32:02 GMT-0400 (Eastern Daylight Time)","449118","Untrustworthy,Trustworthy","","697","","","","rating","","trustrating_stim/white_00761_941201_fb_edt.bmp","2","","","","","","","","","","",""
"image-keyboard-response","80","62727","0.0-6.0-2.37","59aae1188cef7d00011f8884","bdp_trlrn","Tue Mar 14 2023 21:32:02 GMT-0400 (Eastern Daylight Time)","449118","Untrustworthy,Trustworthy","","null","","","","ratingFB","","trustrating_stim/white_00761_941201_fb_edt.bmp","null","","","","","","","","","","",""
"image-keyboard-response","81","63362","0.0-6.0-1.38","59aae1188cef7d00011f8884","bdp_trlrn","Tue Mar 14 2023 21:32:02 GMT-0400 (Eastern Daylight Time)","449118","Untrustworthy,Trustworthy","","533","","","","rating","","trustrating_stim/white_00109_931230_fa_edt.bmp","5","","","","","","","","","","",""
"image-keyboard-response","82","63564","0.0-6.0-2.38","59aae1188cef7d00011f8884","bdp_trlrn","Tue Mar 14 2023 21:32:02 GMT-0400 (Eastern Daylight Time)","449118","Untrustworthy,Trustworthy","","null","","","","ratingFB","","trustrating_stim/white_00109_931230_fa_edt.bmp","null","","","","","","","","","","",""
"image-keyboard-response","83","64244","0.0-6.0-1.39","59aae1188cef7d00011f8884","bdp_trlrn","Tue Mar 14 2023 21:32:02 GMT-0400 (Eastern Daylight Time)","449118","Untrustworthy,Trustworthy","","578","","","","rating","","trustrating_stim/white_00659_941121_fa_edt.bmp","5","","","","","","","","","","",""
"image-keyboard-response","84","64445","0.0-6.0-2.39","59aae1188cef7d00011f8884","bdp_trlrn","Tue Mar 14 2023 21:32:02 GMT-0400 (Eastern Daylight Time)","449118","Untrustworthy,Trustworthy","","null","","","","ratingFB","","trustrating_stim/white_00659_941121_fa_edt.bmp","null","","","","","","","","","","",""
"image-keyboard-response","85","65432","0.0-6.0-1.40","59aae1188cef7d00011f8884","bdp_trlrn","Tue Mar 14 2023 21:32:02 GMT-0400 (Eastern Daylight Time)","449118","Untrustworthy,Trustworthy","","885","","","","rating","","trustrating_stim/white_00898_960530_fa_edt.bmp","5","","","","","","","","","","",""
"image-keyboard-response","86","65634","0.0-6.0-2.40","59aae1188cef7d00011f8884","bdp_trlrn","Tue Mar 14 2023 21:32:02 GMT-0400 (Eastern Daylight Time)","449118","Untrustworthy,Trustworthy","","null","","","","ratingFB","","trustrating_stim/white_00898_960530_fa_edt.bmp","null","","","","","","","","","","",""
"image-keyboard-response","87","66251","0.0-6.0-1.41","59aae1188cef7d00011f8884","bdp_trlrn","Tue Mar 14 2023 21:32:02 GMT-0400 (Eastern Daylight Time)","449118","Untrustworthy,Trustworthy","","514","","","","rating","","trustrating_stim/white_mw071.bmp","5","","","","","","","","","","",""
"image-keyboard-response","88","66452","0.0-6.0-2.41","59aae1188cef7d00011f8884","bdp_trlrn","Tue Mar 14 2023 21:32:02 GMT-0400 (Eastern Daylight Time)","449118","Untrustworthy,Trustworthy","","null","","","","ratingFB","","trustrating_stim/white_mw071.bmp","null","","","","","","","","","","",""
"image-keyboard-response","89","67533","0.0-6.0-1.42","59aae1188cef7d00011f8884","bdp_trlrn","Tue Mar 14 2023 21:32:02 GMT-0400 (Eastern Daylight Time)","449118","Untrustworthy,Trustworthy","","979","","","","rating","","trustrating_stim/white_mw097.bmp","5","","","","","","","","","","",""
"image-keyboard-response","90","67734","0.0-6.0-2.42","59aae1188cef7d00011f8884","bdp_trlrn","Tue Mar 14 2023 21:32:02 GMT-0400 (Eastern Daylight Time)","449118","Untrustworthy,Trustworthy","","null","","","","ratingFB","","trustrating_stim/white_mw097.bmp","null","","","","","","","","","","",""
"image-keyboard-response","91","68911","0.0-6.0-1.43","59aae1188cef7d00011f8884","bdp_trlrn","Tue Mar 14 2023 21:32:02 GMT-0400 (Eastern Daylight Time)","449118","Untrustworthy,Trustworthy","","1075","","","","rating","","trustrating_stim/white_00223_940128_fb_edt.bmp","3","","","","","","","","","","",""
"image-keyboard-response","92","69113","0.0-6.0-2.43","59aae1188cef7d00011f8884","bdp_trlrn","Tue Mar 14 2023 21:32:02 GMT-0400 (Eastern Daylight Time)","449118","Untrustworthy,Trustworthy","","null","","","","ratingFB","","trustrating_stim/white_00223_940128_fb_edt.bmp","null","","","","","","","","","","",""
"image-keyboard-response","93","69937","0.0-6.0-1.44","59aae1188cef7d00011f8884","bdp_trlrn","Tue Mar 14 2023 21:32:02 GMT-0400 (Eastern Daylight Time)","449118","Untrustworthy,Trustworthy","","722","","","","rating","","trustrating_stim/white_mw066.bmp","5","","","","","","","","","","",""
"image-keyboard-response","94","70139","0.0-6.0-2.44","59aae1188cef7d00011f8884","bdp_trlrn","Tue Mar 14 2023 21:32:02 GMT-0400 (Eastern Daylight Time)","449118","Untrustworthy,Trustworthy","","null","","","","ratingFB","","trustrating_stim/white_mw066.bmp","null","","","","","","","","","","",""
"image-keyboard-response","95","70966","0.0-6.0-1.45","59aae1188cef7d00011f8884","bdp_trlrn","Tue Mar 14 2023 21:32:02 GMT-0400 (Eastern Daylight Time)","449118","Untrustworthy,Trustworthy","","725","","","","rating","","trustrating_stim/white_mw060.bmp","5","","","","","","","","","","",""
"image-keyboard-response","96","71167","0.0-6.0-2.45","59aae1188cef7d00011f8884","bdp_trlrn","Tue Mar 14 2023 21:32:02 GMT-0400 (Eastern Daylight Time)","449118","Untrustworthy,Trustworthy","","null","","","","ratingFB","","trustrating_stim/white_mw060.bmp","null","","","","","","","","","","",""
"image-keyboard-response","97","71909","0.0-6.0-1.46","59aae1188cef7d00011f8884","bdp_trlrn","Tue Mar 14 2023 21:32:02 GMT-0400 (Eastern Daylight Time)","449118","Untrustworthy,Trustworthy","","640","","","","rating","","trustrating_stim/white_mw089.bmp","5","","","","","","","","","","",""
"image-keyboard-response","98","72110","0.0-6.0-2.46","59aae1188cef7d00011f8884","bdp_trlrn","Tue Mar 14 2023 21:32:02 GMT-0400 (Eastern Daylight Time)","449118","Untrustworthy,Trustworthy","","null","","","","ratingFB","","trustrating_stim/white_mw089.bmp","null","","","","","","","","","","",""
"image-keyboard-response","99","73580","0.0-6.0-1.47","59aae1188cef7d00011f8884","bdp_trlrn","Tue Mar 14 2023 21:32:02 GMT-0400 (Eastern Daylight Time)","449118","Untrustworthy,Trustworthy","","1368","","","","rating","","trustrating_stim/white_mw099.bmp","5","","","","","","","","","","",""
"image-keyboard-response","100","73781","0.0-6.0-2.47","59aae1188cef7d00011f8884","bdp_trlrn","Tue Mar 14 2023 21:32:02 GMT-0400 (Eastern Daylight Time)","449118","Untrustworthy,Trustworthy","","null","","","","ratingFB","","trustrating_stim/white_mw099.bmp","null","","","","","","","","","","",""
"image-keyboard-response","101","75495","0.0-6.0-1.48","59aae1188cef7d00011f8884","bdp_trlrn","Tue Mar 14 2023 21:32:02 GMT-0400 (Eastern Daylight Time)","449118","Untrustworthy,Trustworthy","","1613","","","","rating","","trustrating_stim/white_00129_931230_fb_edt.bmp","3","","","","","","","","","","",""
"image-keyboard-response","102","75696","0.0-6.0-2.48","59aae1188cef7d00011f8884","bdp_trlrn","Tue Mar 14 2023 21:32:02 GMT-0400 (Eastern Daylight Time)","449118","Untrustworthy,Trustworthy","","null","","","","ratingFB","","trustrating_stim/white_00129_931230_fb_edt.bmp","null","","","","","","","","","","",""
"image-keyboard-response","103","76696","0.0-6.0-1.49","59aae1188cef7d00011f8884","bdp_trlrn","Tue Mar 14 2023 21:32:02 GMT-0400 (Eastern Daylight Time)","449118","Untrustworthy,Trustworthy","","898","","","","rating","","trustrating_stim/white_mw033.bmp","5","","","","","","","","","","",""
"image-keyboard-response","104","76898","0.0-6.0-2.49","59aae1188cef7d00011f8884","bdp_trlrn","Tue Mar 14 2023 21:32:02 GMT-0400 (Eastern Daylight Time)","449118","Untrustworthy,Trustworthy","","null","","","","ratingFB","","trustrating_stim/white_mw033.bmp","null","","","","","","","","","","",""
"image-keyboard-response","105","77747","0.0-6.0-1.50","59aae1188cef7d00011f8884","bdp_trlrn","Tue Mar 14 2023 21:32:02 GMT-0400 (Eastern Daylight Time)","449118","Untrustworthy,Trustworthy","","748","","","","rating","","trustrating_stim/white_mw056.bmp","5","","","","","","","","","","",""
"image-keyboard-response","106","77948","0.0-6.0-2.50","59aae1188cef7d00011f8884","bdp_trlrn","Tue Mar 14 2023 21:32:02 GMT-0400 (Eastern Daylight Time)","449118","Untrustworthy,Trustworthy","","null","","","","ratingFB","","trustrating_stim/white_mw056.bmp","null","","","","","","","","","","",""
"image-keyboard-response","107","78796","0.0-6.0-1.51","59aae1188cef7d00011f8884","bdp_trlrn","Tue Mar 14 2023 21:32:02 GMT-0400 (Eastern Daylight Time)","449118","Untrustworthy,Trustworthy","","746","","","","rating","","trustrating_stim/white_00120_931230_fa_edt.bmp","5","","","","","","","","","","",""
"image-keyboard-response","108","78997","0.0-6.0-2.51","59aae1188cef7d00011f8884","bdp_trlrn","Tue Mar 14 2023 21:32:02 GMT-0400 (Eastern Daylight Time)","449118","Untrustworthy,Trustworthy","","null","","","","ratingFB","","trustrating_stim/white_00120_931230_fa_edt.bmp","null","","","","","","","","","","",""
"image-keyboard-response","109","80018","0.0-6.0-1.52","59aae1188cef7d00011f8884","bdp_trlrn","Tue Mar 14 2023 21:32:02 GMT-0400 (Eastern Daylight Time)","449118","Untrustworthy,Trustworthy","","919","","","","rating","","trustrating_stim/white_00299_940422_fa_edt.bmp","5","","","","","","","","","","",""
"image-keyboard-response","110","80220","0.0-6.0-2.52","59aae1188cef7d00011f8884","bdp_trlrn","Tue Mar 14 2023 21:32:02 GMT-0400 (Eastern Daylight Time)","449118","Untrustworthy,Trustworthy","","null","","","","ratingFB","","trustrating_stim/white_00299_940422_fa_edt.bmp","null","","","","","","","","","","",""
"image-keyboard-response","111","81278","0.0-6.0-1.53","59aae1188cef7d00011f8884","bdp_trlrn","Tue Mar 14 2023 21:32:02 GMT-0400 (Eastern Daylight Time)","449118","Untrustworthy,Trustworthy","","957","","","","rating","","trustrating_stim/white_00602_940928_fb_edt.bmp","5","","","","","","","","","","",""
"image-keyboard-response","112","81479","0.0-6.0-2.53","59aae1188cef7d00011f8884","bdp_trlrn","Tue Mar 14 2023 21:32:02 GMT-0400 (Eastern Daylight Time)","449118","Untrustworthy,Trustworthy","","null","","","","ratingFB","","trustrating_stim/white_00602_940928_fb_edt.bmp","null","","","","","","","","","","",""
"image-keyboard-response","113","82554","0.0-6.0-1.54","59aae1188cef7d00011f8884","bdp_trlrn","Tue Mar 14 2023 21:32:02 GMT-0400 (Eastern Daylight Time)","449118","Untrustworthy,Trustworthy","","973","","","","rating","","trustrating_stim/white_00785_941205_fb_edt.bmp","5","","","","","","","","","","",""
"image-keyboard-response","114","82755","0.0-6.0-2.54","59aae1188cef7d00011f8884","bdp_trlrn","Tue Mar 14 2023 21:32:02 GMT-0400 (Eastern Daylight Time)","449118","Untrustworthy,Trustworthy","","null","","","","ratingFB","","trustrating_stim/white_00785_941205_fb_edt.bmp","null","","","","","","","","","","",""
"image-keyboard-response","115","83390","0.0-6.0-1.55","59aae1188cef7d00011f8884","bdp_trlrn","Tue Mar 14 2023 21:32:02 GMT-0400 (Eastern Daylight Time)","449118","Untrustworthy,Trustworthy","","532","","","","rating","","trustrating_stim/white_mw053.bmp","5","","","","","","","","","","",""
"image-keyboard-response","116","83591","0.0-6.0-2.55","59aae1188cef7d00011f8884","bdp_trlrn","Tue Mar 14 2023 21:32:02 GMT-0400 (Eastern Daylight Time)","449118","Untrustworthy,Trustworthy","","null","","","","ratingFB","","trustrating_stim/white_mw053.bmp","null","","","","","","","","","","",""
"image-keyboard-response","117","84117","0.0-6.0-1.56","59aae1188cef7d00011f8884","bdp_trlrn","Tue Mar 14 2023 21:32:02 GMT-0400 (Eastern Daylight Time)","449118","Untrustworthy,Trustworthy","","424","","","","rating","","trustrating_stim/white_mw063.bmp","5","","","","","","","","","","",""
"image-keyboard-response","118","84318","0.0-6.0-2.56","59aae1188cef7d00011f8884","bdp_trlrn","Tue Mar 14 2023 21:32:02 GMT-0400 (Eastern Daylight Time)","449118","Untrustworthy,Trustworthy","","null","","","","ratingFB","","trustrating_stim/white_mw063.bmp","null","","","","","","","","","","",""
"image-keyboard-response","119","84881","0.0-6.0-1.57","59aae1188cef7d00011f8884","bdp_trlrn","Tue Mar 14 2023 21:32:02 GMT-0400 (Eastern Daylight Time)","449118","Untrustworthy,Trustworthy","","461","","","","rating","","trustrating_stim/white_mw035.bmp","5","","","","","","","","","","",""
"image-keyboard-response","120","85082","0.0-6.0-2.57","59aae1188cef7d00011f8884","bdp_trlrn","Tue Mar 14 2023 21:32:02 GMT-0400 (Eastern Daylight Time)","449118","Untrustworthy,Trustworthy","","null","","","","ratingFB","","trustrating_stim/white_mw035.bmp","null","","","","","","","","","","",""
"image-keyboard-response","121","85730","0.0-6.0-1.58","59aae1188cef7d00011f8884","bdp_trlrn","Tue Mar 14 2023 21:32:02 GMT-0400 (Eastern Daylight Time)","449118","Untrustworthy,Trustworthy","","546","","","","rating","","trustrating_stim/white_00519_940519_fb_edt.bmp","5","","","","","","","","","","",""
"image-keyboard-response","122","85932","0.0-6.0-2.58","59aae1188cef7d00011f8884","bdp_trlrn","Tue Mar 14 2023 21:32:02 GMT-0400 (Eastern Daylight Time)","449118","Untrustworthy,Trustworthy","","null","","","","ratingFB","","trustrating_stim/white_00519_940519_fb_edt.bmp","null","","","","","","","","","","",""
"image-keyboard-response","123","86572","0.0-6.0-1.59","59aae1188cef7d00011f8884","bdp_trlrn","Tue Mar 14 2023 21:32:02 GMT-0400 (Eastern Daylight Time)","449118","Untrustworthy,Trustworthy","","539","","","","rating","","trustrating_stim/white_00807_941205_fb_edt.bmp","5","","","","","","","","","","",""
"image-keyboard-response","124","86773","0.0-6.0-2.59","59aae1188cef7d00011f8884","bdp_trlrn","Tue Mar 14 2023 21:32:02 GMT-0400 (Eastern Daylight Time)","449118","Untrustworthy,Trustworthy","","null","","","","ratingFB","","trustrating_stim/white_00807_941205_fb_edt.bmp","null","","","","","","","","","","",""
"instructions","125","88127","0.0-7.0","59aae1188cef7d00011f8884","bdp_trlrn","Tue Mar 14 2023 21:32:02 GMT-0400 (Eastern Daylight Time)","449118","Untrustworthy,Trustworthy","[{""page_index"":0,""viewing_time"":1252}]","1252","","","","","","","","","","","","","","","","","",""
"instructions","126","133677","0.0-8.0","59aae1188cef7d00011f8884","bdp_trlrn","Tue Mar 14 2023 21:32:02 GMT-0400 (Eastern Daylight Time)","449118","Untrustworthy,Trustworthy","[{""page_index"":0,""viewing_time"":12577},{""page_index"":1,""viewing_time"":7022},{""page_index"":2,""viewing_time"":6147},{""page_index"":3,""viewing_time"":4551},{""page_index"":4,""viewing_time"":2655},{""page_index"":5,""viewing_time"":3597},{""page_index"":6,""viewing_time"":6954},{""page_index"":7,""viewing_time"":1947}]","45450","","","","","","","","","","","","","","","","","",""
"html-keyboard-response","127","137134","0.0-9.0","59aae1188cef7d00011f8884","bdp_trlrn","Tue Mar 14 2023 21:32:02 GMT-0400 (Eastern Daylight Time)","449118","Untrustworthy,Trustworthy","","3457","","","","","","<div class='header' style='text-align:left; position: absolute; top: 5%; left: 5%;'><small>Task 3 of 5</small></div><div class='instruxDiv'><p><strong>1) What is the minimum number of points you can choose to send to your partner?</strong></p><p>a) 0</p><p>b) 1</p><p>c) 5</p>","C","","","","","","","","","","",""
"html-keyboard-response","128","141223","0.0-10.0","59aae1188cef7d00011f8884","bdp_trlrn","Tue Mar 14 2023 21:32:02 GMT-0400 (Eastern Daylight Time)","449118","Untrustworthy,Trustworthy","","3988","","","","","","<div class='header' style='text-align:left; position: absolute; top: 5%; left: 5%;'><small>Task 3 of 5</small></div><div class='instruxDiv'><p><strong>1) What is the minimum number of points you can choose to send to your partner?</strong></p><p>a) 1</p><p>b) 1</p><p style='color:#FF0000'>c) 5</p><h3 style='color:#FF0000'>Incorrect!</h3><h3 class='center-content'>The correct response is b).</h3><h3 class='center-content'>The minimum number of points you can choose to send to your partner is 1 point.</h3><p><em>Press SPACEBAR to continue</em></p></div>"," ","","","","","","","","","","",""
"html-keyboard-response","129","145140","0.0-11.0","59aae1188cef7d00011f8884","bdp_trlrn","Tue Mar 14 2023 21:32:02 GMT-0400 (Eastern Daylight Time)","449118","Untrustworthy,Trustworthy","","3815","","","","","","<div class='header' style='text-align:left; position: absolute; top: 5%; left: 5%;'><small>Task 3 of 5</small></div><div class='instruxDiv'><p><strong>2) What is the maximum number of points you can choose to send to your partner?</strong></p><p>a) 8</p><p>b) 5</p><p>c) 3</p>","B","","","","","","","","","","",""
"html-keyboard-response","130","145752","0.0-12.0","59aae1188cef7d00011f8884","bdp_trlrn","Tue Mar 14 2023 21:32:02 GMT-0400 (Eastern Daylight Time)","449118","Untrustworthy,Trustworthy","","511","","","","","","<div class='header' style='text-align:left; position: absolute; top: 5%; left: 5%;'><small>Task 3 of 5</small></div><div class='instruxDiv'><p><strong>2) What is the maximum number of points you can choose to send to your partner?</strong></p><p>a) 8</p><p style='color:#00FF00'>b) 5</p><p>c) 3</p><h3 style='color:#00FF00'>Correct!</h3><h3 class='center-content'>The correct response is b).</h3><h3 class='center-content'>The maximum number of points you can choose to send to your partner is 5 points.</h3><p><em>Press SPACEBAR to continue</em></p></div>"," ","","","","","","","","","","",""
"html-keyboard-response","131","148646","0.0-13.0","59aae1188cef7d00011f8884","bdp_trlrn","Tue Mar 14 2023 21:32:02 GMT-0400 (Eastern Daylight Time)","449118","Untrustworthy,Trustworthy","","2793","","","","","","<div class='header' style='text-align:left; position: absolute; top: 5%; left: 5%;'><small>Task 3 of 5</small></div><div class='instruxDiv'><p><strong>3) What happens to the amount of points you send to your partner?</strong></p><p>a) Nothing</p><p>b) It doubles</p><p>c) It quadruples</p>","C","","","","","","","","","","",""
"html-keyboard-response","132","150466","0.0-14.0","59aae1188cef7d00011f8884","bdp_trlrn","Tue Mar 14 2023 21:32:02 GMT-0400 (Eastern Daylight Time)","449118","Untrustworthy,Trustworthy","","1718","","","","","","<div class='header' style='text-align:left; position: absolute; top: 5%; left: 5%;'><small>Task 3 of 5</small></div><div class='instruxDiv'><p><strong>3) What happens to the amount of points you send to your partner?</strong></p><p>a) Nothing</p><p>b) It doubles</p><p style='color:#00FF00'>c) It quadruples</p><h3 style='color:#00FF00'>Correct!</h3><h3 class='center-content'>The correct response is c).</h3><h3 class='center-content'>The amount of points you send to your partner quadruples.</h3><p><em>Press SPACEBAR to continue</em></p></div>"," ","","","","","","","","","","",""
"html-keyboard-response","133","162025","0.0-15.0","59aae1188cef7d00011f8884","bdp_trlrn","Tue Mar 14 2023 21:32:02 GMT-0400 (Eastern Daylight Time)","449118","Untrustworthy,Trustworthy","","11459","","","","","","<div class='header' style='text-align:left; position: absolute; top: 5%; left: 5%;'><small>Task 3 of 5</small></div><div class='instruxDiv'><p><strong>4) If you decided to share 4 out of 5 points with your partner, and they decided to share half of the amount they received with you, how many points would you receive back from them on this round?</strong></p><p>a) 16</p><p>b) 0</p><p>c) 8</p>","C","","","","","","","","","","",""
"html-keyboard-response","134","162934","0.0-16.0","59aae1188cef7d00011f8884","bdp_trlrn","Tue Mar 14 2023 21:32:02 GMT-0400 (Eastern Daylight Time)","449118","Untrustworthy,Trustworthy","","807","","","","","","<div class='header' style='text-align:left; position: absolute; top: 5%; left: 5%;'><small>Task 3 of 5</small></div><div class='instruxDiv'><p><strong>4) If you decided to share 4 out of 5 points with your partner, and they decided to share half of the amount they received with you, how many points would you receive back from them on this round?</strong></p><p>a) 16</p><p>b) 0</p><p style='color:#00FF00'>c) 8</p><h3 style='color:#00FF00'>Correct!</h3><h3 class='center-content'>The correct response is c).</h3><h3 class='center-content'>If you shared 4 out of 5 points with your partner and they decided to share half of the amount they received with you, you would receive 8 points back (i.e. (4 x 4)/2 = 8).</h3><p><em>Press SPACEBAR to continue</em></p></div>"," ","","","","","","","","","","",""
"html-keyboard-response","135","168036","0.0-17.0","59aae1188cef7d00011f8884","bdp_trlrn","Tue Mar 14 2023 21:32:02 GMT-0400 (Eastern Daylight Time)","449118","Untrustworthy,Trustworthy","","null","","","","","","<div class='header' style='text-align:left; position: absolute; top: 5%; left: 5%;'><small>Task 3 of 5</small></div><div class='instruxDiv'><p>Thank you for completing the quiz<p>These are the actual partners you will be interacting with in the next block:<p><div class='tc' align='center'><img class='introPic' src='trustrating_stim/white_00761_941201_fb_edt.bmp'><br><strong>David</strong></div><div class='bl' align='center'><img class='introPic' src='trustrating_stim/white_mw089.bmp'><br><strong>Aaron</strong></div><div class='br' align='center'><img class='introPic' src='trustrating_stim/white_00519_940519_fb_edt.bmp'><br><strong>Jonathan</strong></div></div><p>Across <strong>66 rounds</strong> you will interact with each partner <strong>22 times</strong> (in random order).<p style='align:center; color:white'><font <em>Press SPACEBAR to continue</em></p>","null","","","","","","","","","","",""
"instructions","136","169710","0.0-18.0","59aae1188cef7d00011f8884","bdp_trlrn","Tue Mar 14 2023 21:32:02 GMT-0400 (Eastern Daylight Time)","449118","Untrustworthy,Trustworthy","[{""page_index"":0,""viewing_time"":713},{""page_index"":1,""viewing_time"":959}]","1673","","","","","","","","","","","","","","","","","",""
"html-keyboard-response","137","171001","0.0-19.0-1.0","59aae1188cef7d00011f8884","bdp_trlrn","Tue Mar 14 2023 21:32:02 GMT-0400 (Eastern Daylight Time)","449118","Untrustworthy,Trustworthy","","1190","","","","decision","","<div class='trialDiv'><img src='trustrating_stim/white_00761_941201_fb_edt.bmp'><br><font class='baseline'><strong>David</strong><p>Choose number of points to send.</font><div class='respPicDiv'><img src='img/responseButtonOffersNo0L.png' class='respPic'></div></div>","4","1","David","1","Kept","0.35,0.8","10","0.35","trustrating_stim/white_00761_941201_fb_edt.bmp","2.5","5","1"
"html-keyboard-response","138","171252","0.0-19.0-2.0","59aae1188cef7d00011f8884","bdp_trlrn","Tue Mar 14 2023 21:32:02 GMT-0400 (Eastern Daylight Time)","449118","Untrustworthy,Trustworthy","","null","","","","decisionFB","","<div class='trialDiv'><img src='trustrating_stim/white_00761_941201_fb_edt.bmp'><br><font class='baseline'><strong>David</strong><p>Choose number of points to send.</font><div class='respPicDiv'><img src='img/responseButtonOffersNo0L4.png' class='respPic'></div></div>","null","1","David","1","Kept","0.35,0.8","10","0.35","trustrating_stim/white_00761_941201_fb_edt.bmp","2.5","1","1"
"html-keyboard-response","139","172267","0.0-19.0-3.0","59aae1188cef7d00011f8884","bdp_trlrn","Tue Mar 14 2023 21:32:02 GMT-0400 (Eastern Daylight Time)","449118","Untrustworthy,Trustworthy","","null","","","","feedback","","<div class='trialDiv'><img src='trustrating_stim/white_00761_941201_fb_edt.bmp'><br><font class='baseline'><strong>David</strong><p>Received: <strong>16</strong></font> &nbsp; &nbsp; &nbsp; &nbsp; &nbsp; &nbsp;<font class='negOutcome'>Shared back: <strong>0</strong></font></font><div class='respPicDiv'><img src='img/responseButtonOffersNo0_wht.png' class='respPic'></div></div>","null","1","David","1","Kept","0.35,0.8","10","0.35","trustrating_stim/white_00761_941201_fb_edt.bmp","2.5","1","1"
"html-keyboard-response","140","172863","0.0-19.0-1.1","59aae1188cef7d00011f8884","bdp_trlrn","Tue Mar 14 2023 21:32:02 GMT-0400 (Eastern Daylight Time)","449118","Untrustworthy,Trustworthy","","596","","","","decision","","<div class='trialDiv'><img src='trustrating_stim/white_00519_940519_fb_edt.bmp'><br><font class='baseline'><strong>Jonathan</strong><p>Choose number of points to send.</font><div class='respPicDiv'><img src='img/responseButtonOffersNo0L.png' class='respPic'></div></div>","5","1","Jonathan","11","Shared","0.8,0.35","10","0.8","trustrating_stim/white_00519_940519_fb_edt.bmp","5","6","2"
"html-keyboard-response","141","173115","0.0-19.0-2.1","59aae1188cef7d00011f8884","bdp_trlrn","Tue Mar 14 2023 21:32:02 GMT-0400 (Eastern Daylight Time)","449118","Untrustworthy,Trustworthy","","null","","","","decisionFB","","<div class='trialDiv'><img src='trustrating_stim/white_00519_940519_fb_edt.bmp'><br><font class='baseline'><strong>Jonathan</strong><p>Choose number of points to send.</font><div class='respPicDiv'><img src='img/responseButtonOffersNo0L5.png' class='respPic'></div></div>","null","1","Jonathan","11","Shared","0.8,0.35","10","0.8","trustrating_stim/white_00519_940519_fb_edt.bmp","5","1","2"
"html-keyboard-response","142","174117","0.0-19.0-3.1","59aae1188cef7d00011f8884","bdp_trlrn","Tue Mar 14 2023 21:32:02 GMT-0400 (Eastern Daylight Time)","449118","Untrustworthy,Trustworthy","","null","","","","feedback","","<div class='trialDiv'><img src='trustrating_stim/white_00519_940519_fb_edt.bmp'><br><font class='baseline'><strong>Jonathan</strong><p>Received: <strong>20</strong></font> &nbsp; &nbsp; &nbsp; &nbsp; &nbsp; &nbsp;<font class='posOutcome'>Shared back: <strong>10</strong></font></font><div class='respPicDiv'><img src='img/responseButtonOffersNo0_wht.png' class='respPic'></div></div>","null","1","Jonathan","11","Shared","0.8,0.35","10","0.8","trustrating_stim/white_00519_940519_fb_edt.bmp","5","11","2"
"html-keyboard-response","143","174518","0.0-19.0-1.2","59aae1188cef7d00011f8884","bdp_trlrn","Tue Mar 14 2023 21:32:02 GMT-0400 (Eastern Daylight Time)","449118","Untrustworthy,Trustworthy","","400","","","","decision","","<div class='trialDiv'><img src='trustrating_stim/white_mw089.bmp'><br><font class='baseline'><strong>Aaron</strong><p>Choose number of points to send.</font><div class='respPicDiv'><img src='img/responseButtonOffersNo0L.png' class='respPic'></div></div>","5","1","Aaron","5","Kept","0.2,0.8","9","0.2","trustrating_stim/white_mw089.bmp","5","16","3"
"html-keyboard-response","144","174769","0.0-19.0-2.2","59aae1188cef7d00011f8884","bdp_trlrn","Tue Mar 14 2023 21:32:02 GMT-0400 (Eastern Daylight Time)","449118","Untrustworthy,Trustworthy","","null","","","","decisionFB","","<div class='trialDiv'><img src='trustrating_stim/white_mw089.bmp'><br><font class='baseline'><strong>Aaron</strong><p>Choose number of points to send.</font><div class='respPicDiv'><img src='img/responseButtonOffersNo0L5.png' class='respPic'></div></div>","null","1","Aaron","5","Kept","0.2,0.8","9","0.2","trustrating_stim/white_mw089.bmp","5","11","3"
"html-keyboard-response","145","175771","0.0-19.0-3.2","59aae1188cef7d00011f8884","bdp_trlrn","Tue Mar 14 2023 21:32:02 GMT-0400 (Eastern Daylight Time)","449118","Untrustworthy,Trustworthy","","null","","","","feedback","","<div class='trialDiv'><img src='trustrating_stim/white_mw089.bmp'><br><font class='baseline'><strong>Aaron</strong><p>Received: <strong>20</strong></font> &nbsp; &nbsp; &nbsp; &nbsp; &nbsp; &nbsp;<font class='negOutcome'>Shared back: <strong>0</strong></font></font><div class='respPicDiv'><img src='img/responseButtonOffersNo0_wht.png' class='respPic'></div></div>","null","1","Aaron","5","Kept","0.2,0.8","9","0.2","trustrating_stim/white_mw089.bmp","5","11","3"
"html-keyboard-response","146","176743","0.0-19.0-1.3","59aae1188cef7d00011f8884","bdp_trlrn","Tue Mar 14 2023 21:32:02 GMT-0400 (Eastern Daylight Time)","449118","Untrustworthy,Trustworthy","","971","","","","decision","","<div class='trialDiv'><img src='trustrating_stim/white_00761_941201_fb_edt.bmp'><br><font class='baseline'><strong>David</strong><p>Choose number of points to send.</font><div class='respPicDiv'><img src='img/responseButtonOffersNo0L.png' class='respPic'></div></div>","1","2","David","1","Kept","0.35,0.8","10","0.35","trustrating_stim/white_00761_941201_fb_edt.bmp","2.5","16","4"
"html-keyboard-response","147","176994","0.0-19.0-2.3","59aae1188cef7d00011f8884","bdp_trlrn","Tue Mar 14 2023 21:32:02 GMT-0400 (Eastern Daylight Time)","449118","Untrustworthy,Trustworthy","","null","","","","decisionFB","","<div class='trialDiv'><img src='trustrating_stim/white_00761_941201_fb_edt.bmp'><br><font class='baseline'><strong>David</strong><p>Choose number of points to send.</font><div class='respPicDiv'><img src='img/responseButtonOffersNo0L1.png' class='respPic'></div></div>","null","2","David","1","Kept","0.35,0.8","10","0.35","trustrating_stim/white_00761_941201_fb_edt.bmp","2.5","15","4"
"html-keyboard-response","148","177996","0.0-19.0-3.3","59aae1188cef7d00011f8884","bdp_trlrn","Tue Mar 14 2023 21:32:02 GMT-0400 (Eastern Daylight Time)","449118","Untrustworthy,Trustworthy","","null","","","","feedback","","<div class='trialDiv'><img src='trustrating_stim/white_00761_941201_fb_edt.bmp'><br><font class='baseline'><strong>David</strong><p>Received: <strong>4</strong></font> &nbsp; &nbsp; &nbsp; &nbsp; &nbsp; &nbsp;<font class='negOutcome'>Shared back: <strong>0</strong></font></font><div class='respPicDiv'><img src='img/responseButtonOffersNo0_wht.png' class='respPic'></div></div>","null","2","David","1","Kept","0.35,0.8","10","0.35","trustrating_stim/white_00761_941201_fb_edt.bmp","2.5","15","4"
"html-keyboard-response","149","178952","0.0-19.0-1.4","59aae1188cef7d00011f8884","bdp_trlrn","Tue Mar 14 2023 21:32:02 GMT-0400 (Eastern Daylight Time)","449118","Untrustworthy,Trustworthy","","955","","","","decision","","<div class='trialDiv'><img src='trustrating_stim/white_00519_940519_fb_edt.bmp'><br><font class='baseline'><strong>Jonathan</strong><p>Choose number of points to send.</font><div class='respPicDiv'><img src='img/responseButtonOffersNo0L.png' class='respPic'></div></div>","5","2","Jonathan","11","Shared","0.8,0.35","10","0.8","trustrating_stim/white_00519_940519_fb_edt.bmp","5","20","5"
"html-keyboard-response","150","179205","0.0-19.0-2.4","59aae1188cef7d00011f8884","bdp_trlrn","Tue Mar 14 2023 21:32:02 GMT-0400 (Eastern Daylight Time)","449118","Untrustworthy,Trustworthy","","null","","","","decisionFB","","<div class='trialDiv'><img src='trustrating_stim/white_00519_940519_fb_edt.bmp'><br><font class='baseline'><strong>Jonathan</strong><p>Choose number of points to send.</font><div class='respPicDiv'><img src='img/responseButtonOffersNo0L5.png' class='respPic'></div></div>","null","2","Jonathan","11","Shared","0.8,0.35","10","0.8","trustrating_stim/white_00519_940519_fb_edt.bmp","5","15","5"
"html-keyboard-response","151","180206","0.0-19.0-3.4","59aae1188cef7d00011f8884","bdp_trlrn","Tue Mar 14 2023 21:32:02 GMT-0400 (Eastern Daylight Time)","449118","Untrustworthy,Trustworthy","","null","","","","feedback","","<div class='trialDiv'><img src='trustrating_stim/white_00519_940519_fb_edt.bmp'><br><font class='baseline'><strong>Jonathan</strong><p>Received: <strong>20</strong></font> &nbsp; &nbsp; &nbsp; &nbsp; &nbsp; &nbsp;<font class='posOutcome'>Shared back: <strong>10</strong></font></font><div class='respPicDiv'><img src='img/responseButtonOffersNo0_wht.png' class='respPic'></div></div>","null","2","Jonathan","11","Shared","0.8,0.35","10","0.8","trustrating_stim/white_00519_940519_fb_edt.bmp","5","25","5"
"html-keyboard-response","152","180956","0.0-19.0-1.5","59aae1188cef7d00011f8884","bdp_trlrn","Tue Mar 14 2023 21:32:02 GMT-0400 (Eastern Daylight Time)","449118","Untrustworthy,Trustworthy","","748","","","","decision","","<div class='trialDiv'><img src='trustrating_stim/white_mw089.bmp'><br><font class='baseline'><strong>Aaron</strong><p>Choose number of points to send.</font><div class='respPicDiv'><img src='img/responseButtonOffersNo0L.png' class='respPic'></div></div>","1","2","Aaron","5","Kept","0.2,0.8","9","0.2","trustrating_stim/white_mw089.bmp","5","30","6"
"html-keyboard-response","153","181206","0.0-19.0-2.5","59aae1188cef7d00011f8884","bdp_trlrn","Tue Mar 14 2023 21:32:02 GMT-0400 (Eastern Daylight Time)","449118","Untrustworthy,Trustworthy","","null","","","","decisionFB","","<div class='trialDiv'><img src='trustrating_stim/white_mw089.bmp'><br><font class='baseline'><strong>Aaron</strong><p>Choose number of points to send.</font><div class='respPicDiv'><img src='img/responseButtonOffersNo0L1.png' class='respPic'></div></div>","null","2","Aaron","5","Kept","0.2,0.8","9","0.2","trustrating_stim/white_mw089.bmp","5","29","6"
"html-keyboard-response","154","182208","0.0-19.0-3.5","59aae1188cef7d00011f8884","bdp_trlrn","Tue Mar 14 2023 21:32:02 GMT-0400 (Eastern Daylight Time)","449118","Untrustworthy,Trustworthy","","null","","","","feedback","","<div class='trialDiv'><img src='trustrating_stim/white_mw089.bmp'><br><font class='baseline'><strong>Aaron</strong><p>Received: <strong>4</strong></font> &nbsp; &nbsp; &nbsp; &nbsp; &nbsp; &nbsp;<font class='negOutcome'>Shared back: <strong>0</strong></font></font><div class='respPicDiv'><img src='img/responseButtonOffersNo0_wht.png' class='respPic'></div></div>","null","2","Aaron","5","Kept","0.2,0.8","9","0.2","trustrating_stim/white_mw089.bmp","5","29","6"
"html-keyboard-response","155","182676","0.0-19.0-1.6","59aae1188cef7d00011f8884","bdp_trlrn","Tue Mar 14 2023 21:32:02 GMT-0400 (Eastern Daylight Time)","449118","Untrustworthy,Trustworthy","","467","","","","decision","","<div class='trialDiv'><img src='trustrating_stim/white_00519_940519_fb_edt.bmp'><br><font class='baseline'><strong>Jonathan</strong><p>Choose number of points to send.</font><div class='respPicDiv'><img src='img/responseButtonOffersNo0L.png' class='respPic'></div></div>","5","3","Jonathan","11","Shared","0.8,0.35","10","0.8","trustrating_stim/white_00519_940519_fb_edt.bmp","5","34","7"
"html-keyboard-response","156","182927","0.0-19.0-2.6","59aae1188cef7d00011f8884","bdp_trlrn","Tue Mar 14 2023 21:32:02 GMT-0400 (Eastern Daylight Time)","449118","Untrustworthy,Trustworthy","","null","","","","decisionFB","","<div class='trialDiv'><img src='trustrating_stim/white_00519_940519_fb_edt.bmp'><br><font class='baseline'><strong>Jonathan</strong><p>Choose number of points to send.</font><div class='respPicDiv'><img src='img/responseButtonOffersNo0L5.png' class='respPic'></div></div>","null","3","Jonathan","11","Shared","0.8,0.35","10","0.8","trustrating_stim/white_00519_940519_fb_edt.bmp","5","29","7"
"html-keyboard-response","157","183929","0.0-19.0-3.6","59aae1188cef7d00011f8884","bdp_trlrn","Tue Mar 14 2023 21:32:02 GMT-0400 (Eastern Daylight Time)","449118","Untrustworthy,Trustworthy","","null","","","","feedback","","<div class='trialDiv'><img src='trustrating_stim/white_00519_940519_fb_edt.bmp'><br><font class='baseline'><strong>Jonathan</strong><p>Received: <strong>20</strong></font> &nbsp; &nbsp; &nbsp; &nbsp; &nbsp; &nbsp;<font class='posOutcome'>Shared back: <strong>10</strong></font></font><div class='respPicDiv'><img src='img/responseButtonOffersNo0_wht.png' class='respPic'></div></div>","null","3","Jonathan","11","Shared","0.8,0.35","10","0.8","trustrating_stim/white_00519_940519_fb_edt.bmp","5","39","7"
"html-keyboard-response","158","184346","0.0-19.0-1.7","59aae1188cef7d00011f8884","bdp_trlrn","Tue Mar 14 2023 21:32:02 GMT-0400 (Eastern Daylight Time)","449118","Untrustworthy,Trustworthy","","416","","","","decision","","<div class='trialDiv'><img src='trustrating_stim/white_00761_941201_fb_edt.bmp'><br><font class='baseline'><strong>David</strong><p>Choose number of points to send.</font><div class='respPicDiv'><img src='img/responseButtonOffersNo0L.png' class='respPic'></div></div>","1","3","David","1","Shared","0.35,0.8","10","0.35","trustrating_stim/white_00761_941201_fb_edt.bmp","2.5","44","8"
"html-keyboard-response","159","184598","0.0-19.0-2.7","59aae1188cef7d00011f8884","bdp_trlrn","Tue Mar 14 2023 21:32:02 GMT-0400 (Eastern Daylight Time)","449118","Untrustworthy,Trustworthy","","null","","","","decisionFB","","<div class='trialDiv'><img src='trustrating_stim/white_00761_941201_fb_edt.bmp'><br><font class='baseline'><strong>David</strong><p>Choose number of points to send.</font><div class='respPicDiv'><img src='img/responseButtonOffersNo0L1.png' class='respPic'></div></div>","null","3","David","1","Shared","0.35,0.8","10","0.35","trustrating_stim/white_00761_941201_fb_edt.bmp","2.5","43","8"
"html-keyboard-response","160","185600","0.0-19.0-3.7","59aae1188cef7d00011f8884","bdp_trlrn","Tue Mar 14 2023 21:32:02 GMT-0400 (Eastern Daylight Time)","449118","Untrustworthy,Trustworthy","","null","","","","feedback","","<div class='trialDiv'><img src='trustrating_stim/white_00761_941201_fb_edt.bmp'><br><font class='baseline'><strong>David</strong><p>Received: <strong>4</strong></font> &nbsp; &nbsp; &nbsp; &nbsp; &nbsp; &nbsp;<font class='posOutcome'>Shared back: <strong>2</strong></font></font><div class='respPicDiv'><img src='img/responseButtonOffersNo0_wht.png' class='respPic'></div></div>","null","3","David","1","Shared","0.35,0.8","10","0.35","trustrating_stim/white_00761_941201_fb_edt.bmp","2.5","45","8"
"html-keyboard-response","161","186222","0.0-19.0-1.8","59aae1188cef7d00011f8884","bdp_trlrn","Tue Mar 14 2023 21:32:02 GMT-0400 (Eastern Daylight Time)","449118","Untrustworthy,Trustworthy","","621","","","","decision","","<div class='trialDiv'><img src='trustrating_stim/white_mw089.bmp'><br><font class='baseline'><strong>Aaron</strong><p>Choose number of points to send.</font><div class='respPicDiv'><img src='img/responseButtonOffersNo0L.png' class='respPic'></div></div>","2","3","Aaron","5","Kept","0.2,0.8","9","0.2","trustrating_stim/white_mw089.bmp","5","50","9"
"html-keyboard-response","162","186473","0.0-19.0-2.8","59aae1188cef7d00011f8884","bdp_trlrn","Tue Mar 14 2023 21:32:02 GMT-0400 (Eastern Daylight Time)","449118","Untrustworthy,Trustworthy","","null","","","","decisionFB","","<div class='trialDiv'><img src='trustrating_stim/white_mw089.bmp'><br><font class='baseline'><strong>Aaron</strong><p>Choose number of points to send.</font><div class='respPicDiv'><img src='img/responseButtonOffersNo0L2.png' class='respPic'></div></div>","null","3","Aaron","5","Kept","0.2,0.8","9","0.2","trustrating_stim/white_mw089.bmp","5","48","9"
"html-keyboard-response","163","187484","0.0-19.0-3.8","59aae1188cef7d00011f8884","bdp_trlrn","Tue Mar 14 2023 21:32:02 GMT-0400 (Eastern Daylight Time)","449118","Untrustworthy,Trustworthy","","null","","","","feedback","","<div class='trialDiv'><img src='trustrating_stim/white_mw089.bmp'><br><font class='baseline'><strong>Aaron</strong><p>Received: <strong>8</strong></font> &nbsp; &nbsp; &nbsp; &nbsp; &nbsp; &nbsp;<font class='negOutcome'>Shared back: <strong>0</strong></font></font><div class='respPicDiv'><img src='img/responseButtonOffersNo0_wht.png' class='respPic'></div></div>","null","3","Aaron","5","Kept","0.2,0.8","9","0.2","trustrating_stim/white_mw089.bmp","5","48","9"
"html-keyboard-response","164","188555","0.0-19.0-1.9","59aae1188cef7d00011f8884","bdp_trlrn","Tue Mar 14 2023 21:32:02 GMT-0400 (Eastern Daylight Time)","449118","Untrustworthy,Trustworthy","","1070","","","","decision","","<div class='trialDiv'><img src='trustrating_stim/white_00761_941201_fb_edt.bmp'><br><font class='baseline'><strong>David</strong><p>Choose number of points to send.</font><div class='respPicDiv'><img src='img/responseButtonOffersNo0L.png' class='respPic'></div></div>","3","4","David","1","Kept","0.35,0.8","10","0.35","trustrating_stim/white_00761_941201_fb_edt.bmp","2.5","53","10"
"html-keyboard-response","165","188806","0.0-19.0-2.9","59aae1188cef7d00011f8884","bdp_trlrn","Tue Mar 14 2023 21:32:02 GMT-0400 (Eastern Daylight Time)","449118","Untrustworthy,Trustworthy","","null","","","","decisionFB","","<div class='trialDiv'><img src='trustrating_stim/white_00761_941201_fb_edt.bmp'><br><font class='baseline'><strong>David</strong><p>Choose number of points to send.</font><div class='respPicDiv'><img src='img/responseButtonOffersNo0L3.png' class='respPic'></div></div>","null","4","David","1","Kept","0.35,0.8","10","0.35","trustrating_stim/white_00761_941201_fb_edt.bmp","2.5","50","10"
"html-keyboard-response","166","189807","0.0-19.0-3.9","59aae1188cef7d00011f8884","bdp_trlrn","Tue Mar 14 2023 21:32:02 GMT-0400 (Eastern Daylight Time)","449118","Untrustworthy,Trustworthy","","null","","","","feedback","","<div class='trialDiv'><img src='trustrating_stim/white_00761_941201_fb_edt.bmp'><br><font class='baseline'><strong>David</strong><p>Received: <strong>12</strong></font> &nbsp; &nbsp; &nbsp; &nbsp; &nbsp; &nbsp;<font class='negOutcome'>Shared back: <strong>0</strong></font></font><div class='respPicDiv'><img src='img/responseButtonOffersNo0_wht.png' class='respPic'></div></div>","null","4","David","1","Kept","0.35,0.8","10","0.35","trustrating_stim/white_00761_941201_fb_edt.bmp","2.5","50","10"
"html-keyboard-response","167","190957","0.0-19.0-1.10","59aae1188cef7d00011f8884","bdp_trlrn","Tue Mar 14 2023 21:32:02 GMT-0400 (Eastern Daylight Time)","449118","Untrustworthy,Trustworthy","","1149","","","","decision","","<div class='trialDiv'><img src='trustrating_stim/white_mw089.bmp'><br><font class='baseline'><strong>Aaron</strong><p>Choose number of points to send.</font><div class='respPicDiv'><img src='img/responseButtonOffersNo0L.png' class='respPic'></div></div>","1","4","Aaron","5","Kept","0.2,0.8","9","0.2","trustrating_stim/white_mw089.bmp","5","55","11"
"html-keyboard-response","168","191208","0.0-19.0-2.10","59aae1188cef7d00011f8884","bdp_trlrn","Tue Mar 14 2023 21:32:02 GMT-0400 (Eastern Daylight Time)","449118","Untrustworthy,Trustworthy","","null","","","","decisionFB","","<div class='trialDiv'><img src='trustrating_stim/white_mw089.bmp'><br><font class='baseline'><strong>Aaron</strong><p>Choose number of points to send.</font><div class='respPicDiv'><img src='img/responseButtonOffersNo0L1.png' class='respPic'></div></div>","null","4","Aaron","5","Kept","0.2,0.8","9","0.2","trustrating_stim/white_mw089.bmp","5","54","11"
"html-keyboard-response","169","192209","0.0-19.0-3.10","59aae1188cef7d00011f8884","bdp_trlrn","Tue Mar 14 2023 21:32:02 GMT-0400 (Eastern Daylight Time)","449118","Untrustworthy,Trustworthy","","null","","","","feedback","","<div class='trialDiv'><img src='trustrating_stim/white_mw089.bmp'><br><font class='baseline'><strong>Aaron</strong><p>Received: <strong>4</strong></font> &nbsp; &nbsp; &nbsp; &nbsp; &nbsp; &nbsp;<font class='negOutcome'>Shared back: <strong>0</strong></font></font><div class='respPicDiv'><img src='img/responseButtonOffersNo0_wht.png' class='respPic'></div></div>","null","4","Aaron","5","Kept","0.2,0.8","9","0.2","trustrating_stim/white_mw089.bmp","5","54","11"
"html-keyboard-response","170","192732","0.0-19.0-1.11","59aae1188cef7d00011f8884","bdp_trlrn","Tue Mar 14 2023 21:32:02 GMT-0400 (Eastern Daylight Time)","449118","Untrustworthy,Trustworthy","","522","","","","decision","","<div class='trialDiv'><img src='trustrating_stim/white_00519_940519_fb_edt.bmp'><br><font class='baseline'><strong>Jonathan</strong><p>Choose number of points to send.</font><div class='respPicDiv'><img src='img/responseButtonOffersNo0L.png' class='respPic'></div></div>","5","4","Jonathan","11","Shared","0.8,0.35","10","0.8","trustrating_stim/white_00519_940519_fb_edt.bmp","5","59","12"
"html-keyboard-response","171","192983","0.0-19.0-2.11","59aae1188cef7d00011f8884","bdp_trlrn","Tue Mar 14 2023 21:32:02 GMT-0400 (Eastern Daylight Time)","449118","Untrustworthy,Trustworthy","","null","","","","decisionFB","","<div class='trialDiv'><img src='trustrating_stim/white_00519_940519_fb_edt.bmp'><br><font class='baseline'><strong>Jonathan</strong><p>Choose number of points to send.</font><div class='respPicDiv'><img src='img/responseButtonOffersNo0L5.png' class='respPic'></div></div>","null","4","Jonathan","11","Shared","0.8,0.35","10","0.8","trustrating_stim/white_00519_940519_fb_edt.bmp","5","54","12"
"html-keyboard-response","172","193985","0.0-19.0-3.11","59aae1188cef7d00011f8884","bdp_trlrn","Tue Mar 14 2023 21:32:02 GMT-0400 (Eastern Daylight Time)","449118","Untrustworthy,Trustworthy","","null","","","","feedback","","<div class='trialDiv'><img src='trustrating_stim/white_00519_940519_fb_edt.bmp'><br><font class='baseline'><strong>Jonathan</strong><p>Received: <strong>20</strong></font> &nbsp; &nbsp; &nbsp; &nbsp; &nbsp; &nbsp;<font class='posOutcome'>Shared back: <strong>10</strong></font></font><div class='respPicDiv'><img src='img/responseButtonOffersNo0_wht.png' class='respPic'></div></div>","null","4","Jonathan","11","Shared","0.8,0.35","10","0.8","trustrating_stim/white_00519_940519_fb_edt.bmp","5","64","12"
"html-keyboard-response","173","196112","0.0-19.0-1.12","59aae1188cef7d00011f8884","bdp_trlrn","Tue Mar 14 2023 21:32:02 GMT-0400 (Eastern Daylight Time)","449118","Untrustworthy,Trustworthy","","2125","","","","decision","","<div class='trialDiv'><img src='trustrating_stim/white_mw089.bmp'><br><font class='baseline'><strong>Aaron</strong><p>Choose number of points to send.</font><div class='respPicDiv'><img src='img/responseButtonOffersNo0L.png' class='respPic'></div></div>","1","5","Aaron","5","Kept","0.2,0.8","9","0.2","trustrating_stim/white_mw089.bmp","5","69","13"
"html-keyboard-response","174","196363","0.0-19.0-2.12","59aae1188cef7d00011f8884","bdp_trlrn","Tue Mar 14 2023 21:32:02 GMT-0400 (Eastern Daylight Time)","449118","Untrustworthy,Trustworthy","","null","","","","decisionFB","","<div class='trialDiv'><img src='trustrating_stim/white_mw089.bmp'><br><font class='baseline'><strong>Aaron</strong><p>Choose number of points to send.</font><div class='respPicDiv'><img src='img/responseButtonOffersNo0L1.png' class='respPic'></div></div>","null","5","Aaron","5","Kept","0.2,0.8","9","0.2","trustrating_stim/white_mw089.bmp","5","68","13"
"html-keyboard-response","175","197365","0.0-19.0-3.12","59aae1188cef7d00011f8884","bdp_trlrn","Tue Mar 14 2023 21:32:02 GMT-0400 (Eastern Daylight Time)","449118","Untrustworthy,Trustworthy","","null","","","","feedback","","<div class='trialDiv'><img src='trustrating_stim/white_mw089.bmp'><br><font class='baseline'><strong>Aaron</strong><p>Received: <strong>4</strong></font> &nbsp; &nbsp; &nbsp; &nbsp; &nbsp; &nbsp;<font class='negOutcome'>Shared back: <strong>0</strong></font></font><div class='respPicDiv'><img src='img/responseButtonOffersNo0_wht.png' class='respPic'></div></div>","null","5","Aaron","5","Kept","0.2,0.8","9","0.2","trustrating_stim/white_mw089.bmp","5","68","13"
"html-keyboard-response","176","198794","0.0-19.0-1.13","59aae1188cef7d00011f8884","bdp_trlrn","Tue Mar 14 2023 21:32:02 GMT-0400 (Eastern Daylight Time)","449118","Untrustworthy,Trustworthy","","1428","","","","decision","","<div class='trialDiv'><img src='trustrating_stim/white_00519_940519_fb_edt.bmp'><br><font class='baseline'><strong>Jonathan</strong><p>Choose number of points to send.</font><div class='respPicDiv'><img src='img/responseButtonOffersNo0L.png' class='respPic'></div></div>","5","5","Jonathan","11","Shared","0.8,0.35","10","0.8","trustrating_stim/white_00519_940519_fb_edt.bmp","5","73","14"
"html-keyboard-response","177","199046","0.0-19.0-2.13","59aae1188cef7d00011f8884","bdp_trlrn","Tue Mar 14 2023 21:32:02 GMT-0400 (Eastern Daylight Time)","449118","Untrustworthy,Trustworthy","","null","","","","decisionFB","","<div class='trialDiv'><img src='trustrating_stim/white_00519_940519_fb_edt.bmp'><br><font class='baseline'><strong>Jonathan</strong><p>Choose number of points to send.</font><div class='respPicDiv'><img src='img/responseButtonOffersNo0L5.png' class='respPic'></div></div>","null","5","Jonathan","11","Shared","0.8,0.35","10","0.8","trustrating_stim/white_00519_940519_fb_edt.bmp","5","68","14"
"html-keyboard-response","178","200047","0.0-19.0-3.13","59aae1188cef7d00011f8884","bdp_trlrn","Tue Mar 14 2023 21:32:02 GMT-0400 (Eastern Daylight Time)","449118","Untrustworthy,Trustworthy","","null","","","","feedback","","<div class='trialDiv'><img src='trustrating_stim/white_00519_940519_fb_edt.bmp'><br><font class='baseline'><strong>Jonathan</strong><p>Received: <strong>20</strong></font> &nbsp; &nbsp; &nbsp; &nbsp; &nbsp; &nbsp;<font class='posOutcome'>Shared back: <strong>10</strong></font></font><div class='respPicDiv'><img src='img/responseButtonOffersNo0_wht.png' class='respPic'></div></div>","null","5","Jonathan","11","Shared","0.8,0.35","10","0.8","trustrating_stim/white_00519_940519_fb_edt.bmp","5","78","14"
"html-keyboard-response","179","203465","0.0-19.0-1.14","59aae1188cef7d00011f8884","bdp_trlrn","Tue Mar 14 2023 21:32:02 GMT-0400 (Eastern Daylight Time)","449118","Untrustworthy,Trustworthy","","3418","","","","decision","","<div class='trialDiv'><img src='trustrating_stim/white_00761_941201_fb_edt.bmp'><br><font class='baseline'><strong>David</strong><p>Choose number of points to send.</font><div class='respPicDiv'><img src='img/responseButtonOffersNo0L.png' class='respPic'></div></div>","2","5","David","1","Shared","0.35,0.8","10","0.35","trustrating_stim/white_00761_941201_fb_edt.bmp","2.5","83","15"
"html-keyboard-response","180","203717","0.0-19.0-2.14","59aae1188cef7d00011f8884","bdp_trlrn","Tue Mar 14 2023 21:32:02 GMT-0400 (Eastern Daylight Time)","449118","Untrustworthy,Trustworthy","","null","","","","decisionFB","","<div class='trialDiv'><img src='trustrating_stim/white_00761_941201_fb_edt.bmp'><br><font class='baseline'><strong>David</strong><p>Choose number of points to send.</font><div class='respPicDiv'><img src='img/responseButtonOffersNo0L2.png' class='respPic'></div></div>","null","5","David","1","Shared","0.35,0.8","10","0.35","trustrating_stim/white_00761_941201_fb_edt.bmp","2.5","81","15"
"html-keyboard-response","181","204719","0.0-19.0-3.14","59aae1188cef7d00011f8884","bdp_trlrn","Tue Mar 14 2023 21:32:02 GMT-0400 (Eastern Daylight Time)","449118","Untrustworthy,Trustworthy","","null","","","","feedback","","<div class='trialDiv'><img src='trustrating_stim/white_00761_941201_fb_edt.bmp'><br><font class='baseline'><strong>David</strong><p>Received: <strong>8</strong></font> &nbsp; &nbsp; &nbsp; &nbsp; &nbsp; &nbsp;<font class='posOutcome'>Shared back: <strong>4</strong></font></font><div class='respPicDiv'><img src='img/responseButtonOffersNo0_wht.png' class='respPic'></div></div>","null","5","David","1","Shared","0.35,0.8","10","0.35","trustrating_stim/white_00761_941201_fb_edt.bmp","2.5","85","15"
"html-keyboard-response","182","205492","0.0-19.0-1.15","59aae1188cef7d00011f8884","bdp_trlrn","Tue Mar 14 2023 21:32:02 GMT-0400 (Eastern Daylight Time)","449118","Untrustworthy,Trustworthy","","773","","","","decision","","<div class='trialDiv'><img src='trustrating_stim/white_00519_940519_fb_edt.bmp'><br><font class='baseline'><strong>Jonathan</strong><p>Choose number of points to send.</font><div class='respPicDiv'><img src='img/responseButtonOffersNo0L.png' class='respPic'></div></div>","5","6","Jonathan","11","Shared","0.8,0.35","10","0.8","trustrating_stim/white_00519_940519_fb_edt.bmp","5","90","16"
"html-keyboard-response","183","205744","0.0-19.0-2.15","59aae1188cef7d00011f8884","bdp_trlrn","Tue Mar 14 2023 21:32:02 GMT-0400 (Eastern Daylight Time)","449118","Untrustworthy,Trustworthy","","null","","","","decisionFB","","<div class='trialDiv'><img src='trustrating_stim/white_00519_940519_fb_edt.bmp'><br><font class='baseline'><strong>Jonathan</strong><p>Choose number of points to send.</font><div class='respPicDiv'><img src='img/responseButtonOffersNo0L5.png' class='respPic'></div></div>","null","6","Jonathan","11","Shared","0.8,0.35","10","0.8","trustrating_stim/white_00519_940519_fb_edt.bmp","5","85","16"
"html-keyboard-response","184","206746","0.0-19.0-3.15","59aae1188cef7d00011f8884","bdp_trlrn","Tue Mar 14 2023 21:32:02 GMT-0400 (Eastern Daylight Time)","449118","Untrustworthy,Trustworthy","","null","","","","feedback","","<div class='trialDiv'><img src='trustrating_stim/white_00519_940519_fb_edt.bmp'><br><font class='baseline'><strong>Jonathan</strong><p>Received: <strong>20</strong></font> &nbsp; &nbsp; &nbsp; &nbsp; &nbsp; &nbsp;<font class='posOutcome'>Shared back: <strong>10</strong></font></font><div class='respPicDiv'><img src='img/responseButtonOffersNo0_wht.png' class='respPic'></div></div>","null","6","Jonathan","11","Shared","0.8,0.35","10","0.8","trustrating_stim/white_00519_940519_fb_edt.bmp","5","95","16"
"html-keyboard-response","185","207698","0.0-19.0-1.16","59aae1188cef7d00011f8884","bdp_trlrn","Tue Mar 14 2023 21:32:02 GMT-0400 (Eastern Daylight Time)","449118","Untrustworthy,Trustworthy","","951","","","","decision","","<div class='trialDiv'><img src='trustrating_stim/white_mw089.bmp'><br><font class='baseline'><strong>Aaron</strong><p>Choose number of points to send.</font><div class='respPicDiv'><img src='img/responseButtonOffersNo0L.png' class='respPic'></div></div>","1","6","Aaron","5","Kept","0.2,0.8","9","0.2","trustrating_stim/white_mw089.bmp","5","100","17"
"html-keyboard-response","186","207949","0.0-19.0-2.16","59aae1188cef7d00011f8884","bdp_trlrn","Tue Mar 14 2023 21:32:02 GMT-0400 (Eastern Daylight Time)","449118","Untrustworthy,Trustworthy","","null","","","","decisionFB","","<div class='trialDiv'><img src='trustrating_stim/white_mw089.bmp'><br><font class='baseline'><strong>Aaron</strong><p>Choose number of points to send.</font><div class='respPicDiv'><img src='img/responseButtonOffersNo0L1.png' class='respPic'></div></div>","null","6","Aaron","5","Kept","0.2,0.8","9","0.2","trustrating_stim/white_mw089.bmp","5","99","17"
"html-keyboard-response","187","208951","0.0-19.0-3.16","59aae1188cef7d00011f8884","bdp_trlrn","Tue Mar 14 2023 21:32:02 GMT-0400 (Eastern Daylight Time)","449118","Untrustworthy,Trustworthy","","null","","","","feedback","","<div class='trialDiv'><img src='trustrating_stim/white_mw089.bmp'><br><font class='baseline'><strong>Aaron</strong><p>Received: <strong>4</strong></font> &nbsp; &nbsp; &nbsp; &nbsp; &nbsp; &nbsp;<font class='negOutcome'>Shared back: <strong>0</strong></font></font><div class='respPicDiv'><img src='img/responseButtonOffersNo0_wht.png' class='respPic'></div></div>","null","6","Aaron","5","Kept","0.2,0.8","9","0.2","trustrating_stim/white_mw089.bmp","5","99","17"
"html-keyboard-response","188","214743","0.0-19.0-1.17","59aae1188cef7d00011f8884","bdp_trlrn","Tue Mar 14 2023 21:32:02 GMT-0400 (Eastern Daylight Time)","449118","Untrustworthy,Trustworthy","","5791","","","","decision","","<div class='trialDiv'><img src='trustrating_stim/white_00761_941201_fb_edt.bmp'><br><font class='baseline'><strong>David</strong><p>Choose number of points to send.</font><div class='respPicDiv'><img src='img/responseButtonOffersNo0L.png' class='respPic'></div></div>","1","6","David","1","Kept","0.35,0.8","10","0.35","trustrating_stim/white_00761_941201_fb_edt.bmp","2.5","104","18"
"html-keyboard-response","189","214994","0.0-19.0-2.17","59aae1188cef7d00011f8884","bdp_trlrn","Tue Mar 14 2023 21:32:02 GMT-0400 (Eastern Daylight Time)","449118","Untrustworthy,Trustworthy","","null","","","","decisionFB","","<div class='trialDiv'><img src='trustrating_stim/white_00761_941201_fb_edt.bmp'><br><font class='baseline'><strong>David</strong><p>Choose number of points to send.</font><div class='respPicDiv'><img src='img/responseButtonOffersNo0L1.png' class='respPic'></div></div>","null","6","David","1","Kept","0.35,0.8","10","0.35","trustrating_stim/white_00761_941201_fb_edt.bmp","2.5","103","18"
"html-keyboard-response","190","215996","0.0-19.0-3.17","59aae1188cef7d00011f8884","bdp_trlrn","Tue Mar 14 2023 21:32:02 GMT-0400 (Eastern Daylight Time)","449118","Untrustworthy,Trustworthy","","null","","","","feedback","","<div class='trialDiv'><img src='trustrating_stim/white_00761_941201_fb_edt.bmp'><br><font class='baseline'><strong>David</strong><p>Received: <strong>4</strong></font> &nbsp; &nbsp; &nbsp; &nbsp; &nbsp; &nbsp;<font class='negOutcome'>Shared back: <strong>0</strong></font></font><div class='respPicDiv'><img src='img/responseButtonOffersNo0_wht.png' class='respPic'></div></div>","null","6","David","1","Kept","0.35,0.8","10","0.35","trustrating_stim/white_00761_941201_fb_edt.bmp","2.5","103","18"
"html-keyboard-response","191","216333","0.0-19.0-1.18","59aae1188cef7d00011f8884","bdp_trlrn","Tue Mar 14 2023 21:32:02 GMT-0400 (Eastern Daylight Time)","449118","Untrustworthy,Trustworthy","","337","","","","decision","","<div class='trialDiv'><img src='trustrating_stim/white_00519_940519_fb_edt.bmp'><br><font class='baseline'><strong>Jonathan</strong><p>Choose number of points to send.</font><div class='respPicDiv'><img src='img/responseButtonOffersNo0L.png' class='respPic'></div></div>","5","7","Jonathan","11","Shared","0.8,0.35","10","0.8","trustrating_stim/white_00519_940519_fb_edt.bmp","5","108","19"
"html-keyboard-response","192","216584","0.0-19.0-2.18","59aae1188cef7d00011f8884","bdp_trlrn","Tue Mar 14 2023 21:32:02 GMT-0400 (Eastern Daylight Time)","449118","Untrustworthy,Trustworthy","","null","","","","decisionFB","","<div class='trialDiv'><img src='trustrating_stim/white_00519_940519_fb_edt.bmp'><br><font class='baseline'><strong>Jonathan</strong><p>Choose number of points to send.</font><div class='respPicDiv'><img src='img/responseButtonOffersNo0L5.png' class='respPic'></div></div>","null","7","Jonathan","11","Shared","0.8,0.35","10","0.8","trustrating_stim/white_00519_940519_fb_edt.bmp","5","103","19"
"html-keyboard-response","193","217586","0.0-19.0-3.18","59aae1188cef7d00011f8884","bdp_trlrn","Tue Mar 14 2023 21:32:02 GMT-0400 (Eastern Daylight Time)","449118","Untrustworthy,Trustworthy","","null","","","","feedback","","<div class='trialDiv'><img src='trustrating_stim/white_00519_940519_fb_edt.bmp'><br><font class='baseline'><strong>Jonathan</strong><p>Received: <strong>20</strong></font> &nbsp; &nbsp; &nbsp; &nbsp; &nbsp; &nbsp;<font class='posOutcome'>Shared back: <strong>10</strong></font></font><div class='respPicDiv'><img src='img/responseButtonOffersNo0_wht.png' class='respPic'></div></div>","null","7","Jonathan","11","Shared","0.8,0.35","10","0.8","trustrating_stim/white_00519_940519_fb_edt.bmp","5","113","19"
"html-keyboard-response","194","218459","0.0-19.0-1.19","59aae1188cef7d00011f8884","bdp_trlrn","Tue Mar 14 2023 21:32:02 GMT-0400 (Eastern Daylight Time)","449118","Untrustworthy,Trustworthy","","873","","","","decision","","<div class='trialDiv'><img src='trustrating_stim/white_mw089.bmp'><br><font class='baseline'><strong>Aaron</strong><p>Choose number of points to send.</font><div class='respPicDiv'><img src='img/responseButtonOffersNo0L.png' class='respPic'></div></div>","1","7","Aaron","5","Kept","0.2,0.8","9","0.2","trustrating_stim/white_mw089.bmp","5","118","20"
"html-keyboard-response","195","218710","0.0-19.0-2.19","59aae1188cef7d00011f8884","bdp_trlrn","Tue Mar 14 2023 21:32:02 GMT-0400 (Eastern Daylight Time)","449118","Untrustworthy,Trustworthy","","null","","","","decisionFB","","<div class='trialDiv'><img src='trustrating_stim/white_mw089.bmp'><br><font class='baseline'><strong>Aaron</strong><p>Choose number of points to send.</font><div class='respPicDiv'><img src='img/responseButtonOffersNo0L1.png' class='respPic'></div></div>","null","7","Aaron","5","Kept","0.2,0.8","9","0.2","trustrating_stim/white_mw089.bmp","5","117","20"
"html-keyboard-response","196","219712","0.0-19.0-3.19","59aae1188cef7d00011f8884","bdp_trlrn","Tue Mar 14 2023 21:32:02 GMT-0400 (Eastern Daylight Time)","449118","Untrustworthy,Trustworthy","","null","","","","feedback","","<div class='trialDiv'><img src='trustrating_stim/white_mw089.bmp'><br><font class='baseline'><strong>Aaron</strong><p>Received: <strong>4</strong></font> &nbsp; &nbsp; &nbsp; &nbsp; &nbsp; &nbsp;<font class='negOutcome'>Shared back: <strong>0</strong></font></font><div class='respPicDiv'><img src='img/responseButtonOffersNo0_wht.png' class='respPic'></div></div>","null","7","Aaron","5","Kept","0.2,0.8","9","0.2","trustrating_stim/white_mw089.bmp","5","117","20"
"html-keyboard-response","197","220451","0.0-19.0-1.20","59aae1188cef7d00011f8884","bdp_trlrn","Tue Mar 14 2023 21:32:02 GMT-0400 (Eastern Daylight Time)","449118","Untrustworthy,Trustworthy","","737","","","","decision","","<div class='trialDiv'><img src='trustrating_stim/white_00761_941201_fb_edt.bmp'><br><font class='baseline'><strong>David</strong><p>Choose number of points to send.</font><div class='respPicDiv'><img src='img/responseButtonOffersNo0L.png' class='respPic'></div></div>","1","7","David","1","Kept","0.35,0.8","10","0.35","trustrating_stim/white_00761_941201_fb_edt.bmp","2.5","122","21"
"html-keyboard-response","198","220701","0.0-19.0-2.20","59aae1188cef7d00011f8884","bdp_trlrn","Tue Mar 14 2023 21:32:02 GMT-0400 (Eastern Daylight Time)","449118","Untrustworthy,Trustworthy","","null","","","","decisionFB","","<div class='trialDiv'><img src='trustrating_stim/white_00761_941201_fb_edt.bmp'><br><font class='baseline'><strong>David</strong><p>Choose number of points to send.</font><div class='respPicDiv'><img src='img/responseButtonOffersNo0L1.png' class='respPic'></div></div>","null","7","David","1","Kept","0.35,0.8","10","0.35","trustrating_stim/white_00761_941201_fb_edt.bmp","2.5","121","21"
"html-keyboard-response","199","221703","0.0-19.0-3.20","59aae1188cef7d00011f8884","bdp_trlrn","Tue Mar 14 2023 21:32:02 GMT-0400 (Eastern Daylight Time)","449118","Untrustworthy,Trustworthy","","null","","","","feedback","","<div class='trialDiv'><img src='trustrating_stim/white_00761_941201_fb_edt.bmp'><br><font class='baseline'><strong>David</strong><p>Received: <strong>4</strong></font> &nbsp; &nbsp; &nbsp; &nbsp; &nbsp; &nbsp;<font class='negOutcome'>Shared back: <strong>0</strong></font></font><div class='respPicDiv'><img src='img/responseButtonOffersNo0_wht.png' class='respPic'></div></div>","null","7","David","1","Kept","0.35,0.8","10","0.35","trustrating_stim/white_00761_941201_fb_edt.bmp","2.5","121","21"
"html-keyboard-response","200","221963","0.0-19.0-1.21","59aae1188cef7d00011f8884","bdp_trlrn","Tue Mar 14 2023 21:32:02 GMT-0400 (Eastern Daylight Time)","449118","Untrustworthy,Trustworthy","","258","","","","decision","","<div class='trialDiv'><img src='trustrating_stim/white_00519_940519_fb_edt.bmp'><br><font class='baseline'><strong>Jonathan</strong><p>Choose number of points to send.</font><div class='respPicDiv'><img src='img/responseButtonOffersNo0L.png' class='respPic'></div></div>","5","8","Jonathan","11","Shared","0.8,0.35","10","0.8","trustrating_stim/white_00519_940519_fb_edt.bmp","5","126","22"
"html-keyboard-response","201","222214","0.0-19.0-2.21","59aae1188cef7d00011f8884","bdp_trlrn","Tue Mar 14 2023 21:32:02 GMT-0400 (Eastern Daylight Time)","449118","Untrustworthy,Trustworthy","","null","","","","decisionFB","","<div class='trialDiv'><img src='trustrating_stim/white_00519_940519_fb_edt.bmp'><br><font class='baseline'><strong>Jonathan</strong><p>Choose number of points to send.</font><div class='respPicDiv'><img src='img/responseButtonOffersNo0L5.png' class='respPic'></div></div>","null","8","Jonathan","11","Shared","0.8,0.35","10","0.8","trustrating_stim/white_00519_940519_fb_edt.bmp","5","121","22"
"html-keyboard-response","202","223216","0.0-19.0-3.21","59aae1188cef7d00011f8884","bdp_trlrn","Tue Mar 14 2023 21:32:02 GMT-0400 (Eastern Daylight Time)","449118","Untrustworthy,Trustworthy","","null","","","","feedback","","<div class='trialDiv'><img src='trustrating_stim/white_00519_940519_fb_edt.bmp'><br><font class='baseline'><strong>Jonathan</strong><p>Received: <strong>20</strong></font> &nbsp; &nbsp; &nbsp; &nbsp; &nbsp; &nbsp;<font class='posOutcome'>Shared back: <strong>10</strong></font></font><div class='respPicDiv'><img src='img/responseButtonOffersNo0_wht.png' class='respPic'></div></div>","null","8","Jonathan","11","Shared","0.8,0.35","10","0.8","trustrating_stim/white_00519_940519_fb_edt.bmp","5","131","22"
"html-keyboard-response","203","223860","0.0-19.0-1.22","59aae1188cef7d00011f8884","bdp_trlrn","Tue Mar 14 2023 21:32:02 GMT-0400 (Eastern Daylight Time)","449118","Untrustworthy,Trustworthy","","643","","","","decision","","<div class='trialDiv'><img src='trustrating_stim/white_00761_941201_fb_edt.bmp'><br><font class='baseline'><strong>David</strong><p>Choose number of points to send.</font><div class='respPicDiv'><img src='img/responseButtonOffersNo0L.png' class='respPic'></div></div>","1","8","David","1","Shared","0.35,0.8","10","0.35","trustrating_stim/white_00761_941201_fb_edt.bmp","2.5","136","23"
"html-keyboard-response","204","224111","0.0-19.0-2.22","59aae1188cef7d00011f8884","bdp_trlrn","Tue Mar 14 2023 21:32:02 GMT-0400 (Eastern Daylight Time)","449118","Untrustworthy,Trustworthy","","null","","","","decisionFB","","<div class='trialDiv'><img src='trustrating_stim/white_00761_941201_fb_edt.bmp'><br><font class='baseline'><strong>David</strong><p>Choose number of points to send.</font><div class='respPicDiv'><img src='img/responseButtonOffersNo0L1.png' class='respPic'></div></div>","null","8","David","1","Shared","0.35,0.8","10","0.35","trustrating_stim/white_00761_941201_fb_edt.bmp","2.5","135","23"
"html-keyboard-response","205","225114","0.0-19.0-3.22","59aae1188cef7d00011f8884","bdp_trlrn","Tue Mar 14 2023 21:32:02 GMT-0400 (Eastern Daylight Time)","449118","Untrustworthy,Trustworthy","","null","","","","feedback","","<div class='trialDiv'><img src='trustrating_stim/white_00761_941201_fb_edt.bmp'><br><font class='baseline'><strong>David</strong><p>Received: <strong>4</strong></font> &nbsp; &nbsp; &nbsp; &nbsp; &nbsp; &nbsp;<font class='posOutcome'>Shared back: <strong>2</strong></font></font><div class='respPicDiv'><img src='img/responseButtonOffersNo0_wht.png' class='respPic'></div></div>","null","8","David","1","Shared","0.35,0.8","10","0.35","trustrating_stim/white_00761_941201_fb_edt.bmp","2.5","137","23"
"html-keyboard-response","206","225691","0.0-19.0-1.23","59aae1188cef7d00011f8884","bdp_trlrn","Tue Mar 14 2023 21:32:02 GMT-0400 (Eastern Daylight Time)","449118","Untrustworthy,Trustworthy","","576","","","","decision","","<div class='trialDiv'><img src='trustrating_stim/white_mw089.bmp'><br><font class='baseline'><strong>Aaron</strong><p>Choose number of points to send.</font><div class='respPicDiv'><img src='img/responseButtonOffersNo0L.png' class='respPic'></div></div>","1","8","Aaron","5","Shared","0.2,0.8","9","0.2","trustrating_stim/white_mw089.bmp","5","142","24"
"html-keyboard-response","207","225943","0.0-19.0-2.23","59aae1188cef7d00011f8884","bdp_trlrn","Tue Mar 14 2023 21:32:02 GMT-0400 (Eastern Daylight Time)","449118","Untrustworthy,Trustworthy","","null","","","","decisionFB","","<div class='trialDiv'><img src='trustrating_stim/white_mw089.bmp'><br><font class='baseline'><strong>Aaron</strong><p>Choose number of points to send.</font><div class='respPicDiv'><img src='img/responseButtonOffersNo0L1.png' class='respPic'></div></div>","null","8","Aaron","5","Shared","0.2,0.8","9","0.2","trustrating_stim/white_mw089.bmp","5","141","24"
"html-keyboard-response","208","226944","0.0-19.0-3.23","59aae1188cef7d00011f8884","bdp_trlrn","Tue Mar 14 2023 21:32:02 GMT-0400 (Eastern Daylight Time)","449118","Untrustworthy,Trustworthy","","null","","","","feedback","","<div class='trialDiv'><img src='trustrating_stim/white_mw089.bmp'><br><font class='baseline'><strong>Aaron</strong><p>Received: <strong>4</strong></font> &nbsp; &nbsp; &nbsp; &nbsp; &nbsp; &nbsp;<font class='posOutcome'>Shared back: <strong>2</strong></font></font><div class='respPicDiv'><img src='img/responseButtonOffersNo0_wht.png' class='respPic'></div></div>","null","8","Aaron","5","Shared","0.2,0.8","9","0.2","trustrating_stim/white_mw089.bmp","5","143","24"
"html-keyboard-response","209","227503","0.0-19.0-1.24","59aae1188cef7d00011f8884","bdp_trlrn","Tue Mar 14 2023 21:32:02 GMT-0400 (Eastern Daylight Time)","449118","Untrustworthy,Trustworthy","","558","","","","decision","","<div class='trialDiv'><img src='trustrating_stim/white_00519_940519_fb_edt.bmp'><br><font class='baseline'><strong>Jonathan</strong><p>Choose number of points to send.</font><div class='respPicDiv'><img src='img/responseButtonOffersNo0L.png' class='respPic'></div></div>","5","9","Jonathan","11","Kept","0.8,0.35","10","0.8","trustrating_stim/white_00519_940519_fb_edt.bmp","5","148","25"
"html-keyboard-response","210","227755","0.0-19.0-2.24","59aae1188cef7d00011f8884","bdp_trlrn","Tue Mar 14 2023 21:32:02 GMT-0400 (Eastern Daylight Time)","449118","Untrustworthy,Trustworthy","","null","","","","decisionFB","","<div class='trialDiv'><img src='trustrating_stim/white_00519_940519_fb_edt.bmp'><br><font class='baseline'><strong>Jonathan</strong><p>Choose number of points to send.</font><div class='respPicDiv'><img src='img/responseButtonOffersNo0L5.png' class='respPic'></div></div>","null","9","Jonathan","11","Kept","0.8,0.35","10","0.8","trustrating_stim/white_00519_940519_fb_edt.bmp","5","143","25"
"html-keyboard-response","211","228756","0.0-19.0-3.24","59aae1188cef7d00011f8884","bdp_trlrn","Tue Mar 14 2023 21:32:02 GMT-0400 (Eastern Daylight Time)","449118","Untrustworthy,Trustworthy","","null","","","","feedback","","<div class='trialDiv'><img src='trustrating_stim/white_00519_940519_fb_edt.bmp'><br><font class='baseline'><strong>Jonathan</strong><p>Received: <strong>20</strong></font> &nbsp; &nbsp; &nbsp; &nbsp; &nbsp; &nbsp;<font class='negOutcome'>Shared back: <strong>0</strong></font></font><div class='respPicDiv'><img src='img/responseButtonOffersNo0_wht.png' class='respPic'></div></div>","null","9","Jonathan","11","Kept","0.8,0.35","10","0.8","trustrating_stim/white_00519_940519_fb_edt.bmp","5","143","25"
"html-keyboard-response","212","229848","0.0-19.0-1.25","59aae1188cef7d00011f8884","bdp_trlrn","Tue Mar 14 2023 21:32:02 GMT-0400 (Eastern Daylight Time)","449118","Untrustworthy,Trustworthy","","1091","","","","decision","","<div class='trialDiv'><img src='trustrating_stim/white_mw089.bmp'><br><font class='baseline'><strong>Aaron</strong><p>Choose number of points to send.</font><div class='respPicDiv'><img src='img/responseButtonOffersNo0L.png' class='respPic'></div></div>","2","9","Aaron","5","Shared","0.2,0.8","9","0.2","trustrating_stim/white_mw089.bmp","5","148","26"
"html-keyboard-response","213","230101","0.0-19.0-2.25","59aae1188cef7d00011f8884","bdp_trlrn","Tue Mar 14 2023 21:32:02 GMT-0400 (Eastern Daylight Time)","449118","Untrustworthy,Trustworthy","","null","","","","decisionFB","","<div class='trialDiv'><img src='trustrating_stim/white_mw089.bmp'><br><font class='baseline'><strong>Aaron</strong><p>Choose number of points to send.</font><div class='respPicDiv'><img src='img/responseButtonOffersNo0L2.png' class='respPic'></div></div>","null","9","Aaron","5","Shared","0.2,0.8","9","0.2","trustrating_stim/white_mw089.bmp","5","146","26"
"html-keyboard-response","214","231103","0.0-19.0-3.25","59aae1188cef7d00011f8884","bdp_trlrn","Tue Mar 14 2023 21:32:02 GMT-0400 (Eastern Daylight Time)","449118","Untrustworthy,Trustworthy","","null","","","","feedback","","<div class='trialDiv'><img src='trustrating_stim/white_mw089.bmp'><br><font class='baseline'><strong>Aaron</strong><p>Received: <strong>8</strong></font> &nbsp; &nbsp; &nbsp; &nbsp; &nbsp; &nbsp;<font class='posOutcome'>Shared back: <strong>4</strong></font></font><div class='respPicDiv'><img src='img/responseButtonOffersNo0_wht.png' class='respPic'></div></div>","null","9","Aaron","5","Shared","0.2,0.8","9","0.2","trustrating_stim/white_mw089.bmp","5","150","26"
"html-keyboard-response","215","231699","0.0-19.0-1.26","59aae1188cef7d00011f8884","bdp_trlrn","Tue Mar 14 2023 21:32:02 GMT-0400 (Eastern Daylight Time)","449118","Untrustworthy,Trustworthy","","595","","","","decision","","<div class='trialDiv'><img src='trustrating_stim/white_00761_941201_fb_edt.bmp'><br><font class='baseline'><strong>David</strong><p>Choose number of points to send.</font><div class='respPicDiv'><img src='img/responseButtonOffersNo0L.png' class='respPic'></div></div>","3","9","David","1","Shared","0.35,0.8","10","0.35","trustrating_stim/white_00761_941201_fb_edt.bmp","2.5","155","27"
"html-keyboard-response","216","231950","0.0-19.0-2.26","59aae1188cef7d00011f8884","bdp_trlrn","Tue Mar 14 2023 21:32:02 GMT-0400 (Eastern Daylight Time)","449118","Untrustworthy,Trustworthy","","null","","","","decisionFB","","<div class='trialDiv'><img src='trustrating_stim/white_00761_941201_fb_edt.bmp'><br><font class='baseline'><strong>David</strong><p>Choose number of points to send.</font><div class='respPicDiv'><img src='img/responseButtonOffersNo0L3.png' class='respPic'></div></div>","null","9","David","1","Shared","0.35,0.8","10","0.35","trustrating_stim/white_00761_941201_fb_edt.bmp","2.5","152","27"
"html-keyboard-response","217","232951","0.0-19.0-3.26","59aae1188cef7d00011f8884","bdp_trlrn","Tue Mar 14 2023 21:32:02 GMT-0400 (Eastern Daylight Time)","449118","Untrustworthy,Trustworthy","","null","","","","feedback","","<div class='trialDiv'><img src='trustrating_stim/white_00761_941201_fb_edt.bmp'><br><font class='baseline'><strong>David</strong><p>Received: <strong>12</strong></font> &nbsp; &nbsp; &nbsp; &nbsp; &nbsp; &nbsp;<font class='posOutcome'>Shared back: <strong>6</strong></font></font><div class='respPicDiv'><img src='img/responseButtonOffersNo0_wht.png' class='respPic'></div></div>","null","9","David","1","Shared","0.35,0.8","10","0.35","trustrating_stim/white_00761_941201_fb_edt.bmp","2.5","158","27"
"html-keyboard-response","218","233550","0.0-19.0-1.27","59aae1188cef7d00011f8884","bdp_trlrn","Tue Mar 14 2023 21:32:02 GMT-0400 (Eastern Daylight Time)","449118","Untrustworthy,Trustworthy","","597","","","","decision","","<div class='trialDiv'><img src='trustrating_stim/white_mw089.bmp'><br><font class='baseline'><strong>Aaron</strong><p>Choose number of points to send.</font><div class='respPicDiv'><img src='img/responseButtonOffersNo0L.png' class='respPic'></div></div>","4","10","Aaron","5","Shared","0.2,0.8","9","0.2","trustrating_stim/white_mw089.bmp","5","163","28"
"html-keyboard-response","219","233801","0.0-19.0-2.27","59aae1188cef7d00011f8884","bdp_trlrn","Tue Mar 14 2023 21:32:02 GMT-0400 (Eastern Daylight Time)","449118","Untrustworthy,Trustworthy","","null","","","","decisionFB","","<div class='trialDiv'><img src='trustrating_stim/white_mw089.bmp'><br><font class='baseline'><strong>Aaron</strong><p>Choose number of points to send.</font><div class='respPicDiv'><img src='img/responseButtonOffersNo0L4.png' class='respPic'></div></div>","null","10","Aaron","5","Shared","0.2,0.8","9","0.2","trustrating_stim/white_mw089.bmp","5","159","28"
"html-keyboard-response","220","234804","0.0-19.0-3.27","59aae1188cef7d00011f8884","bdp_trlrn","Tue Mar 14 2023 21:32:02 GMT-0400 (Eastern Daylight Time)","449118","Untrustworthy,Trustworthy","","null","","","","feedback","","<div class='trialDiv'><img src='trustrating_stim/white_mw089.bmp'><br><font class='baseline'><strong>Aaron</strong><p>Received: <strong>16</strong></font> &nbsp; &nbsp; &nbsp; &nbsp; &nbsp; &nbsp;<font class='posOutcome'>Shared back: <strong>8</strong></font></font><div class='respPicDiv'><img src='img/responseButtonOffersNo0_wht.png' class='respPic'></div></div>","null","10","Aaron","5","Shared","0.2,0.8","9","0.2","trustrating_stim/white_mw089.bmp","5","167","28"
