"trial_type","trial_index","time_elapsed","internal_node_id","subject_id","task","startTime","totalTime","labels","view_history","rt","event","trial","time","trialtype","success","stimulus","key_press","aground","name","faceID","outcome","agenttype","agentswpt","agentcurrpshare","face","avgRating","point_total","round"
"pavlovia","0","3","0.0-0.0","63b6be60f23fd8e0399f668c","bdp_trlrn","Wed Mar 15 2023 15:42:56 GMT-0400 (Eastern Daylight Time)","671946","Untrustworthy,Trustworthy","","","","","","","","","","","","","","","","","","","",""
"instructions","1","4208","0.0-1.0","63b6be60f23fd8e0399f668c","bdp_trlrn","Wed Mar 15 2023 15:42:56 GMT-0400 (Eastern Daylight Time)","671946","Untrustworthy,Trustworthy","[{""page_index"":0,""viewing_time"":4204}]","4205","","","","","","","","","","","","","","","","","",""
"","","","","63b6be60f23fd8e0399f668c","bdp_trlrn","Wed Mar 15 2023 15:42:56 GMT-0400 (Eastern Daylight Time)","671946","Untrustworthy,Trustworthy","","","fullscreenenter","2","7197","fullscreenenter","","","","","","","","","","","","","",""
"fullscreen","2","8186","0.0-2.0","63b6be60f23fd8e0399f668c","bdp_trlrn","Wed Mar 15 2023 15:42:56 GMT-0400 (Eastern Daylight Time)","671946","Untrustworthy,Trustworthy","","","","","","","true","","","","","","","","","","","","",""
"instructions","3","24423","0.0-4.0","63b6be60f23fd8e0399f668c","bdp_trlrn","Wed Mar 15 2023 15:42:56 GMT-0400 (Eastern Daylight Time)","671946","Untrustworthy,Trustworthy","[{""page_index"":0,""viewing_time"":9559},{""page_index"":1,""viewing_time"":6676}]","16235","","","","","","","","","","","","","","","","","",""
"instructions","4","27043","0.0-5.0","63b6be60f23fd8e0399f668c","bdp_trlrn","Wed Mar 15 2023 15:42:56 GMT-0400 (Eastern Daylight Time)","671946","Untrustworthy,Trustworthy","[{""page_index"":0,""viewing_time"":2619}]","2619","","","","","","","","","","","","","","","","","",""
"image-keyboard-response","5","30617","0.0-6.0-1.0","63b6be60f23fd8e0399f668c","bdp_trlrn","Wed Mar 15 2023 15:42:56 GMT-0400 (Eastern Daylight Time)","671946","Untrustworthy,Trustworthy","","3466","","","","rating","","trustrating_stim/white_mw048.bmp","4","","","","","","","","","","",""
"image-keyboard-response","6","30826","0.0-6.0-2.0","63b6be60f23fd8e0399f668c","bdp_trlrn","Wed Mar 15 2023 15:42:56 GMT-0400 (Eastern Daylight Time)","671946","Untrustworthy,Trustworthy","","null","","","","ratingFB","","trustrating_stim/white_mw048.bmp","null","","","","","","","","","","",""
"image-keyboard-response","7","32748","0.0-6.0-1.1","63b6be60f23fd8e0399f668c","bdp_trlrn","Wed Mar 15 2023 15:42:56 GMT-0400 (Eastern Daylight Time)","671946","Untrustworthy,Trustworthy","","1814","","","","rating","","trustrating_stim/white_mw060.bmp","4","","","","","","","","","","",""
"image-keyboard-response","8","32955","0.0-6.0-2.1","63b6be60f23fd8e0399f668c","bdp_trlrn","Wed Mar 15 2023 15:42:56 GMT-0400 (Eastern Daylight Time)","671946","Untrustworthy,Trustworthy","","null","","","","ratingFB","","trustrating_stim/white_mw060.bmp","null","","","","","","","","","","",""
"image-keyboard-response","9","34913","0.0-6.0-1.2","63b6be60f23fd8e0399f668c","bdp_trlrn","Wed Mar 15 2023 15:42:56 GMT-0400 (Eastern Daylight Time)","671946","Untrustworthy,Trustworthy","","1852","","","","rating","","trustrating_stim/white_mw056.bmp","4","","","","","","","","","","",""
"image-keyboard-response","10","35125","0.0-6.0-2.2","63b6be60f23fd8e0399f668c","bdp_trlrn","Wed Mar 15 2023 15:42:56 GMT-0400 (Eastern Daylight Time)","671946","Untrustworthy,Trustworthy","","null","","","","ratingFB","","trustrating_stim/white_mw056.bmp","null","","","","","","","","","","",""
"image-keyboard-response","11","37900","0.0-6.0-1.3","63b6be60f23fd8e0399f668c","bdp_trlrn","Wed Mar 15 2023 15:42:56 GMT-0400 (Eastern Daylight Time)","671946","Untrustworthy,Trustworthy","","2672","","","","rating","","trustrating_stim/white_mw084.bmp","5","","","","","","","","","","",""
"image-keyboard-response","12","38106","0.0-6.0-2.3","63b6be60f23fd8e0399f668c","bdp_trlrn","Wed Mar 15 2023 15:42:56 GMT-0400 (Eastern Daylight Time)","671946","Untrustworthy,Trustworthy","","null","","","","ratingFB","","trustrating_stim/white_mw084.bmp","null","","","","","","","","","","",""
"image-keyboard-response","13","39809","0.0-6.0-1.4","63b6be60f23fd8e0399f668c","bdp_trlrn","Wed Mar 15 2023 15:42:56 GMT-0400 (Eastern Daylight Time)","671946","Untrustworthy,Trustworthy","","1595","","","","rating","","trustrating_stim/white_mw063.bmp","4","","","","","","","","","","",""
"image-keyboard-response","14","40020","0.0-6.0-2.4","63b6be60f23fd8e0399f668c","bdp_trlrn","Wed Mar 15 2023 15:42:56 GMT-0400 (Eastern Daylight Time)","671946","Untrustworthy,Trustworthy","","null","","","","ratingFB","","trustrating_stim/white_mw063.bmp","null","","","","","","","","","","",""
"image-keyboard-response","15","42114","0.0-6.0-1.5","63b6be60f23fd8e0399f668c","bdp_trlrn","Wed Mar 15 2023 15:42:56 GMT-0400 (Eastern Daylight Time)","671946","Untrustworthy,Trustworthy","","1990","","","","rating","","trustrating_stim/white_00109_931230_fa_edt.bmp","6","","","","","","","","","","",""
"image-keyboard-response","16","42325","0.0-6.0-2.5","63b6be60f23fd8e0399f668c","bdp_trlrn","Wed Mar 15 2023 15:42:56 GMT-0400 (Eastern Daylight Time)","671946","Untrustworthy,Trustworthy","","null","","","","ratingFB","","trustrating_stim/white_00109_931230_fa_edt.bmp","null","","","","","","","","","","",""
"image-keyboard-response","17","45017","0.0-6.0-1.6","63b6be60f23fd8e0399f668c","bdp_trlrn","Wed Mar 15 2023 15:42:56 GMT-0400 (Eastern Daylight Time)","671946","Untrustworthy,Trustworthy","","2589","","","","rating","","trustrating_stim/white_00898_960530_fa_edt.bmp","3","","","","","","","","","","",""
"image-keyboard-response","18","45220","0.0-6.0-2.6","63b6be60f23fd8e0399f668c","bdp_trlrn","Wed Mar 15 2023 15:42:56 GMT-0400 (Eastern Daylight Time)","671946","Untrustworthy,Trustworthy","","null","","","","ratingFB","","trustrating_stim/white_00898_960530_fa_edt.bmp","null","","","","","","","","","","",""
"image-keyboard-response","19","46906","0.0-6.0-1.7","63b6be60f23fd8e0399f668c","bdp_trlrn","Wed Mar 15 2023 15:42:56 GMT-0400 (Eastern Daylight Time)","671946","Untrustworthy,Trustworthy","","1583","","","","rating","","trustrating_stim/white_00299_940422_fa_edt.bmp","4","","","","","","","","","","",""
"image-keyboard-response","20","47115","0.0-6.0-2.7","63b6be60f23fd8e0399f668c","bdp_trlrn","Wed Mar 15 2023 15:42:56 GMT-0400 (Eastern Daylight Time)","671946","Untrustworthy,Trustworthy","","null","","","","ratingFB","","trustrating_stim/white_00299_940422_fa_edt.bmp","null","","","","","","","","","","",""
"image-keyboard-response","21","49629","0.0-6.0-1.8","63b6be60f23fd8e0399f668c","bdp_trlrn","Wed Mar 15 2023 15:42:56 GMT-0400 (Eastern Daylight Time)","671946","Untrustworthy,Trustworthy","","2408","","","","rating","","trustrating_stim/white_mw049.bmp","5","","","","","","","","","","",""
"image-keyboard-response","22","49835","0.0-6.0-2.8","63b6be60f23fd8e0399f668c","bdp_trlrn","Wed Mar 15 2023 15:42:56 GMT-0400 (Eastern Daylight Time)","671946","Untrustworthy,Trustworthy","","null","","","","ratingFB","","trustrating_stim/white_mw049.bmp","null","","","","","","","","","","",""
"image-keyboard-response","23","51395","0.0-6.0-1.9","63b6be60f23fd8e0399f668c","bdp_trlrn","Wed Mar 15 2023 15:42:56 GMT-0400 (Eastern Daylight Time)","671946","Untrustworthy,Trustworthy","","1454","","","","rating","","trustrating_stim/white_00577_940928_fa_edt.bmp","4","","","","","","","","","","",""
"image-keyboard-response","24","51606","0.0-6.0-2.9","63b6be60f23fd8e0399f668c","bdp_trlrn","Wed Mar 15 2023 15:42:56 GMT-0400 (Eastern Daylight Time)","671946","Untrustworthy,Trustworthy","","null","","","","ratingFB","","trustrating_stim/white_00577_940928_fa_edt.bmp","null","","","","","","","","","","",""
"image-keyboard-response","25","53029","0.0-6.0-1.10","63b6be60f23fd8e0399f668c","bdp_trlrn","Wed Mar 15 2023 15:42:56 GMT-0400 (Eastern Daylight Time)","671946","Untrustworthy,Trustworthy","","1311","","","","rating","","trustrating_stim/white_mw099.bmp","4","","","","","","","","","","",""
"image-keyboard-response","26","53237","0.0-6.0-2.10","63b6be60f23fd8e0399f668c","bdp_trlrn","Wed Mar 15 2023 15:42:56 GMT-0400 (Eastern Daylight Time)","671946","Untrustworthy,Trustworthy","","null","","","","ratingFB","","trustrating_stim/white_mw099.bmp","null","","","","","","","","","","",""
"image-keyboard-response","27","56496","0.0-6.0-1.11","63b6be60f23fd8e0399f668c","bdp_trlrn","Wed Mar 15 2023 15:42:56 GMT-0400 (Eastern Daylight Time)","671946","Untrustworthy,Trustworthy","","3157","","","","rating","","trustrating_stim/white_mw053.bmp","6","","","","","","","","","","",""
"image-keyboard-response","28","56699","0.0-6.0-2.11","63b6be60f23fd8e0399f668c","bdp_trlrn","Wed Mar 15 2023 15:42:56 GMT-0400 (Eastern Daylight Time)","671946","Untrustworthy,Trustworthy","","null","","","","ratingFB","","trustrating_stim/white_mw053.bmp","null","","","","","","","","","","",""
"image-keyboard-response","29","58280","0.0-6.0-1.12","63b6be60f23fd8e0399f668c","bdp_trlrn","Wed Mar 15 2023 15:42:56 GMT-0400 (Eastern Daylight Time)","671946","Untrustworthy,Trustworthy","","1475","","","","rating","","trustrating_stim/white_00129_931230_fb_edt.bmp","4","","","","","","","","","","",""
"image-keyboard-response","30","58485","0.0-6.0-2.12","63b6be60f23fd8e0399f668c","bdp_trlrn","Wed Mar 15 2023 15:42:56 GMT-0400 (Eastern Daylight Time)","671946","Untrustworthy,Trustworthy","","null","","","","ratingFB","","trustrating_stim/white_00129_931230_fb_edt.bmp","null","","","","","","","","","","",""
"image-keyboard-response","31","61334","0.0-6.0-1.13","63b6be60f23fd8e0399f668c","bdp_trlrn","Wed Mar 15 2023 15:42:56 GMT-0400 (Eastern Daylight Time)","671946","Untrustworthy,Trustworthy","","2747","","","","rating","","trustrating_stim/white_00340_940422_fa_edt.bmp","4","","","","","","","","","","",""
"image-keyboard-response","32","61541","0.0-6.0-2.13","63b6be60f23fd8e0399f668c","bdp_trlrn","Wed Mar 15 2023 15:42:56 GMT-0400 (Eastern Daylight Time)","671946","Untrustworthy,Trustworthy","","null","","","","ratingFB","","trustrating_stim/white_00340_940422_fa_edt.bmp","null","","","","","","","","","","",""
"image-keyboard-response","33","63488","0.0-6.0-1.14","63b6be60f23fd8e0399f668c","bdp_trlrn","Wed Mar 15 2023 15:42:56 GMT-0400 (Eastern Daylight Time)","671946","Untrustworthy,Trustworthy","","1843","","","","rating","","trustrating_stim/white_mw089.bmp","3","","","","","","","","","","",""
"image-keyboard-response","34","63691","0.0-6.0-2.14","63b6be60f23fd8e0399f668c","bdp_trlrn","Wed Mar 15 2023 15:42:56 GMT-0400 (Eastern Daylight Time)","671946","Untrustworthy,Trustworthy","","null","","","","ratingFB","","trustrating_stim/white_mw089.bmp","null","","","","","","","","","","",""
"image-keyboard-response","35","65661","0.0-6.0-1.15","63b6be60f23fd8e0399f668c","bdp_trlrn","Wed Mar 15 2023 15:42:56 GMT-0400 (Eastern Daylight Time)","671946","Untrustworthy,Trustworthy","","1861","","","","rating","","trustrating_stim/white_mw071.bmp","4","","","","","","","","","","",""
"image-keyboard-response","36","65867","0.0-6.0-2.15","63b6be60f23fd8e0399f668c","bdp_trlrn","Wed Mar 15 2023 15:42:56 GMT-0400 (Eastern Daylight Time)","671946","Untrustworthy,Trustworthy","","null","","","","ratingFB","","trustrating_stim/white_mw071.bmp","null","","","","","","","","","","",""
"image-keyboard-response","37","68873","0.0-6.0-1.16","63b6be60f23fd8e0399f668c","bdp_trlrn","Wed Mar 15 2023 15:42:56 GMT-0400 (Eastern Daylight Time)","671946","Untrustworthy,Trustworthy","","2900","","","","rating","","trustrating_stim/white_00519_940519_fb_edt.bmp","4","","","","","","","","","","",""
"image-keyboard-response","38","69085","0.0-6.0-2.16","63b6be60f23fd8e0399f668c","bdp_trlrn","Wed Mar 15 2023 15:42:56 GMT-0400 (Eastern Daylight Time)","671946","Untrustworthy,Trustworthy","","null","","","","ratingFB","","trustrating_stim/white_00519_940519_fb_edt.bmp","null","","","","","","","","","","",""
"image-keyboard-response","39","71121","0.0-6.0-1.17","63b6be60f23fd8e0399f668c","bdp_trlrn","Wed Mar 15 2023 15:42:56 GMT-0400 (Eastern Daylight Time)","671946","Untrustworthy,Trustworthy","","1932","","","","rating","","trustrating_stim/white_mw033.bmp","3","","","","","","","","","","",""
"image-keyboard-response","40","71323","0.0-6.0-2.17","63b6be60f23fd8e0399f668c","bdp_trlrn","Wed Mar 15 2023 15:42:56 GMT-0400 (Eastern Daylight Time)","671946","Untrustworthy,Trustworthy","","null","","","","ratingFB","","trustrating_stim/white_mw033.bmp","null","","","","","","","","","","",""
"image-keyboard-response","41","73466","0.0-6.0-1.18","63b6be60f23fd8e0399f668c","bdp_trlrn","Wed Mar 15 2023 15:42:56 GMT-0400 (Eastern Daylight Time)","671946","Untrustworthy,Trustworthy","","2035","","","","rating","","trustrating_stim/white_00785_941205_fb_edt.bmp","3","","","","","","","","","","",""
"image-keyboard-response","42","73675","0.0-6.0-2.18","63b6be60f23fd8e0399f668c","bdp_trlrn","Wed Mar 15 2023 15:42:56 GMT-0400 (Eastern Daylight Time)","671946","Untrustworthy,Trustworthy","","null","","","","ratingFB","","trustrating_stim/white_00785_941205_fb_edt.bmp","null","","","","","","","","","","",""
"image-keyboard-response","43","76096","0.0-6.0-1.19","63b6be60f23fd8e0399f668c","bdp_trlrn","Wed Mar 15 2023 15:42:56 GMT-0400 (Eastern Daylight Time)","671946","Untrustworthy,Trustworthy","","2313","","","","rating","","trustrating_stim/white_00223_940128_fb_edt.bmp","2","","","","","","","","","","",""
"image-keyboard-response","44","76299","0.0-6.0-2.19","63b6be60f23fd8e0399f668c","bdp_trlrn","Wed Mar 15 2023 15:42:56 GMT-0400 (Eastern Daylight Time)","671946","Untrustworthy,Trustworthy","","null","","","","ratingFB","","trustrating_stim/white_00223_940128_fb_edt.bmp","null","","","","","","","","","","",""
"image-keyboard-response","45","79035","0.0-6.0-1.20","63b6be60f23fd8e0399f668c","bdp_trlrn","Wed Mar 15 2023 15:42:56 GMT-0400 (Eastern Daylight Time)","671946","Untrustworthy,Trustworthy","","2626","","","","rating","","trustrating_stim/white_mw046.bmp","3","","","","","","","","","","",""
"image-keyboard-response","46","79243","0.0-6.0-2.20","63b6be60f23fd8e0399f668c","bdp_trlrn","Wed Mar 15 2023 15:42:56 GMT-0400 (Eastern Daylight Time)","671946","Untrustworthy,Trustworthy","","null","","","","ratingFB","","trustrating_stim/white_mw046.bmp","null","","","","","","","","","","",""
"image-keyboard-response","47","80614","0.0-6.0-1.21","63b6be60f23fd8e0399f668c","bdp_trlrn","Wed Mar 15 2023 15:42:56 GMT-0400 (Eastern Daylight Time)","671946","Untrustworthy,Trustworthy","","1264","","","","rating","","trustrating_stim/white_00757_941201_fa_edt.bmp","2","","","","","","","","","","",""
"image-keyboard-response","48","80822","0.0-6.0-2.21","63b6be60f23fd8e0399f668c","bdp_trlrn","Wed Mar 15 2023 15:42:56 GMT-0400 (Eastern Daylight Time)","671946","Untrustworthy,Trustworthy","","null","","","","ratingFB","","trustrating_stim/white_00757_941201_fa_edt.bmp","null","","","","","","","","","","",""
"image-keyboard-response","49","82600","0.0-6.0-1.22","63b6be60f23fd8e0399f668c","bdp_trlrn","Wed Mar 15 2023 15:42:56 GMT-0400 (Eastern Daylight Time)","671946","Untrustworthy,Trustworthy","","1666","","","","rating","","trustrating_stim/white_00761_941201_fb_edt.bmp","4","","","","","","","","","","",""
"image-keyboard-response","50","82805","0.0-6.0-2.22","63b6be60f23fd8e0399f668c","bdp_trlrn","Wed Mar 15 2023 15:42:56 GMT-0400 (Eastern Daylight Time)","671946","Untrustworthy,Trustworthy","","null","","","","ratingFB","","trustrating_stim/white_00761_941201_fb_edt.bmp","null","","","","","","","","","","",""
"image-keyboard-response","51","84908","0.0-6.0-1.23","63b6be60f23fd8e0399f668c","bdp_trlrn","Wed Mar 15 2023 15:42:56 GMT-0400 (Eastern Daylight Time)","671946","Untrustworthy,Trustworthy","","1999","","","","rating","","trustrating_stim/white_00602_940928_fb_edt.bmp","4","","","","","","","","","","",""
"image-keyboard-response","52","85119","0.0-6.0-2.23","63b6be60f23fd8e0399f668c","bdp_trlrn","Wed Mar 15 2023 15:42:56 GMT-0400 (Eastern Daylight Time)","671946","Untrustworthy,Trustworthy","","null","","","","ratingFB","","trustrating_stim/white_00602_940928_fb_edt.bmp","null","","","","","","","","","","",""
"image-keyboard-response","53","86875","0.0-6.0-1.24","63b6be60f23fd8e0399f668c","bdp_trlrn","Wed Mar 15 2023 15:42:56 GMT-0400 (Eastern Daylight Time)","671946","Untrustworthy,Trustworthy","","1647","","","","rating","","trustrating_stim/white_00120_931230_fa_edt.bmp","4","","","","","","","","","","",""
"image-keyboard-response","54","87086","0.0-6.0-2.24","63b6be60f23fd8e0399f668c","bdp_trlrn","Wed Mar 15 2023 15:42:56 GMT-0400 (Eastern Daylight Time)","671946","Untrustworthy,Trustworthy","","null","","","","ratingFB","","trustrating_stim/white_00120_931230_fa_edt.bmp","null","","","","","","","","","","",""
"image-keyboard-response","55","92517","0.0-6.0-1.25","63b6be60f23fd8e0399f668c","bdp_trlrn","Wed Mar 15 2023 15:42:56 GMT-0400 (Eastern Daylight Time)","671946","Untrustworthy,Trustworthy","","5327","","","","rating","","trustrating_stim/white_mw097.bmp","4","","","","","","","","","","",""
"image-keyboard-response","56","92726","0.0-6.0-2.25","63b6be60f23fd8e0399f668c","bdp_trlrn","Wed Mar 15 2023 15:42:56 GMT-0400 (Eastern Daylight Time)","671946","Untrustworthy,Trustworthy","","null","","","","ratingFB","","trustrating_stim/white_mw097.bmp","null","","","","","","","","","","",""
"image-keyboard-response","57","96173","0.0-6.0-1.26","63b6be60f23fd8e0399f668c","bdp_trlrn","Wed Mar 15 2023 15:42:56 GMT-0400 (Eastern Daylight Time)","671946","Untrustworthy,Trustworthy","","3334","","","","rating","","trustrating_stim/white_00807_941205_fb_edt.bmp","4","","","","","","","","","","",""
"image-keyboard-response","58","96380","0.0-6.0-2.26","63b6be60f23fd8e0399f668c","bdp_trlrn","Wed Mar 15 2023 15:42:56 GMT-0400 (Eastern Daylight Time)","671946","Untrustworthy,Trustworthy","","null","","","","ratingFB","","trustrating_stim/white_00807_941205_fb_edt.bmp","null","","","","","","","","","","",""
"image-keyboard-response","59","99320","0.0-6.0-1.27","63b6be60f23fd8e0399f668c","bdp_trlrn","Wed Mar 15 2023 15:42:56 GMT-0400 (Eastern Daylight Time)","671946","Untrustworthy,Trustworthy","","2832","","","","rating","","trustrating_stim/white_mw035.bmp","4","","","","","","","","","","",""
"image-keyboard-response","60","99526","0.0-6.0-2.27","63b6be60f23fd8e0399f668c","bdp_trlrn","Wed Mar 15 2023 15:42:56 GMT-0400 (Eastern Daylight Time)","671946","Untrustworthy,Trustworthy","","null","","","","ratingFB","","trustrating_stim/white_mw035.bmp","null","","","","","","","","","","",""
"image-keyboard-response","61","100335","0.0-6.0-1.28","63b6be60f23fd8e0399f668c","bdp_trlrn","Wed Mar 15 2023 15:42:56 GMT-0400 (Eastern Daylight Time)","671946","Untrustworthy,Trustworthy","","703","","","","rating","","trustrating_stim/white_00659_941121_fa_edt.bmp","4","","","","","","","","","","",""
"image-keyboard-response","62","100540","0.0-6.0-2.28","63b6be60f23fd8e0399f668c","bdp_trlrn","Wed Mar 15 2023 15:42:56 GMT-0400 (Eastern Daylight Time)","671946","Untrustworthy,Trustworthy","","null","","","","ratingFB","","trustrating_stim/white_00659_941121_fa_edt.bmp","null","","","","","","","","","","",""
"image-keyboard-response","63","103458","0.0-6.0-1.29","63b6be60f23fd8e0399f668c","bdp_trlrn","Wed Mar 15 2023 15:42:56 GMT-0400 (Eastern Daylight Time)","671946","Untrustworthy,Trustworthy","","2810","","","","rating","","trustrating_stim/white_mw066.bmp","5","","","","","","","","","","",""
"image-keyboard-response","64","103660","0.0-6.0-2.29","63b6be60f23fd8e0399f668c","bdp_trlrn","Wed Mar 15 2023 15:42:56 GMT-0400 (Eastern Daylight Time)","671946","Untrustworthy,Trustworthy","","null","","","","ratingFB","","trustrating_stim/white_mw066.bmp","null","","","","","","","","","","",""
"image-keyboard-response","65","104690","0.0-6.0-1.30","63b6be60f23fd8e0399f668c","bdp_trlrn","Wed Mar 15 2023 15:42:56 GMT-0400 (Eastern Daylight Time)","671946","Untrustworthy,Trustworthy","","923","","","","rating","","trustrating_stim/white_mw049.bmp","4","","","","","","","","","","",""
"image-keyboard-response","66","104897","0.0-6.0-2.30","63b6be60f23fd8e0399f668c","bdp_trlrn","Wed Mar 15 2023 15:42:56 GMT-0400 (Eastern Daylight Time)","671946","Untrustworthy,Trustworthy","","null","","","","ratingFB","","trustrating_stim/white_mw049.bmp","null","","","","","","","","","","",""
"image-keyboard-response","67","106770","0.0-6.0-1.31","63b6be60f23fd8e0399f668c","bdp_trlrn","Wed Mar 15 2023 15:42:56 GMT-0400 (Eastern Daylight Time)","671946","Untrustworthy,Trustworthy","","1764","","","","rating","","trustrating_stim/white_mw089.bmp","3","","","","","","","","","","",""
"image-keyboard-response","68","106972","0.0-6.0-2.31","63b6be60f23fd8e0399f668c","bdp_trlrn","Wed Mar 15 2023 15:42:56 GMT-0400 (Eastern Daylight Time)","671946","Untrustworthy,Trustworthy","","null","","","","ratingFB","","trustrating_stim/white_mw089.bmp","null","","","","","","","","","","",""
"image-keyboard-response","69","110225","0.0-6.0-1.32","63b6be60f23fd8e0399f668c","bdp_trlrn","Wed Mar 15 2023 15:42:56 GMT-0400 (Eastern Daylight Time)","671946","Untrustworthy,Trustworthy","","3146","","","","rating","","trustrating_stim/white_00340_940422_fa_edt.bmp","2","","","","","","","","","","",""
"image-keyboard-response","70","110429","0.0-6.0-2.32","63b6be60f23fd8e0399f668c","bdp_trlrn","Wed Mar 15 2023 15:42:56 GMT-0400 (Eastern Daylight Time)","671946","Untrustworthy,Trustworthy","","null","","","","ratingFB","","trustrating_stim/white_00340_940422_fa_edt.bmp","null","","","","","","","","","","",""
"image-keyboard-response","71","112453","0.0-6.0-1.33","63b6be60f23fd8e0399f668c","bdp_trlrn","Wed Mar 15 2023 15:42:56 GMT-0400 (Eastern Daylight Time)","671946","Untrustworthy,Trustworthy","","1918","","","","rating","","trustrating_stim/white_00602_940928_fb_edt.bmp","5","","","","","","","","","","",""
"image-keyboard-response","72","112662","0.0-6.0-2.33","63b6be60f23fd8e0399f668c","bdp_trlrn","Wed Mar 15 2023 15:42:56 GMT-0400 (Eastern Daylight Time)","671946","Untrustworthy,Trustworthy","","null","","","","ratingFB","","trustrating_stim/white_00602_940928_fb_edt.bmp","null","","","","","","","","","","",""
"image-keyboard-response","73","114183","0.0-6.0-1.34","63b6be60f23fd8e0399f668c","bdp_trlrn","Wed Mar 15 2023 15:42:56 GMT-0400 (Eastern Daylight Time)","671946","Untrustworthy,Trustworthy","","1407","","","","rating","","trustrating_stim/white_mw056.bmp","4","","","","","","","","","","",""
"image-keyboard-response","74","114391","0.0-6.0-2.34","63b6be60f23fd8e0399f668c","bdp_trlrn","Wed Mar 15 2023 15:42:56 GMT-0400 (Eastern Daylight Time)","671946","Untrustworthy,Trustworthy","","null","","","","ratingFB","","trustrating_stim/white_mw056.bmp","null","","","","","","","","","","",""
"image-keyboard-response","75","115775","0.0-6.0-1.35","63b6be60f23fd8e0399f668c","bdp_trlrn","Wed Mar 15 2023 15:42:56 GMT-0400 (Eastern Daylight Time)","671946","Untrustworthy,Trustworthy","","1271","","","","rating","","trustrating_stim/white_mw035.bmp","4","","","","","","","","","","",""
"image-keyboard-response","76","115980","0.0-6.0-2.35","63b6be60f23fd8e0399f668c","bdp_trlrn","Wed Mar 15 2023 15:42:56 GMT-0400 (Eastern Daylight Time)","671946","Untrustworthy,Trustworthy","","null","","","","ratingFB","","trustrating_stim/white_mw035.bmp","null","","","","","","","","","","",""
"image-keyboard-response","77","117426","0.0-6.0-1.36","63b6be60f23fd8e0399f668c","bdp_trlrn","Wed Mar 15 2023 15:42:56 GMT-0400 (Eastern Daylight Time)","671946","Untrustworthy,Trustworthy","","1339","","","","rating","","trustrating_stim/white_mw033.bmp","4","","","","","","","","","","",""
"image-keyboard-response","78","117629","0.0-6.0-2.36","63b6be60f23fd8e0399f668c","bdp_trlrn","Wed Mar 15 2023 15:42:56 GMT-0400 (Eastern Daylight Time)","671946","Untrustworthy,Trustworthy","","null","","","","ratingFB","","trustrating_stim/white_mw033.bmp","null","","","","","","","","","","",""
"image-keyboard-response","79","118971","0.0-6.0-1.37","63b6be60f23fd8e0399f668c","bdp_trlrn","Wed Mar 15 2023 15:42:56 GMT-0400 (Eastern Daylight Time)","671946","Untrustworthy,Trustworthy","","1237","","","","rating","","trustrating_stim/white_mw099.bmp","3","","","","","","","","","","",""
"image-keyboard-response","80","119180","0.0-6.0-2.37","63b6be60f23fd8e0399f668c","bdp_trlrn","Wed Mar 15 2023 15:42:56 GMT-0400 (Eastern Daylight Time)","671946","Untrustworthy,Trustworthy","","null","","","","ratingFB","","trustrating_stim/white_mw099.bmp","null","","","","","","","","","","",""
"image-keyboard-response","81","120864","0.0-6.0-1.38","63b6be60f23fd8e0399f668c","bdp_trlrn","Wed Mar 15 2023 15:42:56 GMT-0400 (Eastern Daylight Time)","671946","Untrustworthy,Trustworthy","","1577","","","","rating","","trustrating_stim/white_00129_931230_fb_edt.bmp","4","","","","","","","","","","",""
"image-keyboard-response","82","121068","0.0-6.0-2.38","63b6be60f23fd8e0399f668c","bdp_trlrn","Wed Mar 15 2023 15:42:56 GMT-0400 (Eastern Daylight Time)","671946","Untrustworthy,Trustworthy","","null","","","","ratingFB","","trustrating_stim/white_00129_931230_fb_edt.bmp","null","","","","","","","","","","",""
"image-keyboard-response","83","124734","0.0-6.0-1.39","63b6be60f23fd8e0399f668c","bdp_trlrn","Wed Mar 15 2023 15:42:56 GMT-0400 (Eastern Daylight Time)","671946","Untrustworthy,Trustworthy","","3559","","","","rating","","trustrating_stim/white_00120_931230_fa_edt.bmp","3","","","","","","","","","","",""
"image-keyboard-response","84","124941","0.0-6.0-2.39","63b6be60f23fd8e0399f668c","bdp_trlrn","Wed Mar 15 2023 15:42:56 GMT-0400 (Eastern Daylight Time)","671946","Untrustworthy,Trustworthy","","null","","","","ratingFB","","trustrating_stim/white_00120_931230_fa_edt.bmp","null","","","","","","","","","","",""
"image-keyboard-response","85","126093","0.0-6.0-1.40","63b6be60f23fd8e0399f668c","bdp_trlrn","Wed Mar 15 2023 15:42:56 GMT-0400 (Eastern Daylight Time)","671946","Untrustworthy,Trustworthy","","1046","","","","rating","","trustrating_stim/white_00659_941121_fa_edt.bmp","3","","","","","","","","","","",""
"image-keyboard-response","86","126301","0.0-6.0-2.40","63b6be60f23fd8e0399f668c","bdp_trlrn","Wed Mar 15 2023 15:42:56 GMT-0400 (Eastern Daylight Time)","671946","Untrustworthy,Trustworthy","","null","","","","ratingFB","","trustrating_stim/white_00659_941121_fa_edt.bmp","null","","","","","","","","","","",""
"image-keyboard-response","87","127748","0.0-6.0-1.41","63b6be60f23fd8e0399f668c","bdp_trlrn","Wed Mar 15 2023 15:42:56 GMT-0400 (Eastern Daylight Time)","671946","Untrustworthy,Trustworthy","","1341","","","","rating","","trustrating_stim/white_00898_960530_fa_edt.bmp","4","","","","","","","","","","",""
"image-keyboard-response","88","127958","0.0-6.0-2.41","63b6be60f23fd8e0399f668c","bdp_trlrn","Wed Mar 15 2023 15:42:56 GMT-0400 (Eastern Daylight Time)","671946","Untrustworthy,Trustworthy","","null","","","","ratingFB","","trustrating_stim/white_00898_960530_fa_edt.bmp","null","","","","","","","","","","",""
"image-keyboard-response","89","130597","0.0-6.0-1.42","63b6be60f23fd8e0399f668c","bdp_trlrn","Wed Mar 15 2023 15:42:56 GMT-0400 (Eastern Daylight Time)","671946","Untrustworthy,Trustworthy","","2525","","","","rating","","trustrating_stim/white_mw063.bmp","4","","","","","","","","","","",""
"image-keyboard-response","90","130807","0.0-6.0-2.42","63b6be60f23fd8e0399f668c","bdp_trlrn","Wed Mar 15 2023 15:42:56 GMT-0400 (Eastern Daylight Time)","671946","Untrustworthy,Trustworthy","","null","","","","ratingFB","","trustrating_stim/white_mw063.bmp","null","","","","","","","","","","",""
"image-keyboard-response","91","132501","0.0-6.0-1.43","63b6be60f23fd8e0399f668c","bdp_trlrn","Wed Mar 15 2023 15:42:56 GMT-0400 (Eastern Daylight Time)","671946","Untrustworthy,Trustworthy","","1581","","","","rating","","trustrating_stim/white_00757_941201_fa_edt.bmp","2","","","","","","","","","","",""
"image-keyboard-response","92","132711","0.0-6.0-2.43","63b6be60f23fd8e0399f668c","bdp_trlrn","Wed Mar 15 2023 15:42:56 GMT-0400 (Eastern Daylight Time)","671946","Untrustworthy,Trustworthy","","null","","","","ratingFB","","trustrating_stim/white_00757_941201_fa_edt.bmp","null","","","","","","","","","","",""
"image-keyboard-response","93","133734","0.0-6.0-1.44","63b6be60f23fd8e0399f668c","bdp_trlrn","Wed Mar 15 2023 15:42:56 GMT-0400 (Eastern Daylight Time)","671946","Untrustworthy,Trustworthy","","910","","","","rating","","trustrating_stim/white_00785_941205_fb_edt.bmp","3","","","","","","","","","","",""
"image-keyboard-response","94","133943","0.0-6.0-2.44","63b6be60f23fd8e0399f668c","bdp_trlrn","Wed Mar 15 2023 15:42:56 GMT-0400 (Eastern Daylight Time)","671946","Untrustworthy,Trustworthy","","null","","","","ratingFB","","trustrating_stim/white_00785_941205_fb_edt.bmp","null","","","","","","","","","","",""
"image-keyboard-response","95","134953","0.0-6.0-1.45","63b6be60f23fd8e0399f668c","bdp_trlrn","Wed Mar 15 2023 15:42:56 GMT-0400 (Eastern Daylight Time)","671946","Untrustworthy,Trustworthy","","895","","","","rating","","trustrating_stim/white_mw066.bmp","2","","","","","","","","","","",""
"image-keyboard-response","96","135159","0.0-6.0-2.45","63b6be60f23fd8e0399f668c","bdp_trlrn","Wed Mar 15 2023 15:42:56 GMT-0400 (Eastern Daylight Time)","671946","Untrustworthy,Trustworthy","","null","","","","ratingFB","","trustrating_stim/white_mw066.bmp","null","","","","","","","","","","",""
"image-keyboard-response","97","136966","0.0-6.0-1.46","63b6be60f23fd8e0399f668c","bdp_trlrn","Wed Mar 15 2023 15:42:56 GMT-0400 (Eastern Daylight Time)","671946","Untrustworthy,Trustworthy","","1695","","","","rating","","trustrating_stim/white_00761_941201_fb_edt.bmp","3","","","","","","","","","","",""
"image-keyboard-response","98","137175","0.0-6.0-2.46","63b6be60f23fd8e0399f668c","bdp_trlrn","Wed Mar 15 2023 15:42:56 GMT-0400 (Eastern Daylight Time)","671946","Untrustworthy,Trustworthy","","null","","","","ratingFB","","trustrating_stim/white_00761_941201_fb_edt.bmp","null","","","","","","","","","","",""
"image-keyboard-response","99","138693","0.0-6.0-1.47","63b6be60f23fd8e0399f668c","bdp_trlrn","Wed Mar 15 2023 15:42:56 GMT-0400 (Eastern Daylight Time)","671946","Untrustworthy,Trustworthy","","1405","","","","rating","","trustrating_stim/white_00807_941205_fb_edt.bmp","4","","","","","","","","","","",""
"image-keyboard-response","100","138903","0.0-6.0-2.47","63b6be60f23fd8e0399f668c","bdp_trlrn","Wed Mar 15 2023 15:42:56 GMT-0400 (Eastern Daylight Time)","671946","Untrustworthy,Trustworthy","","null","","","","ratingFB","","trustrating_stim/white_00807_941205_fb_edt.bmp","null","","","","","","","","","","",""
"image-keyboard-response","101","140440","0.0-6.0-1.48","63b6be60f23fd8e0399f668c","bdp_trlrn","Wed Mar 15 2023 15:42:56 GMT-0400 (Eastern Daylight Time)","671946","Untrustworthy,Trustworthy","","1435","","","","rating","","trustrating_stim/white_mw097.bmp","4","","","","","","","","","","",""
"image-keyboard-response","102","140647","0.0-6.0-2.48","63b6be60f23fd8e0399f668c","bdp_trlrn","Wed Mar 15 2023 15:42:56 GMT-0400 (Eastern Daylight Time)","671946","Untrustworthy,Trustworthy","","null","","","","ratingFB","","trustrating_stim/white_mw097.bmp","null","","","","","","","","","","",""
"image-keyboard-response","103","141881","0.0-6.0-1.49","63b6be60f23fd8e0399f668c","bdp_trlrn","Wed Mar 15 2023 15:42:56 GMT-0400 (Eastern Daylight Time)","671946","Untrustworthy,Trustworthy","","1121","","","","rating","","trustrating_stim/white_mw084.bmp","4","","","","","","","","","","",""
"image-keyboard-response","104","142087","0.0-6.0-2.49","63b6be60f23fd8e0399f668c","bdp_trlrn","Wed Mar 15 2023 15:42:56 GMT-0400 (Eastern Daylight Time)","671946","Untrustworthy,Trustworthy","","null","","","","ratingFB","","trustrating_stim/white_mw084.bmp","null","","","","","","","","","","",""
"image-keyboard-response","105","143466","0.0-6.0-1.50","63b6be60f23fd8e0399f668c","bdp_trlrn","Wed Mar 15 2023 15:42:56 GMT-0400 (Eastern Daylight Time)","671946","Untrustworthy,Trustworthy","","1267","","","","rating","","trustrating_stim/white_00519_940519_fb_edt.bmp","5","","","","","","","","","","",""
"image-keyboard-response","106","143671","0.0-6.0-2.50","63b6be60f23fd8e0399f668c","bdp_trlrn","Wed Mar 15 2023 15:42:56 GMT-0400 (Eastern Daylight Time)","671946","Untrustworthy,Trustworthy","","null","","","","ratingFB","","trustrating_stim/white_00519_940519_fb_edt.bmp","null","","","","","","","","","","",""
"image-keyboard-response","107","144947","0.0-6.0-1.51","63b6be60f23fd8e0399f668c","bdp_trlrn","Wed Mar 15 2023 15:42:56 GMT-0400 (Eastern Daylight Time)","671946","Untrustworthy,Trustworthy","","1162","","","","rating","","trustrating_stim/white_mw048.bmp","3","","","","","","","","","","",""
"image-keyboard-response","108","145149","0.0-6.0-2.51","63b6be60f23fd8e0399f668c","bdp_trlrn","Wed Mar 15 2023 15:42:56 GMT-0400 (Eastern Daylight Time)","671946","Untrustworthy,Trustworthy","","null","","","","ratingFB","","trustrating_stim/white_mw048.bmp","null","","","","","","","","","","",""
"image-keyboard-response","109","146514","0.0-6.0-1.52","63b6be60f23fd8e0399f668c","bdp_trlrn","Wed Mar 15 2023 15:42:56 GMT-0400 (Eastern Daylight Time)","671946","Untrustworthy,Trustworthy","","1258","","","","rating","","trustrating_stim/white_mw071.bmp","4","","","","","","","","","","",""
"image-keyboard-response","110","146717","0.0-6.0-2.52","63b6be60f23fd8e0399f668c","bdp_trlrn","Wed Mar 15 2023 15:42:56 GMT-0400 (Eastern Daylight Time)","671946","Untrustworthy,Trustworthy","","null","","","","ratingFB","","trustrating_stim/white_mw071.bmp","null","","","","","","","","","","",""
"image-keyboard-response","111","147909","0.0-6.0-1.53","63b6be60f23fd8e0399f668c","bdp_trlrn","Wed Mar 15 2023 15:42:56 GMT-0400 (Eastern Daylight Time)","671946","Untrustworthy,Trustworthy","","1085","","","","rating","","trustrating_stim/white_00223_940128_fb_edt.bmp","3","","","","","","","","","","",""
"image-keyboard-response","112","148119","0.0-6.0-2.53","63b6be60f23fd8e0399f668c","bdp_trlrn","Wed Mar 15 2023 15:42:56 GMT-0400 (Eastern Daylight Time)","671946","Untrustworthy,Trustworthy","","null","","","","ratingFB","","trustrating_stim/white_00223_940128_fb_edt.bmp","null","","","","","","","","","","",""
"image-keyboard-response","113","150016","0.0-6.0-1.54","63b6be60f23fd8e0399f668c","bdp_trlrn","Wed Mar 15 2023 15:42:56 GMT-0400 (Eastern Daylight Time)","671946","Untrustworthy,Trustworthy","","1784","","","","rating","","trustrating_stim/white_00577_940928_fa_edt.bmp","3","","","","","","","","","","",""
"image-keyboard-response","114","150221","0.0-6.0-2.54","63b6be60f23fd8e0399f668c","bdp_trlrn","Wed Mar 15 2023 15:42:56 GMT-0400 (Eastern Daylight Time)","671946","Untrustworthy,Trustworthy","","null","","","","ratingFB","","trustrating_stim/white_00577_940928_fa_edt.bmp","null","","","","","","","","","","",""
"image-keyboard-response","115","151727","0.0-6.0-1.55","63b6be60f23fd8e0399f668c","bdp_trlrn","Wed Mar 15 2023 15:42:56 GMT-0400 (Eastern Daylight Time)","671946","Untrustworthy,Trustworthy","","1399","","","","rating","","trustrating_stim/white_mw053.bmp","4","","","","","","","","","","",""
"image-keyboard-response","116","151933","0.0-6.0-2.55","63b6be60f23fd8e0399f668c","bdp_trlrn","Wed Mar 15 2023 15:42:56 GMT-0400 (Eastern Daylight Time)","671946","Untrustworthy,Trustworthy","","null","","","","ratingFB","","trustrating_stim/white_mw053.bmp","null","","","","","","","","","","",""
"image-keyboard-response","117","153155","0.0-6.0-1.56","63b6be60f23fd8e0399f668c","bdp_trlrn","Wed Mar 15 2023 15:42:56 GMT-0400 (Eastern Daylight Time)","671946","Untrustworthy,Trustworthy","","1114","","","","rating","","trustrating_stim/white_00299_940422_fa_edt.bmp","3","","","","","","","","","","",""
"image-keyboard-response","118","153357","0.0-6.0-2.56","63b6be60f23fd8e0399f668c","bdp_trlrn","Wed Mar 15 2023 15:42:56 GMT-0400 (Eastern Daylight Time)","671946","Untrustworthy,Trustworthy","","null","","","","ratingFB","","trustrating_stim/white_00299_940422_fa_edt.bmp","null","","","","","","","","","","",""
"image-keyboard-response","119","155009","0.0-6.0-1.57","63b6be60f23fd8e0399f668c","bdp_trlrn","Wed Mar 15 2023 15:42:56 GMT-0400 (Eastern Daylight Time)","671946","Untrustworthy,Trustworthy","","1544","","","","rating","","trustrating_stim/white_mw060.bmp","3","","","","","","","","","","",""
"image-keyboard-response","120","155213","0.0-6.0-2.57","63b6be60f23fd8e0399f668c","bdp_trlrn","Wed Mar 15 2023 15:42:56 GMT-0400 (Eastern Daylight Time)","671946","Untrustworthy,Trustworthy","","null","","","","ratingFB","","trustrating_stim/white_mw060.bmp","null","","","","","","","","","","",""
"image-keyboard-response","121","157687","0.0-6.0-1.58","63b6be60f23fd8e0399f668c","bdp_trlrn","Wed Mar 15 2023 15:42:56 GMT-0400 (Eastern Daylight Time)","671946","Untrustworthy,Trustworthy","","2367","","","","rating","","trustrating_stim/white_00109_931230_fa_edt.bmp","4","","","","","","","","","","",""
"image-keyboard-response","122","157895","0.0-6.0-2.58","63b6be60f23fd8e0399f668c","bdp_trlrn","Wed Mar 15 2023 15:42:56 GMT-0400 (Eastern Daylight Time)","671946","Untrustworthy,Trustworthy","","null","","","","ratingFB","","trustrating_stim/white_00109_931230_fa_edt.bmp","null","","","","","","","","","","",""
"image-keyboard-response","123","159738","0.0-6.0-1.59","63b6be60f23fd8e0399f668c","bdp_trlrn","Wed Mar 15 2023 15:42:56 GMT-0400 (Eastern Daylight Time)","671946","Untrustworthy,Trustworthy","","1730","","","","rating","","trustrating_stim/white_mw046.bmp","3","","","","","","","","","","",""
"image-keyboard-response","124","159943","0.0-6.0-2.59","63b6be60f23fd8e0399f668c","bdp_trlrn","Wed Mar 15 2023 15:42:56 GMT-0400 (Eastern Daylight Time)","671946","Untrustworthy,Trustworthy","","null","","","","ratingFB","","trustrating_stim/white_mw046.bmp","null","","","","","","","","","","",""
"instructions","125","162007","0.0-7.0","63b6be60f23fd8e0399f668c","bdp_trlrn","Wed Mar 15 2023 15:42:56 GMT-0400 (Eastern Daylight Time)","671946","Untrustworthy,Trustworthy","[{""page_index"":0,""viewing_time"":1952}]","1952","","","","","","","","","","","","","","","","","",""
"instructions","126","279615","0.0-8.0","63b6be60f23fd8e0399f668c","bdp_trlrn","Wed Mar 15 2023 15:42:56 GMT-0400 (Eastern Daylight Time)","671946","Untrustworthy,Trustworthy","[{""page_index"":0,""viewing_time"":40173},{""page_index"":1,""viewing_time"":9947},{""page_index"":2,""viewing_time"":10187},{""page_index"":3,""viewing_time"":11569},{""page_index"":4,""viewing_time"":6905},{""page_index"":5,""viewing_time"":16608},{""page_index"":6,""viewing_time"":15533},{""page_index"":7,""viewing_time"":6583}]","117506","","","","","","","","","","","","","","","","","",""
"html-keyboard-response","127","283178","0.0-9.0","63b6be60f23fd8e0399f668c","bdp_trlrn","Wed Mar 15 2023 15:42:56 GMT-0400 (Eastern Daylight Time)","671946","Untrustworthy,Trustworthy","","3561","","","","","","<div class='header' style='text-align:left; position: absolute; top: 5%; left: 5%;'><small>Task 3 of 5</small></div><div class='instruxDiv'><p><strong>1) What is the minimum number of points you can choose to send to your partner?</strong></p><p>a) 0</p><p>b) 1</p><p>c) 5</p>","C","","","","","","","","","","",""
"html-keyboard-response","128","287546","0.0-10.0","63b6be60f23fd8e0399f668c","bdp_trlrn","Wed Mar 15 2023 15:42:56 GMT-0400 (Eastern Daylight Time)","671946","Untrustworthy,Trustworthy","","4264","","","","","","<div class='header' style='text-align:left; position: absolute; top: 5%; left: 5%;'><small>Task 3 of 5</small></div><div class='instruxDiv'><p><strong>1) What is the minimum number of points you can choose to send to your partner?</strong></p><p>a) 1</p><p>b) 1</p><p style='color:#FF0000'>c) 5</p><h3 style='color:#FF0000'>Incorrect!</h3><h3 class='center-content'>The correct response is b).</h3><h3 class='center-content'>The minimum number of points you can choose to send to your partner is 1 point.</h3><p><em>Press SPACEBAR to continue</em></p></div>"," ","","","","","","","","","","",""
"html-keyboard-response","129","291408","0.0-11.0","63b6be60f23fd8e0399f668c","bdp_trlrn","Wed Mar 15 2023 15:42:56 GMT-0400 (Eastern Daylight Time)","671946","Untrustworthy,Trustworthy","","3759","","","","","","<div class='header' style='text-align:left; position: absolute; top: 5%; left: 5%;'><small>Task 3 of 5</small></div><div class='instruxDiv'><p><strong>2) What is the maximum number of points you can choose to send to your partner?</strong></p><p>a) 8</p><p>b) 5</p><p>c) 3</p>","B","","","","","","","","","","",""
"html-keyboard-response","130","292829","0.0-12.0","63b6be60f23fd8e0399f668c","bdp_trlrn","Wed Mar 15 2023 15:42:56 GMT-0400 (Eastern Daylight Time)","671946","Untrustworthy,Trustworthy","","1314","","","","","","<div class='header' style='text-align:left; position: absolute; top: 5%; left: 5%;'><small>Task 3 of 5</small></div><div class='instruxDiv'><p><strong>2) What is the maximum number of points you can choose to send to your partner?</strong></p><p>a) 8</p><p style='color:#00FF00'>b) 5</p><p>c) 3</p><h3 style='color:#00FF00'>Correct!</h3><h3 class='center-content'>The correct response is b).</h3><h3 class='center-content'>The maximum number of points you can choose to send to your partner is 5 points.</h3><p><em>Press SPACEBAR to continue</em></p></div>"," ","","","","","","","","","","",""
"html-keyboard-response","131","295790","0.0-13.0","63b6be60f23fd8e0399f668c","bdp_trlrn","Wed Mar 15 2023 15:42:56 GMT-0400 (Eastern Daylight Time)","671946","Untrustworthy,Trustworthy","","2857","","","","","","<div class='header' style='text-align:left; position: absolute; top: 5%; left: 5%;'><small>Task 3 of 5</small></div><div class='instruxDiv'><p><strong>3) What happens to the amount of points you send to your partner?</strong></p><p>a) Nothing</p><p>b) It doubles</p><p>c) It quadruples</p>","C","","","","","","","","","","",""
"html-keyboard-response","132","296801","0.0-14.0","63b6be60f23fd8e0399f668c","bdp_trlrn","Wed Mar 15 2023 15:42:56 GMT-0400 (Eastern Daylight Time)","671946","Untrustworthy,Trustworthy","","901","","","","","","<div class='header' style='text-align:left; position: absolute; top: 5%; left: 5%;'><small>Task 3 of 5</small></div><div class='instruxDiv'><p><strong>3) What happens to the amount of points you send to your partner?</strong></p><p>a) Nothing</p><p>b) It doubles</p><p style='color:#00FF00'>c) It quadruples</p><h3 style='color:#00FF00'>Correct!</h3><h3 class='center-content'>The correct response is c).</h3><h3 class='center-content'>The amount of points you send to your partner quadruples.</h3><p><em>Press SPACEBAR to continue</em></p></div>"," ","","","","","","","","","","",""
"html-keyboard-response","133","321232","0.0-15.0","63b6be60f23fd8e0399f668c","bdp_trlrn","Wed Mar 15 2023 15:42:56 GMT-0400 (Eastern Daylight Time)","671946","Untrustworthy,Trustworthy","","24325","","","","","","<div class='header' style='text-align:left; position: absolute; top: 5%; left: 5%;'><small>Task 3 of 5</small></div><div class='instruxDiv'><p><strong>4) If you decided to share 4 out of 5 points with your partner, and they decided to share half of the amount they received with you, how many points would you receive back from them on this round?</strong></p><p>a) 16</p><p>b) 0</p><p>c) 8</p>","C","","","","","","","","","","",""
"html-keyboard-response","134","322404","0.0-16.0","63b6be60f23fd8e0399f668c","bdp_trlrn","Wed Mar 15 2023 15:42:56 GMT-0400 (Eastern Daylight Time)","671946","Untrustworthy,Trustworthy","","1064","","","","","","<div class='header' style='text-align:left; position: absolute; top: 5%; left: 5%;'><small>Task 3 of 5</small></div><div class='instruxDiv'><p><strong>4) If you decided to share 4 out of 5 points with your partner, and they decided to share half of the amount they received with you, how many points would you receive back from them on this round?</strong></p><p>a) 16</p><p>b) 0</p><p style='color:#00FF00'>c) 8</p><h3 style='color:#00FF00'>Correct!</h3><h3 class='center-content'>The correct response is c).</h3><h3 class='center-content'>If you shared 4 out of 5 points with your partner and they decided to share half of the amount they received with you, you would receive 8 points back (i.e. (4 x 4)/2 = 8).</h3><p><em>Press SPACEBAR to continue</em></p></div>"," ","","","","","","","","","","",""
"html-keyboard-response","135","327515","0.0-17.0","63b6be60f23fd8e0399f668c","bdp_trlrn","Wed Mar 15 2023 15:42:56 GMT-0400 (Eastern Daylight Time)","671946","Untrustworthy,Trustworthy","","null","","","","","","<div class='header' style='text-align:left; position: absolute; top: 5%; left: 5%;'><small>Task 3 of 5</small></div><div class='instruxDiv'><p>Thank you for completing the quiz<p>These are the actual partners you will be interacting with in the next block:<p><div class='tc' align='center'><img class='introPic' src='trustrating_stim/white_00757_941201_fa_edt.bmp'><br><strong>Sebastian</strong></div><div class='bl' align='center'><img class='introPic' src='trustrating_stim/white_mw048.bmp'><br><strong>Gavin</strong></div><div class='br' align='center'><img class='introPic' src='trustrating_stim/white_00602_940928_fb_edt.bmp'><br><strong>Anthony</strong></div></div><p>Across <strong>66 rounds</strong> you will interact with each partner <strong>22 times</strong> (in random order).<p style='align:center; color:white'><font <em>Press SPACEBAR to continue</em></p>","null","","","","","","","","","","",""
"instructions","136","338202","0.0-18.0","63b6be60f23fd8e0399f668c","bdp_trlrn","Wed Mar 15 2023 15:42:56 GMT-0400 (Eastern Daylight Time)","671946","Untrustworthy,Trustworthy","[{""page_index"":0,""viewing_time"":7391},{""page_index"":1,""viewing_time"":3294}]","10685","","","","","","","","","","","","","","","","","",""
"html-keyboard-response","137","348993","0.0-19.0-1.0","63b6be60f23fd8e0399f668c","bdp_trlrn","Wed Mar 15 2023 15:42:56 GMT-0400 (Eastern Daylight Time)","671946","Untrustworthy,Trustworthy","","10685","","","","decision","","<div class='trialDiv'><img src='trustrating_stim/white_00602_940928_fb_edt.bmp'><br><font class='baseline'><strong>Anthony</strong><p>Choose number of points to send.</font><div class='respPicDiv'><img src='img/responseButtonOffersNo0L.png' class='respPic'></div></div>","3","1","Anthony","8","Kept","0.2,0.65","11","0.2","trustrating_stim/white_00602_940928_fb_edt.bmp","4.5","5","1"
"html-keyboard-response","138","349250","0.0-19.0-2.0","63b6be60f23fd8e0399f668c","bdp_trlrn","Wed Mar 15 2023 15:42:56 GMT-0400 (Eastern Daylight Time)","671946","Untrustworthy,Trustworthy","","null","","","","decisionFB","","<div class='trialDiv'><img src='trustrating_stim/white_00602_940928_fb_edt.bmp'><br><font class='baseline'><strong>Anthony</strong><p>Choose number of points to send.</font><div class='respPicDiv'><img src='img/responseButtonOffersNo0L3.png' class='respPic'></div></div>","null","1","Anthony","8","Kept","0.2,0.65","11","0.2","trustrating_stim/white_00602_940928_fb_edt.bmp","4.5","2","1"
"html-keyboard-response","139","350258","0.0-19.0-3.0","63b6be60f23fd8e0399f668c","bdp_trlrn","Wed Mar 15 2023 15:42:56 GMT-0400 (Eastern Daylight Time)","671946","Untrustworthy,Trustworthy","","null","","","","feedback","","<div class='trialDiv'><img src='trustrating_stim/white_00602_940928_fb_edt.bmp'><br><font class='baseline'><strong>Anthony</strong><p>Received: <strong>12</strong></font> &nbsp; &nbsp; &nbsp; &nbsp; &nbsp; &nbsp;<font class='negOutcome'>Shared back: <strong>0</strong></font></font><div class='respPicDiv'><img src='img/responseButtonOffersNo0_wht.png' class='respPic'></div></div>","null","1","Anthony","8","Kept","0.2,0.65","11","0.2","trustrating_stim/white_00602_940928_fb_edt.bmp","4.5","2","1"
"html-keyboard-response","140","354887","0.0-19.0-1.1","63b6be60f23fd8e0399f668c","bdp_trlrn","Wed Mar 15 2023 15:42:56 GMT-0400 (Eastern Daylight Time)","671946","Untrustworthy,Trustworthy","","4627","","","","decision","","<div class='trialDiv'><img src='trustrating_stim/white_mw048.bmp'><br><font class='baseline'><strong>Gavin</strong><p>Choose number of points to send.</font><div class='respPicDiv'><img src='img/responseButtonOffersNo0L.png' class='respPic'></div></div>","2","1","Gavin","5","Kept","0.2,0.8","11","0.2","trustrating_stim/white_mw048.bmp","3.5","7","2"
"html-keyboard-response","141","355148","0.0-19.0-2.1","63b6be60f23fd8e0399f668c","bdp_trlrn","Wed Mar 15 2023 15:42:56 GMT-0400 (Eastern Daylight Time)","671946","Untrustworthy,Trustworthy","","null","","","","decisionFB","","<div class='trialDiv'><img src='trustrating_stim/white_mw048.bmp'><br><font class='baseline'><strong>Gavin</strong><p>Choose number of points to send.</font><div class='respPicDiv'><img src='img/responseButtonOffersNo0L2.png' class='respPic'></div></div>","null","1","Gavin","5","Kept","0.2,0.8","11","0.2","trustrating_stim/white_mw048.bmp","3.5","5","2"
"html-keyboard-response","142","356156","0.0-19.0-3.1","63b6be60f23fd8e0399f668c","bdp_trlrn","Wed Mar 15 2023 15:42:56 GMT-0400 (Eastern Daylight Time)","671946","Untrustworthy,Trustworthy","","null","","","","feedback","","<div class='trialDiv'><img src='trustrating_stim/white_mw048.bmp'><br><font class='baseline'><strong>Gavin</strong><p>Received: <strong>8</strong></font> &nbsp; &nbsp; &nbsp; &nbsp; &nbsp; &nbsp;<font class='negOutcome'>Shared back: <strong>0</strong></font></font><div class='respPicDiv'><img src='img/responseButtonOffersNo0_wht.png' class='respPic'></div></div>","null","1","Gavin","5","Kept","0.2,0.8","11","0.2","trustrating_stim/white_mw048.bmp","3.5","5","2"
"html-keyboard-response","143","360764","0.0-19.0-1.2","63b6be60f23fd8e0399f668c","bdp_trlrn","Wed Mar 15 2023 15:42:56 GMT-0400 (Eastern Daylight Time)","671946","Untrustworthy,Trustworthy","","4605","","","","decision","","<div class='trialDiv'><img src='trustrating_stim/white_00757_941201_fa_edt.bmp'><br><font class='baseline'><strong>Sebastian</strong><p>Choose number of points to send.</font><div class='respPicDiv'><img src='img/responseButtonOffersNo0L.png' class='respPic'></div></div>","2","1","Sebastian","0","Shared","0.8,0.35","9","0.8","trustrating_stim/white_00757_941201_fa_edt.bmp","2","10","3"
"html-keyboard-response","144","361020","0.0-19.0-2.2","63b6be60f23fd8e0399f668c","bdp_trlrn","Wed Mar 15 2023 15:42:56 GMT-0400 (Eastern Daylight Time)","671946","Untrustworthy,Trustworthy","","null","","","","decisionFB","","<div class='trialDiv'><img src='trustrating_stim/white_00757_941201_fa_edt.bmp'><br><font class='baseline'><strong>Sebastian</strong><p>Choose number of points to send.</font><div class='respPicDiv'><img src='img/responseButtonOffersNo0L2.png' class='respPic'></div></div>","null","1","Sebastian","0","Shared","0.8,0.35","9","0.8","trustrating_stim/white_00757_941201_fa_edt.bmp","2","8","3"
"html-keyboard-response","145","362031","0.0-19.0-3.2","63b6be60f23fd8e0399f668c","bdp_trlrn","Wed Mar 15 2023 15:42:56 GMT-0400 (Eastern Daylight Time)","671946","Untrustworthy,Trustworthy","","null","","","","feedback","","<div class='trialDiv'><img src='trustrating_stim/white_00757_941201_fa_edt.bmp'><br><font class='baseline'><strong>Sebastian</strong><p>Received: <strong>8</strong></font> &nbsp; &nbsp; &nbsp; &nbsp; &nbsp; &nbsp;<font class='posOutcome'>Shared back: <strong>4</strong></font></font><div class='respPicDiv'><img src='img/responseButtonOffersNo0_wht.png' class='respPic'></div></div>","null","1","Sebastian","0","Shared","0.8,0.35","9","0.8","trustrating_stim/white_00757_941201_fa_edt.bmp","2","12","3"
"html-keyboard-response","146","363738","0.0-19.0-1.3","63b6be60f23fd8e0399f668c","bdp_trlrn","Wed Mar 15 2023 15:42:56 GMT-0400 (Eastern Daylight Time)","671946","Untrustworthy,Trustworthy","","1706","","","","decision","","<div class='trialDiv'><img src='trustrating_stim/white_mw048.bmp'><br><font class='baseline'><strong>Gavin</strong><p>Choose number of points to send.</font><div class='respPicDiv'><img src='img/responseButtonOffersNo0L.png' class='respPic'></div></div>","3","2","Gavin","5","Kept","0.2,0.8","11","0.2","trustrating_stim/white_mw048.bmp","3.5","17","4"
"html-keyboard-response","147","363996","0.0-19.0-2.3","63b6be60f23fd8e0399f668c","bdp_trlrn","Wed Mar 15 2023 15:42:56 GMT-0400 (Eastern Daylight Time)","671946","Untrustworthy,Trustworthy","","null","","","","decisionFB","","<div class='trialDiv'><img src='trustrating_stim/white_mw048.bmp'><br><font class='baseline'><strong>Gavin</strong><p>Choose number of points to send.</font><div class='respPicDiv'><img src='img/responseButtonOffersNo0L3.png' class='respPic'></div></div>","null","2","Gavin","5","Kept","0.2,0.8","11","0.2","trustrating_stim/white_mw048.bmp","3.5","14","4"
"html-keyboard-response","148","365004","0.0-19.0-3.3","63b6be60f23fd8e0399f668c","bdp_trlrn","Wed Mar 15 2023 15:42:56 GMT-0400 (Eastern Daylight Time)","671946","Untrustworthy,Trustworthy","","null","","","","feedback","","<div class='trialDiv'><img src='trustrating_stim/white_mw048.bmp'><br><font class='baseline'><strong>Gavin</strong><p>Received: <strong>12</strong></font> &nbsp; &nbsp; &nbsp; &nbsp; &nbsp; &nbsp;<font class='negOutcome'>Shared back: <strong>0</strong></font></font><div class='respPicDiv'><img src='img/responseButtonOffersNo0_wht.png' class='respPic'></div></div>","null","2","Gavin","5","Kept","0.2,0.8","11","0.2","trustrating_stim/white_mw048.bmp","3.5","14","4"
"html-keyboard-response","149","366461","0.0-19.0-1.4","63b6be60f23fd8e0399f668c","bdp_trlrn","Wed Mar 15 2023 15:42:56 GMT-0400 (Eastern Daylight Time)","671946","Untrustworthy,Trustworthy","","1455","","","","decision","","<div class='trialDiv'><img src='trustrating_stim/white_00757_941201_fa_edt.bmp'><br><font class='baseline'><strong>Sebastian</strong><p>Choose number of points to send.</font><div class='respPicDiv'><img src='img/responseButtonOffersNo0L.png' class='respPic'></div></div>","2","2","Sebastian","0","Shared","0.8,0.35","9","0.8","trustrating_stim/white_00757_941201_fa_edt.bmp","2","19","5"
"html-keyboard-response","150","366717","0.0-19.0-2.4","63b6be60f23fd8e0399f668c","bdp_trlrn","Wed Mar 15 2023 15:42:56 GMT-0400 (Eastern Daylight Time)","671946","Untrustworthy,Trustworthy","","null","","","","decisionFB","","<div class='trialDiv'><img src='trustrating_stim/white_00757_941201_fa_edt.bmp'><br><font class='baseline'><strong>Sebastian</strong><p>Choose number of points to send.</font><div class='respPicDiv'><img src='img/responseButtonOffersNo0L2.png' class='respPic'></div></div>","null","2","Sebastian","0","Shared","0.8,0.35","9","0.8","trustrating_stim/white_00757_941201_fa_edt.bmp","2","17","5"
"html-keyboard-response","151","367724","0.0-19.0-3.4","63b6be60f23fd8e0399f668c","bdp_trlrn","Wed Mar 15 2023 15:42:56 GMT-0400 (Eastern Daylight Time)","671946","Untrustworthy,Trustworthy","","null","","","","feedback","","<div class='trialDiv'><img src='trustrating_stim/white_00757_941201_fa_edt.bmp'><br><font class='baseline'><strong>Sebastian</strong><p>Received: <strong>8</strong></font> &nbsp; &nbsp; &nbsp; &nbsp; &nbsp; &nbsp;<font class='posOutcome'>Shared back: <strong>4</strong></font></font><div class='respPicDiv'><img src='img/responseButtonOffersNo0_wht.png' class='respPic'></div></div>","null","2","Sebastian","0","Shared","0.8,0.35","9","0.8","trustrating_stim/white_00757_941201_fa_edt.bmp","2","21","5"
"html-keyboard-response","152","369318","0.0-19.0-1.5","63b6be60f23fd8e0399f668c","bdp_trlrn","Wed Mar 15 2023 15:42:56 GMT-0400 (Eastern Daylight Time)","671946","Untrustworthy,Trustworthy","","1592","","","","decision","","<div class='trialDiv'><img src='trustrating_stim/white_00602_940928_fb_edt.bmp'><br><font class='baseline'><strong>Anthony</strong><p>Choose number of points to send.</font><div class='respPicDiv'><img src='img/responseButtonOffersNo0L.png' class='respPic'></div></div>","2","2","Anthony","8","Shared","0.2,0.65","11","0.2","trustrating_stim/white_00602_940928_fb_edt.bmp","4.5","26","6"
"html-keyboard-response","153","369570","0.0-19.0-2.5","63b6be60f23fd8e0399f668c","bdp_trlrn","Wed Mar 15 2023 15:42:56 GMT-0400 (Eastern Daylight Time)","671946","Untrustworthy,Trustworthy","","null","","","","decisionFB","","<div class='trialDiv'><img src='trustrating_stim/white_00602_940928_fb_edt.bmp'><br><font class='baseline'><strong>Anthony</strong><p>Choose number of points to send.</font><div class='respPicDiv'><img src='img/responseButtonOffersNo0L2.png' class='respPic'></div></div>","null","2","Anthony","8","Shared","0.2,0.65","11","0.2","trustrating_stim/white_00602_940928_fb_edt.bmp","4.5","24","6"
"html-keyboard-response","154","370579","0.0-19.0-3.5","63b6be60f23fd8e0399f668c","bdp_trlrn","Wed Mar 15 2023 15:42:56 GMT-0400 (Eastern Daylight Time)","671946","Untrustworthy,Trustworthy","","null","","","","feedback","","<div class='trialDiv'><img src='trustrating_stim/white_00602_940928_fb_edt.bmp'><br><font class='baseline'><strong>Anthony</strong><p>Received: <strong>8</strong></font> &nbsp; &nbsp; &nbsp; &nbsp; &nbsp; &nbsp;<font class='posOutcome'>Shared back: <strong>4</strong></font></font><div class='respPicDiv'><img src='img/responseButtonOffersNo0_wht.png' class='respPic'></div></div>","null","2","Anthony","8","Shared","0.2,0.65","11","0.2","trustrating_stim/white_00602_940928_fb_edt.bmp","4.5","28","6"
"html-keyboard-response","155","373307","0.0-19.0-1.6","63b6be60f23fd8e0399f668c","bdp_trlrn","Wed Mar 15 2023 15:42:56 GMT-0400 (Eastern Daylight Time)","671946","Untrustworthy,Trustworthy","","2727","","","","decision","","<div class='trialDiv'><img src='trustrating_stim/white_00757_941201_fa_edt.bmp'><br><font class='baseline'><strong>Sebastian</strong><p>Choose number of points to send.</font><div class='respPicDiv'><img src='img/responseButtonOffersNo0L.png' class='respPic'></div></div>","2","3","Sebastian","0","Shared","0.8,0.35","9","0.8","trustrating_stim/white_00757_941201_fa_edt.bmp","2","33","7"
"html-keyboard-response","156","373565","0.0-19.0-2.6","63b6be60f23fd8e0399f668c","bdp_trlrn","Wed Mar 15 2023 15:42:56 GMT-0400 (Eastern Daylight Time)","671946","Untrustworthy,Trustworthy","","null","","","","decisionFB","","<div class='trialDiv'><img src='trustrating_stim/white_00757_941201_fa_edt.bmp'><br><font class='baseline'><strong>Sebastian</strong><p>Choose number of points to send.</font><div class='respPicDiv'><img src='img/responseButtonOffersNo0L2.png' class='respPic'></div></div>","null","3","Sebastian","0","Shared","0.8,0.35","9","0.8","trustrating_stim/white_00757_941201_fa_edt.bmp","2","31","7"
"html-keyboard-response","157","374573","0.0-19.0-3.6","63b6be60f23fd8e0399f668c","bdp_trlrn","Wed Mar 15 2023 15:42:56 GMT-0400 (Eastern Daylight Time)","671946","Untrustworthy,Trustworthy","","null","","","","feedback","","<div class='trialDiv'><img src='trustrating_stim/white_00757_941201_fa_edt.bmp'><br><font class='baseline'><strong>Sebastian</strong><p>Received: <strong>8</strong></font> &nbsp; &nbsp; &nbsp; &nbsp; &nbsp; &nbsp;<font class='posOutcome'>Shared back: <strong>4</strong></font></font><div class='respPicDiv'><img src='img/responseButtonOffersNo0_wht.png' class='respPic'></div></div>","null","3","Sebastian","0","Shared","0.8,0.35","9","0.8","trustrating_stim/white_00757_941201_fa_edt.bmp","2","35","7"
"html-keyboard-response","158","375791","0.0-19.0-1.7","63b6be60f23fd8e0399f668c","bdp_trlrn","Wed Mar 15 2023 15:42:56 GMT-0400 (Eastern Daylight Time)","671946","Untrustworthy,Trustworthy","","1216","","","","decision","","<div class='trialDiv'><img src='trustrating_stim/white_mw048.bmp'><br><font class='baseline'><strong>Gavin</strong><p>Choose number of points to send.</font><div class='respPicDiv'><img src='img/responseButtonOffersNo0L.png' class='respPic'></div></div>","3","3","Gavin","5","Kept","0.2,0.8","11","0.2","trustrating_stim/white_mw048.bmp","3.5","40","8"
"html-keyboard-response","159","376045","0.0-19.0-2.7","63b6be60f23fd8e0399f668c","bdp_trlrn","Wed Mar 15 2023 15:42:56 GMT-0400 (Eastern Daylight Time)","671946","Untrustworthy,Trustworthy","","null","","","","decisionFB","","<div class='trialDiv'><img src='trustrating_stim/white_mw048.bmp'><br><font class='baseline'><strong>Gavin</strong><p>Choose number of points to send.</font><div class='respPicDiv'><img src='img/responseButtonOffersNo0L3.png' class='respPic'></div></div>","null","3","Gavin","5","Kept","0.2,0.8","11","0.2","trustrating_stim/white_mw048.bmp","3.5","37","8"
"html-keyboard-response","160","377053","0.0-19.0-3.7","63b6be60f23fd8e0399f668c","bdp_trlrn","Wed Mar 15 2023 15:42:56 GMT-0400 (Eastern Daylight Time)","671946","Untrustworthy,Trustworthy","","null","","","","feedback","","<div class='trialDiv'><img src='trustrating_stim/white_mw048.bmp'><br><font class='baseline'><strong>Gavin</strong><p>Received: <strong>12</strong></font> &nbsp; &nbsp; &nbsp; &nbsp; &nbsp; &nbsp;<font class='negOutcome'>Shared back: <strong>0</strong></font></font><div class='respPicDiv'><img src='img/responseButtonOffersNo0_wht.png' class='respPic'></div></div>","null","3","Gavin","5","Kept","0.2,0.8","11","0.2","trustrating_stim/white_mw048.bmp","3.5","37","8"
"html-keyboard-response","161","378008","0.0-19.0-1.8","63b6be60f23fd8e0399f668c","bdp_trlrn","Wed Mar 15 2023 15:42:56 GMT-0400 (Eastern Daylight Time)","671946","Untrustworthy,Trustworthy","","953","","","","decision","","<div class='trialDiv'><img src='trustrating_stim/white_00602_940928_fb_edt.bmp'><br><font class='baseline'><strong>Anthony</strong><p>Choose number of points to send.</font><div class='respPicDiv'><img src='img/responseButtonOffersNo0L.png' class='respPic'></div></div>","3","3","Anthony","8","Kept","0.2,0.65","11","0.2","trustrating_stim/white_00602_940928_fb_edt.bmp","4.5","42","9"
"html-keyboard-response","162","378269","0.0-19.0-2.8","63b6be60f23fd8e0399f668c","bdp_trlrn","Wed Mar 15 2023 15:42:56 GMT-0400 (Eastern Daylight Time)","671946","Untrustworthy,Trustworthy","","null","","","","decisionFB","","<div class='trialDiv'><img src='trustrating_stim/white_00602_940928_fb_edt.bmp'><br><font class='baseline'><strong>Anthony</strong><p>Choose number of points to send.</font><div class='respPicDiv'><img src='img/responseButtonOffersNo0L3.png' class='respPic'></div></div>","null","3","Anthony","8","Kept","0.2,0.65","11","0.2","trustrating_stim/white_00602_940928_fb_edt.bmp","4.5","39","9"
"html-keyboard-response","163","379277","0.0-19.0-3.8","63b6be60f23fd8e0399f668c","bdp_trlrn","Wed Mar 15 2023 15:42:56 GMT-0400 (Eastern Daylight Time)","671946","Untrustworthy,Trustworthy","","null","","","","feedback","","<div class='trialDiv'><img src='trustrating_stim/white_00602_940928_fb_edt.bmp'><br><font class='baseline'><strong>Anthony</strong><p>Received: <strong>12</strong></font> &nbsp; &nbsp; &nbsp; &nbsp; &nbsp; &nbsp;<font class='negOutcome'>Shared back: <strong>0</strong></font></font><div class='respPicDiv'><img src='img/responseButtonOffersNo0_wht.png' class='respPic'></div></div>","null","3","Anthony","8","Kept","0.2,0.65","11","0.2","trustrating_stim/white_00602_940928_fb_edt.bmp","4.5","39","9"
"html-keyboard-response","164","380025","0.0-19.0-1.9","63b6be60f23fd8e0399f668c","bdp_trlrn","Wed Mar 15 2023 15:42:56 GMT-0400 (Eastern Daylight Time)","671946","Untrustworthy,Trustworthy","","747","","","","decision","","<div class='trialDiv'><img src='trustrating_stim/white_00757_941201_fa_edt.bmp'><br><font class='baseline'><strong>Sebastian</strong><p>Choose number of points to send.</font><div class='respPicDiv'><img src='img/responseButtonOffersNo0L.png' class='respPic'></div></div>","2","4","Sebastian","0","Shared","0.8,0.35","9","0.8","trustrating_stim/white_00757_941201_fa_edt.bmp","2","44","10"
"html-keyboard-response","165","380284","0.0-19.0-2.9","63b6be60f23fd8e0399f668c","bdp_trlrn","Wed Mar 15 2023 15:42:56 GMT-0400 (Eastern Daylight Time)","671946","Untrustworthy,Trustworthy","","null","","","","decisionFB","","<div class='trialDiv'><img src='trustrating_stim/white_00757_941201_fa_edt.bmp'><br><font class='baseline'><strong>Sebastian</strong><p>Choose number of points to send.</font><div class='respPicDiv'><img src='img/responseButtonOffersNo0L2.png' class='respPic'></div></div>","null","4","Sebastian","0","Shared","0.8,0.35","9","0.8","trustrating_stim/white_00757_941201_fa_edt.bmp","2","42","10"
"html-keyboard-response","166","381296","0.0-19.0-3.9","63b6be60f23fd8e0399f668c","bdp_trlrn","Wed Mar 15 2023 15:42:56 GMT-0400 (Eastern Daylight Time)","671946","Untrustworthy,Trustworthy","","null","","","","feedback","","<div class='trialDiv'><img src='trustrating_stim/white_00757_941201_fa_edt.bmp'><br><font class='baseline'><strong>Sebastian</strong><p>Received: <strong>8</strong></font> &nbsp; &nbsp; &nbsp; &nbsp; &nbsp; &nbsp;<font class='posOutcome'>Shared back: <strong>4</strong></font></font><div class='respPicDiv'><img src='img/responseButtonOffersNo0_wht.png' class='respPic'></div></div>","null","4","Sebastian","0","Shared","0.8,0.35","9","0.8","trustrating_stim/white_00757_941201_fa_edt.bmp","2","46","10"
"html-keyboard-response","167","381813","0.0-19.0-1.10","63b6be60f23fd8e0399f668c","bdp_trlrn","Wed Mar 15 2023 15:42:56 GMT-0400 (Eastern Daylight Time)","671946","Untrustworthy,Trustworthy","","515","","","","decision","","<div class='trialDiv'><img src='trustrating_stim/white_mw048.bmp'><br><font class='baseline'><strong>Gavin</strong><p>Choose number of points to send.</font><div class='respPicDiv'><img src='img/responseButtonOffersNo0L.png' class='respPic'></div></div>","4","4","Gavin","5","Shared","0.2,0.8","11","0.2","trustrating_stim/white_mw048.bmp","3.5","51","11"
"html-keyboard-response","168","382067","0.0-19.0-2.10","63b6be60f23fd8e0399f668c","bdp_trlrn","Wed Mar 15 2023 15:42:56 GMT-0400 (Eastern Daylight Time)","671946","Untrustworthy,Trustworthy","","null","","","","decisionFB","","<div class='trialDiv'><img src='trustrating_stim/white_mw048.bmp'><br><font class='baseline'><strong>Gavin</strong><p>Choose number of points to send.</font><div class='respPicDiv'><img src='img/responseButtonOffersNo0L4.png' class='respPic'></div></div>","null","4","Gavin","5","Shared","0.2,0.8","11","0.2","trustrating_stim/white_mw048.bmp","3.5","47","11"
"html-keyboard-response","169","383075","0.0-19.0-3.10","63b6be60f23fd8e0399f668c","bdp_trlrn","Wed Mar 15 2023 15:42:56 GMT-0400 (Eastern Daylight Time)","671946","Untrustworthy,Trustworthy","","null","","","","feedback","","<div class='trialDiv'><img src='trustrating_stim/white_mw048.bmp'><br><font class='baseline'><strong>Gavin</strong><p>Received: <strong>16</strong></font> &nbsp; &nbsp; &nbsp; &nbsp; &nbsp; &nbsp;<font class='posOutcome'>Shared back: <strong>8</strong></font></font><div class='respPicDiv'><img src='img/responseButtonOffersNo0_wht.png' class='respPic'></div></div>","null","4","Gavin","5","Shared","0.2,0.8","11","0.2","trustrating_stim/white_mw048.bmp","3.5","55","11"
"html-keyboard-response","170","385558","0.0-19.0-1.11","63b6be60f23fd8e0399f668c","bdp_trlrn","Wed Mar 15 2023 15:42:56 GMT-0400 (Eastern Daylight Time)","671946","Untrustworthy,Trustworthy","","2482","","","","decision","","<div class='trialDiv'><img src='trustrating_stim/white_00602_940928_fb_edt.bmp'><br><font class='baseline'><strong>Anthony</strong><p>Choose number of points to send.</font><div class='respPicDiv'><img src='img/responseButtonOffersNo0L.png' class='respPic'></div></div>","2","4","Anthony","8","Kept","0.2,0.65","11","0.2","trustrating_stim/white_00602_940928_fb_edt.bmp","4.5","60","12"
"html-keyboard-response","171","385821","0.0-19.0-2.11","63b6be60f23fd8e0399f668c","bdp_trlrn","Wed Mar 15 2023 15:42:56 GMT-0400 (Eastern Daylight Time)","671946","Untrustworthy,Trustworthy","","null","","","","decisionFB","","<div class='trialDiv'><img src='trustrating_stim/white_00602_940928_fb_edt.bmp'><br><font class='baseline'><strong>Anthony</strong><p>Choose number of points to send.</font><div class='respPicDiv'><img src='img/responseButtonOffersNo0L2.png' class='respPic'></div></div>","null","4","Anthony","8","Kept","0.2,0.65","11","0.2","trustrating_stim/white_00602_940928_fb_edt.bmp","4.5","58","12"
"html-keyboard-response","172","386829","0.0-19.0-3.11","63b6be60f23fd8e0399f668c","bdp_trlrn","Wed Mar 15 2023 15:42:56 GMT-0400 (Eastern Daylight Time)","671946","Untrustworthy,Trustworthy","","null","","","","feedback","","<div class='trialDiv'><img src='trustrating_stim/white_00602_940928_fb_edt.bmp'><br><font class='baseline'><strong>Anthony</strong><p>Received: <strong>8</strong></font> &nbsp; &nbsp; &nbsp; &nbsp; &nbsp; &nbsp;<font class='negOutcome'>Shared back: <strong>0</strong></font></font><div class='respPicDiv'><img src='img/responseButtonOffersNo0_wht.png' class='respPic'></div></div>","null","4","Anthony","8","Kept","0.2,0.65","11","0.2","trustrating_stim/white_00602_940928_fb_edt.bmp","4.5","58","12"
"html-keyboard-response","173","389893","0.0-19.0-1.12","63b6be60f23fd8e0399f668c","bdp_trlrn","Wed Mar 15 2023 15:42:56 GMT-0400 (Eastern Daylight Time)","671946","Untrustworthy,Trustworthy","","3062","","","","decision","","<div class='trialDiv'><img src='trustrating_stim/white_mw048.bmp'><br><font class='baseline'><strong>Gavin</strong><p>Choose number of points to send.</font><div class='respPicDiv'><img src='img/responseButtonOffersNo0L.png' class='respPic'></div></div>","3","5","Gavin","5","Kept","0.2,0.8","11","0.2","trustrating_stim/white_mw048.bmp","3.5","63","13"
"html-keyboard-response","174","390147","0.0-19.0-2.12","63b6be60f23fd8e0399f668c","bdp_trlrn","Wed Mar 15 2023 15:42:56 GMT-0400 (Eastern Daylight Time)","671946","Untrustworthy,Trustworthy","","null","","","","decisionFB","","<div class='trialDiv'><img src='trustrating_stim/white_mw048.bmp'><br><font class='baseline'><strong>Gavin</strong><p>Choose number of points to send.</font><div class='respPicDiv'><img src='img/responseButtonOffersNo0L3.png' class='respPic'></div></div>","null","5","Gavin","5","Kept","0.2,0.8","11","0.2","trustrating_stim/white_mw048.bmp","3.5","60","13"
"html-keyboard-response","175","391155","0.0-19.0-3.12","63b6be60f23fd8e0399f668c","bdp_trlrn","Wed Mar 15 2023 15:42:56 GMT-0400 (Eastern Daylight Time)","671946","Untrustworthy,Trustworthy","","null","","","","feedback","","<div class='trialDiv'><img src='trustrating_stim/white_mw048.bmp'><br><font class='baseline'><strong>Gavin</strong><p>Received: <strong>12</strong></font> &nbsp; &nbsp; &nbsp; &nbsp; &nbsp; &nbsp;<font class='negOutcome'>Shared back: <strong>0</strong></font></font><div class='respPicDiv'><img src='img/responseButtonOffersNo0_wht.png' class='respPic'></div></div>","null","5","Gavin","5","Kept","0.2,0.8","11","0.2","trustrating_stim/white_mw048.bmp","3.5","60","13"
"html-keyboard-response","176","392034","0.0-19.0-1.13","63b6be60f23fd8e0399f668c","bdp_trlrn","Wed Mar 15 2023 15:42:56 GMT-0400 (Eastern Daylight Time)","671946","Untrustworthy,Trustworthy","","877","","","","decision","","<div class='trialDiv'><img src='trustrating_stim/white_00757_941201_fa_edt.bmp'><br><font class='baseline'><strong>Sebastian</strong><p>Choose number of points to send.</font><div class='respPicDiv'><img src='img/responseButtonOffersNo0L.png' class='respPic'></div></div>","2","5","Sebastian","0","Shared","0.8,0.35","9","0.8","trustrating_stim/white_00757_941201_fa_edt.bmp","2","65","14"
"html-keyboard-response","177","392291","0.0-19.0-2.13","63b6be60f23fd8e0399f668c","bdp_trlrn","Wed Mar 15 2023 15:42:56 GMT-0400 (Eastern Daylight Time)","671946","Untrustworthy,Trustworthy","","null","","","","decisionFB","","<div class='trialDiv'><img src='trustrating_stim/white_00757_941201_fa_edt.bmp'><br><font class='baseline'><strong>Sebastian</strong><p>Choose number of points to send.</font><div class='respPicDiv'><img src='img/responseButtonOffersNo0L2.png' class='respPic'></div></div>","null","5","Sebastian","0","Shared","0.8,0.35","9","0.8","trustrating_stim/white_00757_941201_fa_edt.bmp","2","63","14"
"html-keyboard-response","178","393299","0.0-19.0-3.13","63b6be60f23fd8e0399f668c","bdp_trlrn","Wed Mar 15 2023 15:42:56 GMT-0400 (Eastern Daylight Time)","671946","Untrustworthy,Trustworthy","","null","","","","feedback","","<div class='trialDiv'><img src='trustrating_stim/white_00757_941201_fa_edt.bmp'><br><font class='baseline'><strong>Sebastian</strong><p>Received: <strong>8</strong></font> &nbsp; &nbsp; &nbsp; &nbsp; &nbsp; &nbsp;<font class='posOutcome'>Shared back: <strong>4</strong></font></font><div class='respPicDiv'><img src='img/responseButtonOffersNo0_wht.png' class='respPic'></div></div>","null","5","Sebastian","0","Shared","0.8,0.35","9","0.8","trustrating_stim/white_00757_941201_fa_edt.bmp","2","67","14"
"html-keyboard-response","179","394521","0.0-19.0-1.14","63b6be60f23fd8e0399f668c","bdp_trlrn","Wed Mar 15 2023 15:42:56 GMT-0400 (Eastern Daylight Time)","671946","Untrustworthy,Trustworthy","","1220","","","","decision","","<div class='trialDiv'><img src='trustrating_stim/white_00602_940928_fb_edt.bmp'><br><font class='baseline'><strong>Anthony</strong><p>Choose number of points to send.</font><div class='respPicDiv'><img src='img/responseButtonOffersNo0L.png' class='respPic'></div></div>","3","5","Anthony","8","Kept","0.2,0.65","11","0.2","trustrating_stim/white_00602_940928_fb_edt.bmp","4.5","72","15"
"html-keyboard-response","180","394781","0.0-19.0-2.14","63b6be60f23fd8e0399f668c","bdp_trlrn","Wed Mar 15 2023 15:42:56 GMT-0400 (Eastern Daylight Time)","671946","Untrustworthy,Trustworthy","","null","","","","decisionFB","","<div class='trialDiv'><img src='trustrating_stim/white_00602_940928_fb_edt.bmp'><br><font class='baseline'><strong>Anthony</strong><p>Choose number of points to send.</font><div class='respPicDiv'><img src='img/responseButtonOffersNo0L3.png' class='respPic'></div></div>","null","5","Anthony","8","Kept","0.2,0.65","11","0.2","trustrating_stim/white_00602_940928_fb_edt.bmp","4.5","69","15"
"html-keyboard-response","181","395789","0.0-19.0-3.14","63b6be60f23fd8e0399f668c","bdp_trlrn","Wed Mar 15 2023 15:42:56 GMT-0400 (Eastern Daylight Time)","671946","Untrustworthy,Trustworthy","","null","","","","feedback","","<div class='trialDiv'><img src='trustrating_stim/white_00602_940928_fb_edt.bmp'><br><font class='baseline'><strong>Anthony</strong><p>Received: <strong>12</strong></font> &nbsp; &nbsp; &nbsp; &nbsp; &nbsp; &nbsp;<font class='negOutcome'>Shared back: <strong>0</strong></font></font><div class='respPicDiv'><img src='img/responseButtonOffersNo0_wht.png' class='respPic'></div></div>","null","5","Anthony","8","Kept","0.2,0.65","11","0.2","trustrating_stim/white_00602_940928_fb_edt.bmp","4.5","69","15"
"html-keyboard-response","182","396713","0.0-19.0-1.15","63b6be60f23fd8e0399f668c","bdp_trlrn","Wed Mar 15 2023 15:42:56 GMT-0400 (Eastern Daylight Time)","671946","Untrustworthy,Trustworthy","","922","","","","decision","","<div class='trialDiv'><img src='trustrating_stim/white_00757_941201_fa_edt.bmp'><br><font class='baseline'><strong>Sebastian</strong><p>Choose number of points to send.</font><div class='respPicDiv'><img src='img/responseButtonOffersNo0L.png' class='respPic'></div></div>","1","6","Sebastian","0","Kept","0.8,0.35","9","0.8","trustrating_stim/white_00757_941201_fa_edt.bmp","2","74","16"
"html-keyboard-response","183","396973","0.0-19.0-2.15","63b6be60f23fd8e0399f668c","bdp_trlrn","Wed Mar 15 2023 15:42:56 GMT-0400 (Eastern Daylight Time)","671946","Untrustworthy,Trustworthy","","null","","","","decisionFB","","<div class='trialDiv'><img src='trustrating_stim/white_00757_941201_fa_edt.bmp'><br><font class='baseline'><strong>Sebastian</strong><p>Choose number of points to send.</font><div class='respPicDiv'><img src='img/responseButtonOffersNo0L1.png' class='respPic'></div></div>","null","6","Sebastian","0","Kept","0.8,0.35","9","0.8","trustrating_stim/white_00757_941201_fa_edt.bmp","2","73","16"
"html-keyboard-response","184","397982","0.0-19.0-3.15","63b6be60f23fd8e0399f668c","bdp_trlrn","Wed Mar 15 2023 15:42:56 GMT-0400 (Eastern Daylight Time)","671946","Untrustworthy,Trustworthy","","null","","","","feedback","","<div class='trialDiv'><img src='trustrating_stim/white_00757_941201_fa_edt.bmp'><br><font class='baseline'><strong>Sebastian</strong><p>Received: <strong>4</strong></font> &nbsp; &nbsp; &nbsp; &nbsp; &nbsp; &nbsp;<font class='negOutcome'>Shared back: <strong>0</strong></font></font><div class='respPicDiv'><img src='img/responseButtonOffersNo0_wht.png' class='respPic'></div></div>","null","6","Sebastian","0","Kept","0.8,0.35","9","0.8","trustrating_stim/white_00757_941201_fa_edt.bmp","2","73","16"
"html-keyboard-response","185","398639","0.0-19.0-1.16","63b6be60f23fd8e0399f668c","bdp_trlrn","Wed Mar 15 2023 15:42:56 GMT-0400 (Eastern Daylight Time)","671946","Untrustworthy,Trustworthy","","656","","","","decision","","<div class='trialDiv'><img src='trustrating_stim/white_00602_940928_fb_edt.bmp'><br><font class='baseline'><strong>Anthony</strong><p>Choose number of points to send.</font><div class='respPicDiv'><img src='img/responseButtonOffersNo0L.png' class='respPic'></div></div>","2","6","Anthony","8","Kept","0.2,0.65","11","0.2","trustrating_stim/white_00602_940928_fb_edt.bmp","4.5","78","17"
"html-keyboard-response","186","398891","0.0-19.0-2.16","63b6be60f23fd8e0399f668c","bdp_trlrn","Wed Mar 15 2023 15:42:56 GMT-0400 (Eastern Daylight Time)","671946","Untrustworthy,Trustworthy","","null","","","","decisionFB","","<div class='trialDiv'><img src='trustrating_stim/white_00602_940928_fb_edt.bmp'><br><font class='baseline'><strong>Anthony</strong><p>Choose number of points to send.</font><div class='respPicDiv'><img src='img/responseButtonOffersNo0L2.png' class='respPic'></div></div>","null","6","Anthony","8","Kept","0.2,0.65","11","0.2","trustrating_stim/white_00602_940928_fb_edt.bmp","4.5","76","17"
"html-keyboard-response","187","399902","0.0-19.0-3.16","63b6be60f23fd8e0399f668c","bdp_trlrn","Wed Mar 15 2023 15:42:56 GMT-0400 (Eastern Daylight Time)","671946","Untrustworthy,Trustworthy","","null","","","","feedback","","<div class='trialDiv'><img src='trustrating_stim/white_00602_940928_fb_edt.bmp'><br><font class='baseline'><strong>Anthony</strong><p>Received: <strong>8</strong></font> &nbsp; &nbsp; &nbsp; &nbsp; &nbsp; &nbsp;<font class='negOutcome'>Shared back: <strong>0</strong></font></font><div class='respPicDiv'><img src='img/responseButtonOffersNo0_wht.png' class='respPic'></div></div>","null","6","Anthony","8","Kept","0.2,0.65","11","0.2","trustrating_stim/white_00602_940928_fb_edt.bmp","4.5","76","17"
"html-keyboard-response","188","401588","0.0-19.0-1.17","63b6be60f23fd8e0399f668c","bdp_trlrn","Wed Mar 15 2023 15:42:56 GMT-0400 (Eastern Daylight Time)","671946","Untrustworthy,Trustworthy","","1685","","","","decision","","<div class='trialDiv'><img src='trustrating_stim/white_mw048.bmp'><br><font class='baseline'><strong>Gavin</strong><p>Choose number of points to send.</font><div class='respPicDiv'><img src='img/responseButtonOffersNo0L.png' class='respPic'></div></div>","3","6","Gavin","5","Kept","0.2,0.8","11","0.2","trustrating_stim/white_mw048.bmp","3.5","81","18"
"html-keyboard-response","189","401843","0.0-19.0-2.17","63b6be60f23fd8e0399f668c","bdp_trlrn","Wed Mar 15 2023 15:42:56 GMT-0400 (Eastern Daylight Time)","671946","Untrustworthy,Trustworthy","","null","","","","decisionFB","","<div class='trialDiv'><img src='trustrating_stim/white_mw048.bmp'><br><font class='baseline'><strong>Gavin</strong><p>Choose number of points to send.</font><div class='respPicDiv'><img src='img/responseButtonOffersNo0L3.png' class='respPic'></div></div>","null","6","Gavin","5","Kept","0.2,0.8","11","0.2","trustrating_stim/white_mw048.bmp","3.5","78","18"
"html-keyboard-response","190","402851","0.0-19.0-3.17","63b6be60f23fd8e0399f668c","bdp_trlrn","Wed Mar 15 2023 15:42:56 GMT-0400 (Eastern Daylight Time)","671946","Untrustworthy,Trustworthy","","null","","","","feedback","","<div class='trialDiv'><img src='trustrating_stim/white_mw048.bmp'><br><font class='baseline'><strong>Gavin</strong><p>Received: <strong>12</strong></font> &nbsp; &nbsp; &nbsp; &nbsp; &nbsp; &nbsp;<font class='negOutcome'>Shared back: <strong>0</strong></font></font><div class='respPicDiv'><img src='img/responseButtonOffersNo0_wht.png' class='respPic'></div></div>","null","6","Gavin","5","Kept","0.2,0.8","11","0.2","trustrating_stim/white_mw048.bmp","3.5","78","18"
"html-keyboard-response","191","404470","0.0-19.0-1.18","63b6be60f23fd8e0399f668c","bdp_trlrn","Wed Mar 15 2023 15:42:56 GMT-0400 (Eastern Daylight Time)","671946","Untrustworthy,Trustworthy","","1617","","","","decision","","<div class='trialDiv'><img src='trustrating_stim/white_00602_940928_fb_edt.bmp'><br><font class='baseline'><strong>Anthony</strong><p>Choose number of points to send.</font><div class='respPicDiv'><img src='img/responseButtonOffersNo0L.png' class='respPic'></div></div>","4","7","Anthony","8","Kept","0.2,0.65","11","0.2","trustrating_stim/white_00602_940928_fb_edt.bmp","4.5","83","19"
"html-keyboard-response","192","404723","0.0-19.0-2.18","63b6be60f23fd8e0399f668c","bdp_trlrn","Wed Mar 15 2023 15:42:56 GMT-0400 (Eastern Daylight Time)","671946","Untrustworthy,Trustworthy","","null","","","","decisionFB","","<div class='trialDiv'><img src='trustrating_stim/white_00602_940928_fb_edt.bmp'><br><font class='baseline'><strong>Anthony</strong><p>Choose number of points to send.</font><div class='respPicDiv'><img src='img/responseButtonOffersNo0L4.png' class='respPic'></div></div>","null","7","Anthony","8","Kept","0.2,0.65","11","0.2","trustrating_stim/white_00602_940928_fb_edt.bmp","4.5","79","19"
"html-keyboard-response","193","405731","0.0-19.0-3.18","63b6be60f23fd8e0399f668c","bdp_trlrn","Wed Mar 15 2023 15:42:56 GMT-0400 (Eastern Daylight Time)","671946","Untrustworthy,Trustworthy","","null","","","","feedback","","<div class='trialDiv'><img src='trustrating_stim/white_00602_940928_fb_edt.bmp'><br><font class='baseline'><strong>Anthony</strong><p>Received: <strong>16</strong></font> &nbsp; &nbsp; &nbsp; &nbsp; &nbsp; &nbsp;<font class='negOutcome'>Shared back: <strong>0</strong></font></font><div class='respPicDiv'><img src='img/responseButtonOffersNo0_wht.png' class='respPic'></div></div>","null","7","Anthony","8","Kept","0.2,0.65","11","0.2","trustrating_stim/white_00602_940928_fb_edt.bmp","4.5","79","19"
"html-keyboard-response","194","406582","0.0-19.0-1.19","63b6be60f23fd8e0399f668c","bdp_trlrn","Wed Mar 15 2023 15:42:56 GMT-0400 (Eastern Daylight Time)","671946","Untrustworthy,Trustworthy","","849","","","","decision","","<div class='trialDiv'><img src='trustrating_stim/white_mw048.bmp'><br><font class='baseline'><strong>Gavin</strong><p>Choose number of points to send.</font><div class='respPicDiv'><img src='img/responseButtonOffersNo0L.png' class='respPic'></div></div>","4","7","Gavin","5","Shared","0.2,0.8","11","0.2","trustrating_stim/white_mw048.bmp","3.5","84","20"
"html-keyboard-response","195","406835","0.0-19.0-2.19","63b6be60f23fd8e0399f668c","bdp_trlrn","Wed Mar 15 2023 15:42:56 GMT-0400 (Eastern Daylight Time)","671946","Untrustworthy,Trustworthy","","null","","","","decisionFB","","<div class='trialDiv'><img src='trustrating_stim/white_mw048.bmp'><br><font class='baseline'><strong>Gavin</strong><p>Choose number of points to send.</font><div class='respPicDiv'><img src='img/responseButtonOffersNo0L4.png' class='respPic'></div></div>","null","7","Gavin","5","Shared","0.2,0.8","11","0.2","trustrating_stim/white_mw048.bmp","3.5","80","20"
"html-keyboard-response","196","407844","0.0-19.0-3.19","63b6be60f23fd8e0399f668c","bdp_trlrn","Wed Mar 15 2023 15:42:56 GMT-0400 (Eastern Daylight Time)","671946","Untrustworthy,Trustworthy","","null","","","","feedback","","<div class='trialDiv'><img src='trustrating_stim/white_mw048.bmp'><br><font class='baseline'><strong>Gavin</strong><p>Received: <strong>16</strong></font> &nbsp; &nbsp; &nbsp; &nbsp; &nbsp; &nbsp;<font class='posOutcome'>Shared back: <strong>8</strong></font></font><div class='respPicDiv'><img src='img/responseButtonOffersNo0_wht.png' class='respPic'></div></div>","null","7","Gavin","5","Shared","0.2,0.8","11","0.2","trustrating_stim/white_mw048.bmp","3.5","88","20"
"html-keyboard-response","197","408894","0.0-19.0-1.20","63b6be60f23fd8e0399f668c","bdp_trlrn","Wed Mar 15 2023 15:42:56 GMT-0400 (Eastern Daylight Time)","671946","Untrustworthy,Trustworthy","","1048","","","","decision","","<div class='trialDiv'><img src='trustrating_stim/white_00757_941201_fa_edt.bmp'><br><font class='baseline'><strong>Sebastian</strong><p>Choose number of points to send.</font><div class='respPicDiv'><img src='img/responseButtonOffersNo0L.png' class='respPic'></div></div>","1","7","Sebastian","0","Shared","0.8,0.35","9","0.8","trustrating_stim/white_00757_941201_fa_edt.bmp","2","93","21"
"html-keyboard-response","198","409149","0.0-19.0-2.20","63b6be60f23fd8e0399f668c","bdp_trlrn","Wed Mar 15 2023 15:42:56 GMT-0400 (Eastern Daylight Time)","671946","Untrustworthy,Trustworthy","","null","","","","decisionFB","","<div class='trialDiv'><img src='trustrating_stim/white_00757_941201_fa_edt.bmp'><br><font class='baseline'><strong>Sebastian</strong><p>Choose number of points to send.</font><div class='respPicDiv'><img src='img/responseButtonOffersNo0L1.png' class='respPic'></div></div>","null","7","Sebastian","0","Shared","0.8,0.35","9","0.8","trustrating_stim/white_00757_941201_fa_edt.bmp","2","92","21"
"html-keyboard-response","199","410158","0.0-19.0-3.20","63b6be60f23fd8e0399f668c","bdp_trlrn","Wed Mar 15 2023 15:42:56 GMT-0400 (Eastern Daylight Time)","671946","Untrustworthy,Trustworthy","","null","","","","feedback","","<div class='trialDiv'><img src='trustrating_stim/white_00757_941201_fa_edt.bmp'><br><font class='baseline'><strong>Sebastian</strong><p>Received: <strong>4</strong></font> &nbsp; &nbsp; &nbsp; &nbsp; &nbsp; &nbsp;<font class='posOutcome'>Shared back: <strong>2</strong></font></font><div class='respPicDiv'><img src='img/responseButtonOffersNo0_wht.png' class='respPic'></div></div>","null","7","Sebastian","0","Shared","0.8,0.35","9","0.8","trustrating_stim/white_00757_941201_fa_edt.bmp","2","94","21"
"html-keyboard-response","200","411106","0.0-19.0-1.21","63b6be60f23fd8e0399f668c","bdp_trlrn","Wed Mar 15 2023 15:42:56 GMT-0400 (Eastern Daylight Time)","671946","Untrustworthy,Trustworthy","","946","","","","decision","","<div class='trialDiv'><img src='trustrating_stim/white_mw048.bmp'><br><font class='baseline'><strong>Gavin</strong><p>Choose number of points to send.</font><div class='respPicDiv'><img src='img/responseButtonOffersNo0L.png' class='respPic'></div></div>","3","8","Gavin","5","Kept","0.2,0.8","11","0.2","trustrating_stim/white_mw048.bmp","3.5","99","22"
"html-keyboard-response","201","411363","0.0-19.0-2.21","63b6be60f23fd8e0399f668c","bdp_trlrn","Wed Mar 15 2023 15:42:56 GMT-0400 (Eastern Daylight Time)","671946","Untrustworthy,Trustworthy","","null","","","","decisionFB","","<div class='trialDiv'><img src='trustrating_stim/white_mw048.bmp'><br><font class='baseline'><strong>Gavin</strong><p>Choose number of points to send.</font><div class='respPicDiv'><img src='img/responseButtonOffersNo0L3.png' class='respPic'></div></div>","null","8","Gavin","5","Kept","0.2,0.8","11","0.2","trustrating_stim/white_mw048.bmp","3.5","96","22"
"html-keyboard-response","202","412371","0.0-19.0-3.21","63b6be60f23fd8e0399f668c","bdp_trlrn","Wed Mar 15 2023 15:42:56 GMT-0400 (Eastern Daylight Time)","671946","Untrustworthy,Trustworthy","","null","","","","feedback","","<div class='trialDiv'><img src='trustrating_stim/white_mw048.bmp'><br><font class='baseline'><strong>Gavin</strong><p>Received: <strong>12</strong></font> &nbsp; &nbsp; &nbsp; &nbsp; &nbsp; &nbsp;<font class='negOutcome'>Shared back: <strong>0</strong></font></font><div class='respPicDiv'><img src='img/responseButtonOffersNo0_wht.png' class='respPic'></div></div>","null","8","Gavin","5","Kept","0.2,0.8","11","0.2","trustrating_stim/white_mw048.bmp","3.5","96","22"
"html-keyboard-response","203","413572","0.0-19.0-1.22","63b6be60f23fd8e0399f668c","bdp_trlrn","Wed Mar 15 2023 15:42:56 GMT-0400 (Eastern Daylight Time)","671946","Untrustworthy,Trustworthy","","1199","","","","decision","","<div class='trialDiv'><img src='trustrating_stim/white_00602_940928_fb_edt.bmp'><br><font class='baseline'><strong>Anthony</strong><p>Choose number of points to send.</font><div class='respPicDiv'><img src='img/responseButtonOffersNo0L.png' class='respPic'></div></div>","3","8","Anthony","8","Kept","0.2,0.65","11","0.2","trustrating_stim/white_00602_940928_fb_edt.bmp","4.5","101","23"
"html-keyboard-response","204","413829","0.0-19.0-2.22","63b6be60f23fd8e0399f668c","bdp_trlrn","Wed Mar 15 2023 15:42:56 GMT-0400 (Eastern Daylight Time)","671946","Untrustworthy,Trustworthy","","null","","","","decisionFB","","<div class='trialDiv'><img src='trustrating_stim/white_00602_940928_fb_edt.bmp'><br><font class='baseline'><strong>Anthony</strong><p>Choose number of points to send.</font><div class='respPicDiv'><img src='img/responseButtonOffersNo0L3.png' class='respPic'></div></div>","null","8","Anthony","8","Kept","0.2,0.65","11","0.2","trustrating_stim/white_00602_940928_fb_edt.bmp","4.5","98","23"
"html-keyboard-response","205","414835","0.0-19.0-3.22","63b6be60f23fd8e0399f668c","bdp_trlrn","Wed Mar 15 2023 15:42:56 GMT-0400 (Eastern Daylight Time)","671946","Untrustworthy,Trustworthy","","null","","","","feedback","","<div class='trialDiv'><img src='trustrating_stim/white_00602_940928_fb_edt.bmp'><br><font class='baseline'><strong>Anthony</strong><p>Received: <strong>12</strong></font> &nbsp; &nbsp; &nbsp; &nbsp; &nbsp; &nbsp;<font class='negOutcome'>Shared back: <strong>0</strong></font></font><div class='respPicDiv'><img src='img/responseButtonOffersNo0_wht.png' class='respPic'></div></div>","null","8","Anthony","8","Kept","0.2,0.65","11","0.2","trustrating_stim/white_00602_940928_fb_edt.bmp","4.5","98","23"
"html-keyboard-response","206","415770","0.0-19.0-1.23","63b6be60f23fd8e0399f668c","bdp_trlrn","Wed Mar 15 2023 15:42:56 GMT-0400 (Eastern Daylight Time)","671946","Untrustworthy,Trustworthy","","933","","","","decision","","<div class='trialDiv'><img src='trustrating_stim/white_00757_941201_fa_edt.bmp'><br><font class='baseline'><strong>Sebastian</strong><p>Choose number of points to send.</font><div class='respPicDiv'><img src='img/responseButtonOffersNo0L.png' class='respPic'></div></div>","3","8","Sebastian","0","Shared","0.8,0.35","9","0.8","trustrating_stim/white_00757_941201_fa_edt.bmp","2","103","24"
"html-keyboard-response","207","416029","0.0-19.0-2.23","63b6be60f23fd8e0399f668c","bdp_trlrn","Wed Mar 15 2023 15:42:56 GMT-0400 (Eastern Daylight Time)","671946","Untrustworthy,Trustworthy","","null","","","","decisionFB","","<div class='trialDiv'><img src='trustrating_stim/white_00757_941201_fa_edt.bmp'><br><font class='baseline'><strong>Sebastian</strong><p>Choose number of points to send.</font><div class='respPicDiv'><img src='img/responseButtonOffersNo0L3.png' class='respPic'></div></div>","null","8","Sebastian","0","Shared","0.8,0.35","9","0.8","trustrating_stim/white_00757_941201_fa_edt.bmp","2","100","24"
"html-keyboard-response","208","417038","0.0-19.0-3.23","63b6be60f23fd8e0399f668c","bdp_trlrn","Wed Mar 15 2023 15:42:56 GMT-0400 (Eastern Daylight Time)","671946","Untrustworthy,Trustworthy","","null","","","","feedback","","<div class='trialDiv'><img src='trustrating_stim/white_00757_941201_fa_edt.bmp'><br><font class='baseline'><strong>Sebastian</strong><p>Received: <strong>12</strong></font> &nbsp; &nbsp; &nbsp; &nbsp; &nbsp; &nbsp;<font class='posOutcome'>Shared back: <strong>6</strong></font></font><div class='respPicDiv'><img src='img/responseButtonOffersNo0_wht.png' class='respPic'></div></div>","null","8","Sebastian","0","Shared","0.8,0.35","9","0.8","trustrating_stim/white_00757_941201_fa_edt.bmp","2","106","24"
"html-keyboard-response","209","417893","0.0-19.0-1.24","63b6be60f23fd8e0399f668c","bdp_trlrn","Wed Mar 15 2023 15:42:56 GMT-0400 (Eastern Daylight Time)","671946","Untrustworthy,Trustworthy","","854","","","","decision","","<div class='trialDiv'><img src='trustrating_stim/white_mw048.bmp'><br><font class='baseline'><strong>Gavin</strong><p>Choose number of points to send.</font><div class='respPicDiv'><img src='img/responseButtonOffersNo0L.png' class='respPic'></div></div>","4","9","Gavin","5","Kept","0.2,0.8","11","0.2","trustrating_stim/white_mw048.bmp","3.5","111","25"
"html-keyboard-response","210","418149","0.0-19.0-2.24","63b6be60f23fd8e0399f668c","bdp_trlrn","Wed Mar 15 2023 15:42:56 GMT-0400 (Eastern Daylight Time)","671946","Untrustworthy,Trustworthy","","null","","","","decisionFB","","<div class='trialDiv'><img src='trustrating_stim/white_mw048.bmp'><br><font class='baseline'><strong>Gavin</strong><p>Choose number of points to send.</font><div class='respPicDiv'><img src='img/responseButtonOffersNo0L4.png' class='respPic'></div></div>","null","9","Gavin","5","Kept","0.2,0.8","11","0.2","trustrating_stim/white_mw048.bmp","3.5","107","25"
"html-keyboard-response","211","419159","0.0-19.0-3.24","63b6be60f23fd8e0399f668c","bdp_trlrn","Wed Mar 15 2023 15:42:56 GMT-0400 (Eastern Daylight Time)","671946","Untrustworthy,Trustworthy","","null","","","","feedback","","<div class='trialDiv'><img src='trustrating_stim/white_mw048.bmp'><br><font class='baseline'><strong>Gavin</strong><p>Received: <strong>16</strong></font> &nbsp; &nbsp; &nbsp; &nbsp; &nbsp; &nbsp;<font class='negOutcome'>Shared back: <strong>0</strong></font></font><div class='respPicDiv'><img src='img/responseButtonOffersNo0_wht.png' class='respPic'></div></div>","null","9","Gavin","5","Kept","0.2,0.8","11","0.2","trustrating_stim/white_mw048.bmp","3.5","107","25"
"html-keyboard-response","212","419936","0.0-19.0-1.25","63b6be60f23fd8e0399f668c","bdp_trlrn","Wed Mar 15 2023 15:42:56 GMT-0400 (Eastern Daylight Time)","671946","Untrustworthy,Trustworthy","","775","","","","decision","","<div class='trialDiv'><img src='trustrating_stim/white_00757_941201_fa_edt.bmp'><br><font class='baseline'><strong>Sebastian</strong><p>Choose number of points to send.</font><div class='respPicDiv'><img src='img/responseButtonOffersNo0L.png' class='respPic'></div></div>","4","9","Sebastian","0","Kept","0.8,0.35","9","0.8","trustrating_stim/white_00757_941201_fa_edt.bmp","2","112","26"
"html-keyboard-response","213","420196","0.0-19.0-2.25","63b6be60f23fd8e0399f668c","bdp_trlrn","Wed Mar 15 2023 15:42:56 GMT-0400 (Eastern Daylight Time)","671946","Untrustworthy,Trustworthy","","null","","","","decisionFB","","<div class='trialDiv'><img src='trustrating_stim/white_00757_941201_fa_edt.bmp'><br><font class='baseline'><strong>Sebastian</strong><p>Choose number of points to send.</font><div class='respPicDiv'><img src='img/responseButtonOffersNo0L4.png' class='respPic'></div></div>","null","9","Sebastian","0","Kept","0.8,0.35","9","0.8","trustrating_stim/white_00757_941201_fa_edt.bmp","2","108","26"
"html-keyboard-response","214","421204","0.0-19.0-3.25","63b6be60f23fd8e0399f668c","bdp_trlrn","Wed Mar 15 2023 15:42:56 GMT-0400 (Eastern Daylight Time)","671946","Untrustworthy,Trustworthy","","null","","","","feedback","","<div class='trialDiv'><img src='trustrating_stim/white_00757_941201_fa_edt.bmp'><br><font class='baseline'><strong>Sebastian</strong><p>Received: <strong>16</strong></font> &nbsp; &nbsp; &nbsp; &nbsp; &nbsp; &nbsp;<font class='negOutcome'>Shared back: <strong>0</strong></font></font><div class='respPicDiv'><img src='img/responseButtonOffersNo0_wht.png' class='respPic'></div></div>","null","9","Sebastian","0","Kept","0.8,0.35","9","0.8","trustrating_stim/white_00757_941201_fa_edt.bmp","2","108","26"
"html-keyboard-response","215","421560","0.0-19.0-1.26","63b6be60f23fd8e0399f668c","bdp_trlrn","Wed Mar 15 2023 15:42:56 GMT-0400 (Eastern Daylight Time)","671946","Untrustworthy,Trustworthy","","355","","","","decision","","<div class='trialDiv'><img src='trustrating_stim/white_00602_940928_fb_edt.bmp'><br><font class='baseline'><strong>Anthony</strong><p>Choose number of points to send.</font><div class='respPicDiv'><img src='img/responseButtonOffersNo0L.png' class='respPic'></div></div>","4","9","Anthony","8","Kept","0.2,0.65","11","0.2","trustrating_stim/white_00602_940928_fb_edt.bmp","4.5","113","27"
"html-keyboard-response","216","421821","0.0-19.0-2.26","63b6be60f23fd8e0399f668c","bdp_trlrn","Wed Mar 15 2023 15:42:56 GMT-0400 (Eastern Daylight Time)","671946","Untrustworthy,Trustworthy","","null","","","","decisionFB","","<div class='trialDiv'><img src='trustrating_stim/white_00602_940928_fb_edt.bmp'><br><font class='baseline'><strong>Anthony</strong><p>Choose number of points to send.</font><div class='respPicDiv'><img src='img/responseButtonOffersNo0L4.png' class='respPic'></div></div>","null","9","Anthony","8","Kept","0.2,0.65","11","0.2","trustrating_stim/white_00602_940928_fb_edt.bmp","4.5","109","27"
"html-keyboard-response","217","422830","0.0-19.0-3.26","63b6be60f23fd8e0399f668c","bdp_trlrn","Wed Mar 15 2023 15:42:56 GMT-0400 (Eastern Daylight Time)","671946","Untrustworthy,Trustworthy","","null","","","","feedback","","<div class='trialDiv'><img src='trustrating_stim/white_00602_940928_fb_edt.bmp'><br><font class='baseline'><strong>Anthony</strong><p>Received: <strong>16</strong></font> &nbsp; &nbsp; &nbsp; &nbsp; &nbsp; &nbsp;<font class='negOutcome'>Shared back: <strong>0</strong></font></font><div class='respPicDiv'><img src='img/responseButtonOffersNo0_wht.png' class='respPic'></div></div>","null","9","Anthony","8","Kept","0.2,0.65","11","0.2","trustrating_stim/white_00602_940928_fb_edt.bmp","4.5","109","27"
"html-keyboard-response","218","423259","0.0-19.0-1.27","63b6be60f23fd8e0399f668c","bdp_trlrn","Wed Mar 15 2023 15:42:56 GMT-0400 (Eastern Daylight Time)","671946","Untrustworthy,Trustworthy","","428","","","","decision","","<div class='trialDiv'><img src='trustrating_stim/white_mw048.bmp'><br><font class='baseline'><strong>Gavin</strong><p>Choose number of points to send.</font><div class='respPicDiv'><img src='img/responseButtonOffersNo0L.png' class='respPic'></div></div>","1","10","Gavin","5","Kept","0.2,0.8","11","0.2","trustrating_stim/white_mw048.bmp","3.5","114","28"
"html-keyboard-response","219","423518","0.0-19.0-2.27","63b6be60f23fd8e0399f668c","bdp_trlrn","Wed Mar 15 2023 15:42:56 GMT-0400 (Eastern Daylight Time)","671946","Untrustworthy,Trustworthy","","null","","","","decisionFB","","<div class='trialDiv'><img src='trustrating_stim/white_mw048.bmp'><br><font class='baseline'><strong>Gavin</strong><p>Choose number of points to send.</font><div class='respPicDiv'><img src='img/responseButtonOffersNo0L1.png' class='respPic'></div></div>","null","10","Gavin","5","Kept","0.2,0.8","11","0.2","trustrating_stim/white_mw048.bmp","3.5","113","28"
