"trial_type","trial_index","time_elapsed","internal_node_id","subject_id","task","startTime","totalTime","labels","view_history","rt","event","trial","time","trialtype","success","stimulus","key_press","aground","name","faceID","outcome","agenttype","agentswpt","agentcurrpshare","face","avgRating","point_total","round"
"pavlovia","0","4","0.0-0.0","62d78737dcea82e9f96b957c","bdp_trlrn","Mon Mar 13 2023 10:12:30 GMT-0700 (Pacific Daylight Time)","605782","Untrustworthy,Trustworthy","","","","","","","","","","","","","","","","","","","",""
"instructions","1","2803","0.0-1.0","62d78737dcea82e9f96b957c","bdp_trlrn","Mon Mar 13 2023 10:12:30 GMT-0700 (Pacific Daylight Time)","605782","Untrustworthy,Trustworthy","[{""page_index"":0,""viewing_time"":2799}]","2799","","","","","","","","","","","","","","","","","",""
"","","","","62d78737dcea82e9f96b957c","bdp_trlrn","Mon Mar 13 2023 10:12:30 GMT-0700 (Pacific Daylight Time)","605782","Untrustworthy,Trustworthy","","","fullscreenenter","2","8732","fullscreenenter","","","","","","","","","","","","","",""
"fullscreen","2","9724","0.0-2.0","62d78737dcea82e9f96b957c","bdp_trlrn","Mon Mar 13 2023 10:12:30 GMT-0700 (Pacific Daylight Time)","605782","Untrustworthy,Trustworthy","","","","","","","true","","","","","","","","","","","","",""
"instructions","3","34062","0.0-4.0","62d78737dcea82e9f96b957c","bdp_trlrn","Mon Mar 13 2023 10:12:30 GMT-0700 (Pacific Daylight Time)","605782","Untrustworthy,Trustworthy","[{""page_index"":0,""viewing_time"":23309},{""page_index"":1,""viewing_time"":1027}]","24337","","","","","","","","","","","","","","","","","",""
"instructions","4","35436","0.0-5.0","62d78737dcea82e9f96b957c","bdp_trlrn","Mon Mar 13 2023 10:12:30 GMT-0700 (Pacific Daylight Time)","605782","Untrustworthy,Trustworthy","[{""page_index"":0,""viewing_time"":1374}]","1374","","","","","","","","","","","","","","","","","",""
"image-keyboard-response","5","39768","0.0-6.0-1.0","62d78737dcea82e9f96b957c","bdp_trlrn","Mon Mar 13 2023 10:12:30 GMT-0700 (Pacific Daylight Time)","605782","Untrustworthy,Trustworthy","","4225","","","","rating","","trustrating_stim/white_mw035.bmp","5","","","","","","","","","","",""
"image-keyboard-response","6","39975","0.0-6.0-2.0","62d78737dcea82e9f96b957c","bdp_trlrn","Mon Mar 13 2023 10:12:30 GMT-0700 (Pacific Daylight Time)","605782","Untrustworthy,Trustworthy","","null","","","","ratingFB","","trustrating_stim/white_mw035.bmp","null","","","","","","","","","","",""
"image-keyboard-response","7","42656","0.0-6.0-1.1","62d78737dcea82e9f96b957c","bdp_trlrn","Mon Mar 13 2023 10:12:30 GMT-0700 (Pacific Daylight Time)","605782","Untrustworthy,Trustworthy","","2576","","","","rating","","trustrating_stim/white_mw048.bmp","2","","","","","","","","","","",""
"image-keyboard-response","8","42860","0.0-6.0-2.1","62d78737dcea82e9f96b957c","bdp_trlrn","Mon Mar 13 2023 10:12:30 GMT-0700 (Pacific Daylight Time)","605782","Untrustworthy,Trustworthy","","null","","","","ratingFB","","trustrating_stim/white_mw048.bmp","null","","","","","","","","","","",""
"image-keyboard-response","9","45177","0.0-6.0-1.2","62d78737dcea82e9f96b957c","bdp_trlrn","Mon Mar 13 2023 10:12:30 GMT-0700 (Pacific Daylight Time)","605782","Untrustworthy,Trustworthy","","2212","","","","rating","","trustrating_stim/white_00898_960530_fa_edt.bmp","7","","","","","","","","","","",""
"image-keyboard-response","10","45380","0.0-6.0-2.2","62d78737dcea82e9f96b957c","bdp_trlrn","Mon Mar 13 2023 10:12:30 GMT-0700 (Pacific Daylight Time)","605782","Untrustworthy,Trustworthy","","null","","","","ratingFB","","trustrating_stim/white_00898_960530_fa_edt.bmp","null","","","","","","","","","","",""
"image-keyboard-response","11","47540","0.0-6.0-1.3","62d78737dcea82e9f96b957c","bdp_trlrn","Mon Mar 13 2023 10:12:30 GMT-0700 (Pacific Daylight Time)","605782","Untrustworthy,Trustworthy","","2055","","","","rating","","trustrating_stim/white_mw053.bmp","4","","","","","","","","","","",""
"image-keyboard-response","12","47746","0.0-6.0-2.3","62d78737dcea82e9f96b957c","bdp_trlrn","Mon Mar 13 2023 10:12:30 GMT-0700 (Pacific Daylight Time)","605782","Untrustworthy,Trustworthy","","null","","","","ratingFB","","trustrating_stim/white_mw053.bmp","null","","","","","","","","","","",""
"image-keyboard-response","13","49239","0.0-6.0-1.4","62d78737dcea82e9f96b957c","bdp_trlrn","Mon Mar 13 2023 10:12:30 GMT-0700 (Pacific Daylight Time)","605782","Untrustworthy,Trustworthy","","1391","","","","rating","","trustrating_stim/white_mw071.bmp","2","","","","","","","","","","",""
"image-keyboard-response","14","49443","0.0-6.0-2.4","62d78737dcea82e9f96b957c","bdp_trlrn","Mon Mar 13 2023 10:12:30 GMT-0700 (Pacific Daylight Time)","605782","Untrustworthy,Trustworthy","","null","","","","ratingFB","","trustrating_stim/white_mw071.bmp","null","","","","","","","","","","",""
"image-keyboard-response","15","51948","0.0-6.0-1.5","62d78737dcea82e9f96b957c","bdp_trlrn","Mon Mar 13 2023 10:12:30 GMT-0700 (Pacific Daylight Time)","605782","Untrustworthy,Trustworthy","","2399","","","","rating","","trustrating_stim/white_00299_940422_fa_edt.bmp","7","","","","","","","","","","",""
"image-keyboard-response","16","52151","0.0-6.0-2.5","62d78737dcea82e9f96b957c","bdp_trlrn","Mon Mar 13 2023 10:12:30 GMT-0700 (Pacific Daylight Time)","605782","Untrustworthy,Trustworthy","","null","","","","ratingFB","","trustrating_stim/white_00299_940422_fa_edt.bmp","null","","","","","","","","","","",""
"image-keyboard-response","17","53813","0.0-6.0-1.6","62d78737dcea82e9f96b957c","bdp_trlrn","Mon Mar 13 2023 10:12:30 GMT-0700 (Pacific Daylight Time)","605782","Untrustworthy,Trustworthy","","1560","","","","rating","","trustrating_stim/white_mw060.bmp","1","","","","","","","","","","",""
"image-keyboard-response","18","54017","0.0-6.0-2.6","62d78737dcea82e9f96b957c","bdp_trlrn","Mon Mar 13 2023 10:12:30 GMT-0700 (Pacific Daylight Time)","605782","Untrustworthy,Trustworthy","","null","","","","ratingFB","","trustrating_stim/white_mw060.bmp","null","","","","","","","","","","",""
"image-keyboard-response","19","56187","0.0-6.0-1.7","62d78737dcea82e9f96b957c","bdp_trlrn","Mon Mar 13 2023 10:12:30 GMT-0700 (Pacific Daylight Time)","605782","Untrustworthy,Trustworthy","","2065","","","","rating","","trustrating_stim/white_mw049.bmp","2","","","","","","","","","","",""
"image-keyboard-response","20","56391","0.0-6.0-2.7","62d78737dcea82e9f96b957c","bdp_trlrn","Mon Mar 13 2023 10:12:30 GMT-0700 (Pacific Daylight Time)","605782","Untrustworthy,Trustworthy","","null","","","","ratingFB","","trustrating_stim/white_mw049.bmp","null","","","","","","","","","","",""
"image-keyboard-response","21","57590","0.0-6.0-1.8","62d78737dcea82e9f96b957c","bdp_trlrn","Mon Mar 13 2023 10:12:30 GMT-0700 (Pacific Daylight Time)","605782","Untrustworthy,Trustworthy","","1096","","","","rating","","trustrating_stim/white_mw097.bmp","1","","","","","","","","","","",""
"image-keyboard-response","22","57795","0.0-6.0-2.8","62d78737dcea82e9f96b957c","bdp_trlrn","Mon Mar 13 2023 10:12:30 GMT-0700 (Pacific Daylight Time)","605782","Untrustworthy,Trustworthy","","null","","","","ratingFB","","trustrating_stim/white_mw097.bmp","null","","","","","","","","","","",""
"image-keyboard-response","23","59011","0.0-6.0-1.9","62d78737dcea82e9f96b957c","bdp_trlrn","Mon Mar 13 2023 10:12:30 GMT-0700 (Pacific Daylight Time)","605782","Untrustworthy,Trustworthy","","1109","","","","rating","","trustrating_stim/white_00223_940128_fb_edt.bmp","1","","","","","","","","","","",""
"image-keyboard-response","24","59213","0.0-6.0-2.9","62d78737dcea82e9f96b957c","bdp_trlrn","Mon Mar 13 2023 10:12:30 GMT-0700 (Pacific Daylight Time)","605782","Untrustworthy,Trustworthy","","null","","","","ratingFB","","trustrating_stim/white_00223_940128_fb_edt.bmp","null","","","","","","","","","","",""
"image-keyboard-response","25","61426","0.0-6.0-1.10","62d78737dcea82e9f96b957c","bdp_trlrn","Mon Mar 13 2023 10:12:30 GMT-0700 (Pacific Daylight Time)","605782","Untrustworthy,Trustworthy","","2107","","","","rating","","trustrating_stim/white_00602_940928_fb_edt.bmp","9","","","","","","","","","","",""
"image-keyboard-response","26","61630","0.0-6.0-2.10","62d78737dcea82e9f96b957c","bdp_trlrn","Mon Mar 13 2023 10:12:30 GMT-0700 (Pacific Daylight Time)","605782","Untrustworthy,Trustworthy","","null","","","","ratingFB","","trustrating_stim/white_00602_940928_fb_edt.bmp","null","","","","","","","","","","",""
"image-keyboard-response","27","65177","0.0-6.0-1.11","62d78737dcea82e9f96b957c","bdp_trlrn","Mon Mar 13 2023 10:12:30 GMT-0700 (Pacific Daylight Time)","605782","Untrustworthy,Trustworthy","","3445","","","","rating","","trustrating_stim/white_00109_931230_fa_edt.bmp","8","","","","","","","","","","",""
"image-keyboard-response","28","65379","0.0-6.0-2.11","62d78737dcea82e9f96b957c","bdp_trlrn","Mon Mar 13 2023 10:12:30 GMT-0700 (Pacific Daylight Time)","605782","Untrustworthy,Trustworthy","","null","","","","ratingFB","","trustrating_stim/white_00109_931230_fa_edt.bmp","null","","","","","","","","","","",""
"image-keyboard-response","29","67356","0.0-6.0-1.12","62d78737dcea82e9f96b957c","bdp_trlrn","Mon Mar 13 2023 10:12:30 GMT-0700 (Pacific Daylight Time)","605782","Untrustworthy,Trustworthy","","1873","","","","rating","","trustrating_stim/white_mw099.bmp","6","","","","","","","","","","",""
"image-keyboard-response","30","67561","0.0-6.0-2.12","62d78737dcea82e9f96b957c","bdp_trlrn","Mon Mar 13 2023 10:12:30 GMT-0700 (Pacific Daylight Time)","605782","Untrustworthy,Trustworthy","","null","","","","ratingFB","","trustrating_stim/white_mw099.bmp","null","","","","","","","","","","",""
"image-keyboard-response","31","71120","0.0-6.0-1.13","62d78737dcea82e9f96b957c","bdp_trlrn","Mon Mar 13 2023 10:12:30 GMT-0700 (Pacific Daylight Time)","605782","Untrustworthy,Trustworthy","","3455","","","","rating","","trustrating_stim/white_00757_941201_fa_edt.bmp","2","","","","","","","","","","",""
"image-keyboard-response","32","71322","0.0-6.0-2.13","62d78737dcea82e9f96b957c","bdp_trlrn","Mon Mar 13 2023 10:12:30 GMT-0700 (Pacific Daylight Time)","605782","Untrustworthy,Trustworthy","","null","","","","ratingFB","","trustrating_stim/white_00757_941201_fa_edt.bmp","null","","","","","","","","","","",""
"image-keyboard-response","33","72614","0.0-6.0-1.14","62d78737dcea82e9f96b957c","bdp_trlrn","Mon Mar 13 2023 10:12:30 GMT-0700 (Pacific Daylight Time)","605782","Untrustworthy,Trustworthy","","1187","","","","rating","","trustrating_stim/white_00577_940928_fa_edt.bmp","1","","","","","","","","","","",""
"image-keyboard-response","34","72820","0.0-6.0-2.14","62d78737dcea82e9f96b957c","bdp_trlrn","Mon Mar 13 2023 10:12:30 GMT-0700 (Pacific Daylight Time)","605782","Untrustworthy,Trustworthy","","null","","","","ratingFB","","trustrating_stim/white_00577_940928_fa_edt.bmp","null","","","","","","","","","","",""
"image-keyboard-response","35","75332","0.0-6.0-1.15","62d78737dcea82e9f96b957c","bdp_trlrn","Mon Mar 13 2023 10:12:30 GMT-0700 (Pacific Daylight Time)","605782","Untrustworthy,Trustworthy","","2407","","","","rating","","trustrating_stim/white_mw056.bmp","3","","","","","","","","","","",""
"image-keyboard-response","36","75537","0.0-6.0-2.15","62d78737dcea82e9f96b957c","bdp_trlrn","Mon Mar 13 2023 10:12:30 GMT-0700 (Pacific Daylight Time)","605782","Untrustworthy,Trustworthy","","null","","","","ratingFB","","trustrating_stim/white_mw056.bmp","null","","","","","","","","","","",""
"image-keyboard-response","37","77052","0.0-6.0-1.16","62d78737dcea82e9f96b957c","bdp_trlrn","Mon Mar 13 2023 10:12:30 GMT-0700 (Pacific Daylight Time)","605782","Untrustworthy,Trustworthy","","1410","","","","rating","","trustrating_stim/white_mw089.bmp","4","","","","","","","","","","",""
"image-keyboard-response","38","77255","0.0-6.0-2.16","62d78737dcea82e9f96b957c","bdp_trlrn","Mon Mar 13 2023 10:12:30 GMT-0700 (Pacific Daylight Time)","605782","Untrustworthy,Trustworthy","","null","","","","ratingFB","","trustrating_stim/white_mw089.bmp","null","","","","","","","","","","",""
"image-keyboard-response","39","78872","0.0-6.0-1.17","62d78737dcea82e9f96b957c","bdp_trlrn","Mon Mar 13 2023 10:12:30 GMT-0700 (Pacific Daylight Time)","605782","Untrustworthy,Trustworthy","","1513","","","","rating","","trustrating_stim/white_00340_940422_fa_edt.bmp","1","","","","","","","","","","",""
"image-keyboard-response","40","79078","0.0-6.0-2.17","62d78737dcea82e9f96b957c","bdp_trlrn","Mon Mar 13 2023 10:12:30 GMT-0700 (Pacific Daylight Time)","605782","Untrustworthy,Trustworthy","","null","","","","ratingFB","","trustrating_stim/white_00340_940422_fa_edt.bmp","null","","","","","","","","","","",""
"image-keyboard-response","41","85429","0.0-6.0-1.18","62d78737dcea82e9f96b957c","bdp_trlrn","Mon Mar 13 2023 10:12:30 GMT-0700 (Pacific Daylight Time)","605782","Untrustworthy,Trustworthy","","6246","","","","rating","","trustrating_stim/white_mw033.bmp","8","","","","","","","","","","",""
"image-keyboard-response","42","85632","0.0-6.0-2.18","62d78737dcea82e9f96b957c","bdp_trlrn","Mon Mar 13 2023 10:12:30 GMT-0700 (Pacific Daylight Time)","605782","Untrustworthy,Trustworthy","","null","","","","ratingFB","","trustrating_stim/white_mw033.bmp","null","","","","","","","","","","",""
"image-keyboard-response","43","87991","0.0-6.0-1.19","62d78737dcea82e9f96b957c","bdp_trlrn","Mon Mar 13 2023 10:12:30 GMT-0700 (Pacific Daylight Time)","605782","Untrustworthy,Trustworthy","","2254","","","","rating","","trustrating_stim/white_mw046.bmp","8","","","","","","","","","","",""
"image-keyboard-response","44","88194","0.0-6.0-2.19","62d78737dcea82e9f96b957c","bdp_trlrn","Mon Mar 13 2023 10:12:30 GMT-0700 (Pacific Daylight Time)","605782","Untrustworthy,Trustworthy","","null","","","","ratingFB","","trustrating_stim/white_mw046.bmp","null","","","","","","","","","","",""
"image-keyboard-response","45","89712","0.0-6.0-1.20","62d78737dcea82e9f96b957c","bdp_trlrn","Mon Mar 13 2023 10:12:30 GMT-0700 (Pacific Daylight Time)","605782","Untrustworthy,Trustworthy","","1415","","","","rating","","trustrating_stim/white_mw063.bmp","8","","","","","","","","","","",""
"image-keyboard-response","46","89916","0.0-6.0-2.20","62d78737dcea82e9f96b957c","bdp_trlrn","Mon Mar 13 2023 10:12:30 GMT-0700 (Pacific Daylight Time)","605782","Untrustworthy,Trustworthy","","null","","","","ratingFB","","trustrating_stim/white_mw063.bmp","null","","","","","","","","","","",""
"image-keyboard-response","47","92309","0.0-6.0-1.21","62d78737dcea82e9f96b957c","bdp_trlrn","Mon Mar 13 2023 10:12:30 GMT-0700 (Pacific Daylight Time)","605782","Untrustworthy,Trustworthy","","2288","","","","rating","","trustrating_stim/white_00761_941201_fb_edt.bmp","2","","","","","","","","","","",""
"image-keyboard-response","48","92511","0.0-6.0-2.21","62d78737dcea82e9f96b957c","bdp_trlrn","Mon Mar 13 2023 10:12:30 GMT-0700 (Pacific Daylight Time)","605782","Untrustworthy,Trustworthy","","null","","","","ratingFB","","trustrating_stim/white_00761_941201_fb_edt.bmp","null","","","","","","","","","","",""
"image-keyboard-response","49","93913","0.0-6.0-1.22","62d78737dcea82e9f96b957c","bdp_trlrn","Mon Mar 13 2023 10:12:30 GMT-0700 (Pacific Daylight Time)","605782","Untrustworthy,Trustworthy","","1297","","","","rating","","trustrating_stim/white_00659_941121_fa_edt.bmp","4","","","","","","","","","","",""
"image-keyboard-response","50","94119","0.0-6.0-2.22","62d78737dcea82e9f96b957c","bdp_trlrn","Mon Mar 13 2023 10:12:30 GMT-0700 (Pacific Daylight Time)","605782","Untrustworthy,Trustworthy","","null","","","","ratingFB","","trustrating_stim/white_00659_941121_fa_edt.bmp","null","","","","","","","","","","",""
"image-keyboard-response","51","100563","0.0-6.0-1.23","62d78737dcea82e9f96b957c","bdp_trlrn","Mon Mar 13 2023 10:12:30 GMT-0700 (Pacific Daylight Time)","605782","Untrustworthy,Trustworthy","","6339","","","","rating","","trustrating_stim/white_00785_941205_fb_edt.bmp","9","","","","","","","","","","",""
"image-keyboard-response","52","100768","0.0-6.0-2.23","62d78737dcea82e9f96b957c","bdp_trlrn","Mon Mar 13 2023 10:12:30 GMT-0700 (Pacific Daylight Time)","605782","Untrustworthy,Trustworthy","","null","","","","ratingFB","","trustrating_stim/white_00785_941205_fb_edt.bmp","null","","","","","","","","","","",""
"image-keyboard-response","53","103032","0.0-6.0-1.24","62d78737dcea82e9f96b957c","bdp_trlrn","Mon Mar 13 2023 10:12:30 GMT-0700 (Pacific Daylight Time)","605782","Untrustworthy,Trustworthy","","2162","","","","rating","","trustrating_stim/white_00807_941205_fb_edt.bmp","7","","","","","","","","","","",""
"image-keyboard-response","54","103238","0.0-6.0-2.24","62d78737dcea82e9f96b957c","bdp_trlrn","Mon Mar 13 2023 10:12:30 GMT-0700 (Pacific Daylight Time)","605782","Untrustworthy,Trustworthy","","null","","","","ratingFB","","trustrating_stim/white_00807_941205_fb_edt.bmp","null","","","","","","","","","","",""
"image-keyboard-response","55","106741","0.0-6.0-1.25","62d78737dcea82e9f96b957c","bdp_trlrn","Mon Mar 13 2023 10:12:30 GMT-0700 (Pacific Daylight Time)","605782","Untrustworthy,Trustworthy","","3398","","","","rating","","trustrating_stim/white_mw066.bmp","9","","","","","","","","","","",""
"image-keyboard-response","56","106948","0.0-6.0-2.25","62d78737dcea82e9f96b957c","bdp_trlrn","Mon Mar 13 2023 10:12:30 GMT-0700 (Pacific Daylight Time)","605782","Untrustworthy,Trustworthy","","null","","","","ratingFB","","trustrating_stim/white_mw066.bmp","null","","","","","","","","","","",""
"image-keyboard-response","57","107958","0.0-6.0-1.26","62d78737dcea82e9f96b957c","bdp_trlrn","Mon Mar 13 2023 10:12:30 GMT-0700 (Pacific Daylight Time)","605782","Untrustworthy,Trustworthy","","905","","","","rating","","trustrating_stim/white_00129_931230_fb_edt.bmp","9","","","","","","","","","","",""
"image-keyboard-response","58","108160","0.0-6.0-2.26","62d78737dcea82e9f96b957c","bdp_trlrn","Mon Mar 13 2023 10:12:30 GMT-0700 (Pacific Daylight Time)","605782","Untrustworthy,Trustworthy","","null","","","","ratingFB","","trustrating_stim/white_00129_931230_fb_edt.bmp","null","","","","","","","","","","",""
"image-keyboard-response","59","111322","0.0-6.0-1.27","62d78737dcea82e9f96b957c","bdp_trlrn","Mon Mar 13 2023 10:12:30 GMT-0700 (Pacific Daylight Time)","605782","Untrustworthy,Trustworthy","","3055","","","","rating","","trustrating_stim/white_00519_940519_fb_edt.bmp","4","","","","","","","","","","",""
"image-keyboard-response","60","111528","0.0-6.0-2.27","62d78737dcea82e9f96b957c","bdp_trlrn","Mon Mar 13 2023 10:12:30 GMT-0700 (Pacific Daylight Time)","605782","Untrustworthy,Trustworthy","","null","","","","ratingFB","","trustrating_stim/white_00519_940519_fb_edt.bmp","null","","","","","","","","","","",""
"image-keyboard-response","61","113695","0.0-6.0-1.28","62d78737dcea82e9f96b957c","bdp_trlrn","Mon Mar 13 2023 10:12:30 GMT-0700 (Pacific Daylight Time)","605782","Untrustworthy,Trustworthy","","2062","","","","rating","","trustrating_stim/white_mw084.bmp","7","","","","","","","","","","",""
"image-keyboard-response","62","113896","0.0-6.0-2.28","62d78737dcea82e9f96b957c","bdp_trlrn","Mon Mar 13 2023 10:12:30 GMT-0700 (Pacific Daylight Time)","605782","Untrustworthy,Trustworthy","","null","","","","ratingFB","","trustrating_stim/white_mw084.bmp","null","","","","","","","","","","",""
"image-keyboard-response","63","116863","0.0-6.0-1.29","62d78737dcea82e9f96b957c","bdp_trlrn","Mon Mar 13 2023 10:12:30 GMT-0700 (Pacific Daylight Time)","605782","Untrustworthy,Trustworthy","","2862","","","","rating","","trustrating_stim/white_00120_931230_fa_edt.bmp","9","","","","","","","","","","",""
"image-keyboard-response","64","117069","0.0-6.0-2.29","62d78737dcea82e9f96b957c","bdp_trlrn","Mon Mar 13 2023 10:12:30 GMT-0700 (Pacific Daylight Time)","605782","Untrustworthy,Trustworthy","","null","","","","ratingFB","","trustrating_stim/white_00120_931230_fa_edt.bmp","null","","","","","","","","","","",""
"image-keyboard-response","65","117917","0.0-6.0-1.30","62d78737dcea82e9f96b957c","bdp_trlrn","Mon Mar 13 2023 10:12:30 GMT-0700 (Pacific Daylight Time)","605782","Untrustworthy,Trustworthy","","747","","","","rating","","trustrating_stim/white_00602_940928_fb_edt.bmp","9","","","","","","","","","","",""
"image-keyboard-response","66","118123","0.0-6.0-2.30","62d78737dcea82e9f96b957c","bdp_trlrn","Mon Mar 13 2023 10:12:30 GMT-0700 (Pacific Daylight Time)","605782","Untrustworthy,Trustworthy","","null","","","","ratingFB","","trustrating_stim/white_00602_940928_fb_edt.bmp","null","","","","","","","","","","",""
"image-keyboard-response","67","119413","0.0-6.0-1.31","62d78737dcea82e9f96b957c","bdp_trlrn","Mon Mar 13 2023 10:12:30 GMT-0700 (Pacific Daylight Time)","605782","Untrustworthy,Trustworthy","","1186","","","","rating","","trustrating_stim/white_00340_940422_fa_edt.bmp","1","","","","","","","","","","",""
"image-keyboard-response","68","119614","0.0-6.0-2.31","62d78737dcea82e9f96b957c","bdp_trlrn","Mon Mar 13 2023 10:12:30 GMT-0700 (Pacific Daylight Time)","605782","Untrustworthy,Trustworthy","","null","","","","ratingFB","","trustrating_stim/white_00340_940422_fa_edt.bmp","null","","","","","","","","","","",""
"image-keyboard-response","69","121429","0.0-6.0-1.32","62d78737dcea82e9f96b957c","bdp_trlrn","Mon Mar 13 2023 10:12:30 GMT-0700 (Pacific Daylight Time)","605782","Untrustworthy,Trustworthy","","1710","","","","rating","","trustrating_stim/white_00109_931230_fa_edt.bmp","6","","","","","","","","","","",""
"image-keyboard-response","70","121635","0.0-6.0-2.32","62d78737dcea82e9f96b957c","bdp_trlrn","Mon Mar 13 2023 10:12:30 GMT-0700 (Pacific Daylight Time)","605782","Untrustworthy,Trustworthy","","null","","","","ratingFB","","trustrating_stim/white_00109_931230_fa_edt.bmp","null","","","","","","","","","","",""
"image-keyboard-response","71","125477","0.0-6.0-1.33","62d78737dcea82e9f96b957c","bdp_trlrn","Mon Mar 13 2023 10:12:30 GMT-0700 (Pacific Daylight Time)","605782","Untrustworthy,Trustworthy","","3736","","","","rating","","trustrating_stim/white_mw099.bmp","7","","","","","","","","","","",""
"image-keyboard-response","72","125681","0.0-6.0-2.33","62d78737dcea82e9f96b957c","bdp_trlrn","Mon Mar 13 2023 10:12:30 GMT-0700 (Pacific Daylight Time)","605782","Untrustworthy,Trustworthy","","null","","","","ratingFB","","trustrating_stim/white_mw099.bmp","null","","","","","","","","","","",""
"image-keyboard-response","73","127309","0.0-6.0-1.34","62d78737dcea82e9f96b957c","bdp_trlrn","Mon Mar 13 2023 10:12:30 GMT-0700 (Pacific Daylight Time)","605782","Untrustworthy,Trustworthy","","1523","","","","rating","","trustrating_stim/white_00761_941201_fb_edt.bmp","2","","","","","","","","","","",""
"image-keyboard-response","74","127512","0.0-6.0-2.34","62d78737dcea82e9f96b957c","bdp_trlrn","Mon Mar 13 2023 10:12:30 GMT-0700 (Pacific Daylight Time)","605782","Untrustworthy,Trustworthy","","null","","","","ratingFB","","trustrating_stim/white_00761_941201_fb_edt.bmp","null","","","","","","","","","","",""
"image-keyboard-response","75","128472","0.0-6.0-1.35","62d78737dcea82e9f96b957c","bdp_trlrn","Mon Mar 13 2023 10:12:30 GMT-0700 (Pacific Daylight Time)","605782","Untrustworthy,Trustworthy","","858","","","","rating","","trustrating_stim/white_mw097.bmp","1","","","","","","","","","","",""
"image-keyboard-response","76","128676","0.0-6.0-2.35","62d78737dcea82e9f96b957c","bdp_trlrn","Mon Mar 13 2023 10:12:30 GMT-0700 (Pacific Daylight Time)","605782","Untrustworthy,Trustworthy","","null","","","","ratingFB","","trustrating_stim/white_mw097.bmp","null","","","","","","","","","","",""
"image-keyboard-response","77","130358","0.0-6.0-1.36","62d78737dcea82e9f96b957c","bdp_trlrn","Mon Mar 13 2023 10:12:30 GMT-0700 (Pacific Daylight Time)","605782","Untrustworthy,Trustworthy","","1577","","","","rating","","trustrating_stim/white_mw089.bmp","6","","","","","","","","","","",""
"image-keyboard-response","78","130563","0.0-6.0-2.36","62d78737dcea82e9f96b957c","bdp_trlrn","Mon Mar 13 2023 10:12:30 GMT-0700 (Pacific Daylight Time)","605782","Untrustworthy,Trustworthy","","null","","","","ratingFB","","trustrating_stim/white_mw089.bmp","null","","","","","","","","","","",""
"image-keyboard-response","79","131649","0.0-6.0-1.37","62d78737dcea82e9f96b957c","bdp_trlrn","Mon Mar 13 2023 10:12:30 GMT-0700 (Pacific Daylight Time)","605782","Untrustworthy,Trustworthy","","982","","","","rating","","trustrating_stim/white_mw056.bmp","6","","","","","","","","","","",""
"image-keyboard-response","80","131852","0.0-6.0-2.37","62d78737dcea82e9f96b957c","bdp_trlrn","Mon Mar 13 2023 10:12:30 GMT-0700 (Pacific Daylight Time)","605782","Untrustworthy,Trustworthy","","null","","","","ratingFB","","trustrating_stim/white_mw056.bmp","null","","","","","","","","","","",""
"image-keyboard-response","81","133936","0.0-6.0-1.38","62d78737dcea82e9f96b957c","bdp_trlrn","Mon Mar 13 2023 10:12:30 GMT-0700 (Pacific Daylight Time)","605782","Untrustworthy,Trustworthy","","1979","","","","rating","","trustrating_stim/white_mw046.bmp","7","","","","","","","","","","",""
"image-keyboard-response","82","134138","0.0-6.0-2.38","62d78737dcea82e9f96b957c","bdp_trlrn","Mon Mar 13 2023 10:12:30 GMT-0700 (Pacific Daylight Time)","605782","Untrustworthy,Trustworthy","","null","","","","ratingFB","","trustrating_stim/white_mw046.bmp","null","","","","","","","","","","",""
"image-keyboard-response","83","135782","0.0-6.0-1.39","62d78737dcea82e9f96b957c","bdp_trlrn","Mon Mar 13 2023 10:12:30 GMT-0700 (Pacific Daylight Time)","605782","Untrustworthy,Trustworthy","","1539","","","","rating","","trustrating_stim/white_00785_941205_fb_edt.bmp","8","","","","","","","","","","",""
"image-keyboard-response","84","135985","0.0-6.0-2.39","62d78737dcea82e9f96b957c","bdp_trlrn","Mon Mar 13 2023 10:12:30 GMT-0700 (Pacific Daylight Time)","605782","Untrustworthy,Trustworthy","","null","","","","ratingFB","","trustrating_stim/white_00785_941205_fb_edt.bmp","null","","","","","","","","","","",""
"image-keyboard-response","85","137477","0.0-6.0-1.40","62d78737dcea82e9f96b957c","bdp_trlrn","Mon Mar 13 2023 10:12:30 GMT-0700 (Pacific Daylight Time)","605782","Untrustworthy,Trustworthy","","1387","","","","rating","","trustrating_stim/white_00898_960530_fa_edt.bmp","9","","","","","","","","","","",""
"image-keyboard-response","86","137680","0.0-6.0-2.40","62d78737dcea82e9f96b957c","bdp_trlrn","Mon Mar 13 2023 10:12:30 GMT-0700 (Pacific Daylight Time)","605782","Untrustworthy,Trustworthy","","null","","","","ratingFB","","trustrating_stim/white_00898_960530_fa_edt.bmp","null","","","","","","","","","","",""
"image-keyboard-response","87","139378","0.0-6.0-1.41","62d78737dcea82e9f96b957c","bdp_trlrn","Mon Mar 13 2023 10:12:30 GMT-0700 (Pacific Daylight Time)","605782","Untrustworthy,Trustworthy","","1593","","","","rating","","trustrating_stim/white_mw084.bmp","7","","","","","","","","","","",""
"image-keyboard-response","88","139584","0.0-6.0-2.41","62d78737dcea82e9f96b957c","bdp_trlrn","Mon Mar 13 2023 10:12:30 GMT-0700 (Pacific Daylight Time)","605782","Untrustworthy,Trustworthy","","null","","","","ratingFB","","trustrating_stim/white_mw084.bmp","null","","","","","","","","","","",""
"image-keyboard-response","89","142642","0.0-6.0-1.42","62d78737dcea82e9f96b957c","bdp_trlrn","Mon Mar 13 2023 10:12:30 GMT-0700 (Pacific Daylight Time)","605782","Untrustworthy,Trustworthy","","2953","","","","rating","","trustrating_stim/white_00577_940928_fa_edt.bmp","4","","","","","","","","","","",""
"image-keyboard-response","90","142846","0.0-6.0-2.42","62d78737dcea82e9f96b957c","bdp_trlrn","Mon Mar 13 2023 10:12:30 GMT-0700 (Pacific Daylight Time)","605782","Untrustworthy,Trustworthy","","null","","","","ratingFB","","trustrating_stim/white_00577_940928_fa_edt.bmp","null","","","","","","","","","","",""
"image-keyboard-response","91","144097","0.0-6.0-1.43","62d78737dcea82e9f96b957c","bdp_trlrn","Mon Mar 13 2023 10:12:30 GMT-0700 (Pacific Daylight Time)","605782","Untrustworthy,Trustworthy","","1146","","","","rating","","trustrating_stim/white_mw048.bmp","1","","","","","","","","","","",""
"image-keyboard-response","92","144303","0.0-6.0-2.43","62d78737dcea82e9f96b957c","bdp_trlrn","Mon Mar 13 2023 10:12:30 GMT-0700 (Pacific Daylight Time)","605782","Untrustworthy,Trustworthy","","null","","","","ratingFB","","trustrating_stim/white_mw048.bmp","null","","","","","","","","","","",""
"image-keyboard-response","93","146030","0.0-6.0-1.44","62d78737dcea82e9f96b957c","bdp_trlrn","Mon Mar 13 2023 10:12:30 GMT-0700 (Pacific Daylight Time)","605782","Untrustworthy,Trustworthy","","1622","","","","rating","","trustrating_stim/white_mw063.bmp","1","","","","","","","","","","",""
"image-keyboard-response","94","146236","0.0-6.0-2.44","62d78737dcea82e9f96b957c","bdp_trlrn","Mon Mar 13 2023 10:12:30 GMT-0700 (Pacific Daylight Time)","605782","Untrustworthy,Trustworthy","","null","","","","ratingFB","","trustrating_stim/white_mw063.bmp","null","","","","","","","","","","",""
"image-keyboard-response","95","148428","0.0-6.0-1.45","62d78737dcea82e9f96b957c","bdp_trlrn","Mon Mar 13 2023 10:12:30 GMT-0700 (Pacific Daylight Time)","605782","Untrustworthy,Trustworthy","","2087","","","","rating","","trustrating_stim/white_mw033.bmp","7","","","","","","","","","","",""
"image-keyboard-response","96","148634","0.0-6.0-2.45","62d78737dcea82e9f96b957c","bdp_trlrn","Mon Mar 13 2023 10:12:30 GMT-0700 (Pacific Daylight Time)","605782","Untrustworthy,Trustworthy","","null","","","","ratingFB","","trustrating_stim/white_mw033.bmp","null","","","","","","","","","","",""
"image-keyboard-response","97","149846","0.0-6.0-1.46","62d78737dcea82e9f96b957c","bdp_trlrn","Mon Mar 13 2023 10:12:30 GMT-0700 (Pacific Daylight Time)","605782","Untrustworthy,Trustworthy","","1107","","","","rating","","trustrating_stim/white_mw066.bmp","7","","","","","","","","","","",""
"image-keyboard-response","98","150050","0.0-6.0-2.46","62d78737dcea82e9f96b957c","bdp_trlrn","Mon Mar 13 2023 10:12:30 GMT-0700 (Pacific Daylight Time)","605782","Untrustworthy,Trustworthy","","null","","","","ratingFB","","trustrating_stim/white_mw066.bmp","null","","","","","","","","","","",""
"image-keyboard-response","99","152208","0.0-6.0-1.47","62d78737dcea82e9f96b957c","bdp_trlrn","Mon Mar 13 2023 10:12:30 GMT-0700 (Pacific Daylight Time)","605782","Untrustworthy,Trustworthy","","2053","","","","rating","","trustrating_stim/white_mw071.bmp","7","","","","","","","","","","",""
"image-keyboard-response","100","152413","0.0-6.0-2.47","62d78737dcea82e9f96b957c","bdp_trlrn","Mon Mar 13 2023 10:12:30 GMT-0700 (Pacific Daylight Time)","605782","Untrustworthy,Trustworthy","","null","","","","ratingFB","","trustrating_stim/white_mw071.bmp","null","","","","","","","","","","",""
"image-keyboard-response","101","153684","0.0-6.0-1.48","62d78737dcea82e9f96b957c","bdp_trlrn","Mon Mar 13 2023 10:12:30 GMT-0700 (Pacific Daylight Time)","605782","Untrustworthy,Trustworthy","","1166","","","","rating","","trustrating_stim/white_mw060.bmp","1","","","","","","","","","","",""
"image-keyboard-response","102","153887","0.0-6.0-2.48","62d78737dcea82e9f96b957c","bdp_trlrn","Mon Mar 13 2023 10:12:30 GMT-0700 (Pacific Daylight Time)","605782","Untrustworthy,Trustworthy","","null","","","","ratingFB","","trustrating_stim/white_mw060.bmp","null","","","","","","","","","","",""
"image-keyboard-response","103","155731","0.0-6.0-1.49","62d78737dcea82e9f96b957c","bdp_trlrn","Mon Mar 13 2023 10:12:30 GMT-0700 (Pacific Daylight Time)","605782","Untrustworthy,Trustworthy","","1738","","","","rating","","trustrating_stim/white_mw035.bmp","7","","","","","","","","","","",""
"image-keyboard-response","104","155937","0.0-6.0-2.49","62d78737dcea82e9f96b957c","bdp_trlrn","Mon Mar 13 2023 10:12:30 GMT-0700 (Pacific Daylight Time)","605782","Untrustworthy,Trustworthy","","null","","","","ratingFB","","trustrating_stim/white_mw035.bmp","null","","","","","","","","","","",""
"image-keyboard-response","105","157852","0.0-6.0-1.50","62d78737dcea82e9f96b957c","bdp_trlrn","Mon Mar 13 2023 10:12:30 GMT-0700 (Pacific Daylight Time)","605782","Untrustworthy,Trustworthy","","1810","","","","rating","","trustrating_stim/white_00299_940422_fa_edt.bmp","8","","","","","","","","","","",""
"image-keyboard-response","106","158056","0.0-6.0-2.50","62d78737dcea82e9f96b957c","bdp_trlrn","Mon Mar 13 2023 10:12:30 GMT-0700 (Pacific Daylight Time)","605782","Untrustworthy,Trustworthy","","null","","","","ratingFB","","trustrating_stim/white_00299_940422_fa_edt.bmp","null","","","","","","","","","","",""
"image-keyboard-response","107","161358","0.0-6.0-1.51","62d78737dcea82e9f96b957c","bdp_trlrn","Mon Mar 13 2023 10:12:30 GMT-0700 (Pacific Daylight Time)","605782","Untrustworthy,Trustworthy","","3198","","","","rating","","trustrating_stim/white_mw049.bmp","6","","","","","","","","","","",""
"image-keyboard-response","108","161562","0.0-6.0-2.51","62d78737dcea82e9f96b957c","bdp_trlrn","Mon Mar 13 2023 10:12:30 GMT-0700 (Pacific Daylight Time)","605782","Untrustworthy,Trustworthy","","null","","","","ratingFB","","trustrating_stim/white_mw049.bmp","null","","","","","","","","","","",""
"image-keyboard-response","109","163338","0.0-6.0-1.52","62d78737dcea82e9f96b957c","bdp_trlrn","Mon Mar 13 2023 10:12:30 GMT-0700 (Pacific Daylight Time)","605782","Untrustworthy,Trustworthy","","1670","","","","rating","","trustrating_stim/white_00129_931230_fb_edt.bmp","9","","","","","","","","","","",""
"image-keyboard-response","110","163541","0.0-6.0-2.52","62d78737dcea82e9f96b957c","bdp_trlrn","Mon Mar 13 2023 10:12:30 GMT-0700 (Pacific Daylight Time)","605782","Untrustworthy,Trustworthy","","null","","","","ratingFB","","trustrating_stim/white_00129_931230_fb_edt.bmp","null","","","","","","","","","","",""
"image-keyboard-response","111","165794","0.0-6.0-1.53","62d78737dcea82e9f96b957c","bdp_trlrn","Mon Mar 13 2023 10:12:30 GMT-0700 (Pacific Daylight Time)","605782","Untrustworthy,Trustworthy","","2147","","","","rating","","trustrating_stim/white_00223_940128_fb_edt.bmp","2","","","","","","","","","","",""
"image-keyboard-response","112","165997","0.0-6.0-2.53","62d78737dcea82e9f96b957c","bdp_trlrn","Mon Mar 13 2023 10:12:30 GMT-0700 (Pacific Daylight Time)","605782","Untrustworthy,Trustworthy","","null","","","","ratingFB","","trustrating_stim/white_00223_940128_fb_edt.bmp","null","","","","","","","","","","",""
"image-keyboard-response","113","167417","0.0-6.0-1.54","62d78737dcea82e9f96b957c","bdp_trlrn","Mon Mar 13 2023 10:12:30 GMT-0700 (Pacific Daylight Time)","605782","Untrustworthy,Trustworthy","","1315","","","","rating","","trustrating_stim/white_00807_941205_fb_edt.bmp","1","","","","","","","","","","",""
"image-keyboard-response","114","167622","0.0-6.0-2.54","62d78737dcea82e9f96b957c","bdp_trlrn","Mon Mar 13 2023 10:12:30 GMT-0700 (Pacific Daylight Time)","605782","Untrustworthy,Trustworthy","","null","","","","ratingFB","","trustrating_stim/white_00807_941205_fb_edt.bmp","null","","","","","","","","","","",""
"image-keyboard-response","115","169561","0.0-6.0-1.55","62d78737dcea82e9f96b957c","bdp_trlrn","Mon Mar 13 2023 10:12:30 GMT-0700 (Pacific Daylight Time)","605782","Untrustworthy,Trustworthy","","1834","","","","rating","","trustrating_stim/white_00519_940519_fb_edt.bmp","6","","","","","","","","","","",""
"image-keyboard-response","116","169764","0.0-6.0-2.55","62d78737dcea82e9f96b957c","bdp_trlrn","Mon Mar 13 2023 10:12:30 GMT-0700 (Pacific Daylight Time)","605782","Untrustworthy,Trustworthy","","null","","","","ratingFB","","trustrating_stim/white_00519_940519_fb_edt.bmp","null","","","","","","","","","","",""
"image-keyboard-response","117","172448","0.0-6.0-1.56","62d78737dcea82e9f96b957c","bdp_trlrn","Mon Mar 13 2023 10:12:30 GMT-0700 (Pacific Daylight Time)","605782","Untrustworthy,Trustworthy","","2578","","","","rating","","trustrating_stim/white_00659_941121_fa_edt.bmp","4","","","","","","","","","","",""
"image-keyboard-response","118","172649","0.0-6.0-2.56","62d78737dcea82e9f96b957c","bdp_trlrn","Mon Mar 13 2023 10:12:30 GMT-0700 (Pacific Daylight Time)","605782","Untrustworthy,Trustworthy","","null","","","","ratingFB","","trustrating_stim/white_00659_941121_fa_edt.bmp","null","","","","","","","","","","",""
"image-keyboard-response","119","175807","0.0-6.0-1.57","62d78737dcea82e9f96b957c","bdp_trlrn","Mon Mar 13 2023 10:12:30 GMT-0700 (Pacific Daylight Time)","605782","Untrustworthy,Trustworthy","","3054","","","","rating","","trustrating_stim/white_mw053.bmp","8","","","","","","","","","","",""
"image-keyboard-response","120","176010","0.0-6.0-2.57","62d78737dcea82e9f96b957c","bdp_trlrn","Mon Mar 13 2023 10:12:30 GMT-0700 (Pacific Daylight Time)","605782","Untrustworthy,Trustworthy","","null","","","","ratingFB","","trustrating_stim/white_mw053.bmp","null","","","","","","","","","","",""
"image-keyboard-response","121","177527","0.0-6.0-1.58","62d78737dcea82e9f96b957c","bdp_trlrn","Mon Mar 13 2023 10:12:30 GMT-0700 (Pacific Daylight Time)","605782","Untrustworthy,Trustworthy","","1412","","","","rating","","trustrating_stim/white_00120_931230_fa_edt.bmp","9","","","","","","","","","","",""
"image-keyboard-response","122","177729","0.0-6.0-2.58","62d78737dcea82e9f96b957c","bdp_trlrn","Mon Mar 13 2023 10:12:30 GMT-0700 (Pacific Daylight Time)","605782","Untrustworthy,Trustworthy","","null","","","","ratingFB","","trustrating_stim/white_00120_931230_fa_edt.bmp","null","","","","","","","","","","",""
"image-keyboard-response","123","180925","0.0-6.0-1.59","62d78737dcea82e9f96b957c","bdp_trlrn","Mon Mar 13 2023 10:12:30 GMT-0700 (Pacific Daylight Time)","605782","Untrustworthy,Trustworthy","","3089","","","","rating","","trustrating_stim/white_00757_941201_fa_edt.bmp","3","","","","","","","","","","",""
"image-keyboard-response","124","181131","0.0-6.0-2.59","62d78737dcea82e9f96b957c","bdp_trlrn","Mon Mar 13 2023 10:12:30 GMT-0700 (Pacific Daylight Time)","605782","Untrustworthy,Trustworthy","","null","","","","ratingFB","","trustrating_stim/white_00757_941201_fa_edt.bmp","null","","","","","","","","","","",""
"instructions","125","182659","0.0-7.0","62d78737dcea82e9f96b957c","bdp_trlrn","Mon Mar 13 2023 10:12:30 GMT-0700 (Pacific Daylight Time)","605782","Untrustworthy,Trustworthy","[{""page_index"":0,""viewing_time"":1424}]","1424","","","","","","","","","","","","","","","","","",""
"instructions","126","268820","0.0-8.0","62d78737dcea82e9f96b957c","bdp_trlrn","Mon Mar 13 2023 10:12:30 GMT-0700 (Pacific Daylight Time)","605782","Untrustworthy,Trustworthy","[{""page_index"":0,""viewing_time"":32872},{""page_index"":1,""viewing_time"":15692},{""page_index"":2,""viewing_time"":8341},{""page_index"":3,""viewing_time"":7380},{""page_index"":4,""viewing_time"":3961},{""page_index"":5,""viewing_time"":3202},{""page_index"":6,""viewing_time"":11555},{""page_index"":7,""viewing_time"":3055}]","86058","","","","","","","","","","","","","","","","","",""
"html-keyboard-response","127","275308","0.0-9.0","62d78737dcea82e9f96b957c","bdp_trlrn","Mon Mar 13 2023 10:12:30 GMT-0700 (Pacific Daylight Time)","605782","Untrustworthy,Trustworthy","","6487","","","","","","<div class='header' style='text-align:left; position: absolute; top: 5%; left: 5%;'><small>Task 3 of 5</small></div><div class='instruxDiv'><p><strong>1) What is the minimum number of points you can choose to send to your partner?</strong></p><p>a) 0</p><p>b) 1</p><p>c) 5</p>","C","","","","","","","","","","",""
"html-keyboard-response","128","278355","0.0-10.0","62d78737dcea82e9f96b957c","bdp_trlrn","Mon Mar 13 2023 10:12:30 GMT-0700 (Pacific Daylight Time)","605782","Untrustworthy,Trustworthy","","2943","","","","","","<div class='header' style='text-align:left; position: absolute; top: 5%; left: 5%;'><small>Task 3 of 5</small></div><div class='instruxDiv'><p><strong>1) What is the minimum number of points you can choose to send to your partner?</strong></p><p>a) 1</p><p>b) 1</p><p style='color:#FF0000'>c) 5</p><h3 style='color:#FF0000'>Incorrect!</h3><h3 class='center-content'>The correct response is b).</h3><h3 class='center-content'>The minimum number of points you can choose to send to your partner is 1 point.</h3><p><em>Press SPACEBAR to continue</em></p></div>"," ","","","","","","","","","","",""
"html-keyboard-response","129","281621","0.0-11.0","62d78737dcea82e9f96b957c","bdp_trlrn","Mon Mar 13 2023 10:12:30 GMT-0700 (Pacific Daylight Time)","605782","Untrustworthy,Trustworthy","","3163","","","","","","<div class='header' style='text-align:left; position: absolute; top: 5%; left: 5%;'><small>Task 3 of 5</small></div><div class='instruxDiv'><p><strong>2) What is the maximum number of points you can choose to send to your partner?</strong></p><p>a) 8</p><p>b) 5</p><p>c) 3</p>","B","","","","","","","","","","",""
"html-keyboard-response","130","282506","0.0-12.0","62d78737dcea82e9f96b957c","bdp_trlrn","Mon Mar 13 2023 10:12:30 GMT-0700 (Pacific Daylight Time)","605782","Untrustworthy,Trustworthy","","780","","","","","","<div class='header' style='text-align:left; position: absolute; top: 5%; left: 5%;'><small>Task 3 of 5</small></div><div class='instruxDiv'><p><strong>2) What is the maximum number of points you can choose to send to your partner?</strong></p><p>a) 8</p><p style='color:#00FF00'>b) 5</p><p>c) 3</p><h3 style='color:#00FF00'>Correct!</h3><h3 class='center-content'>The correct response is b).</h3><h3 class='center-content'>The maximum number of points you can choose to send to your partner is 5 points.</h3><p><em>Press SPACEBAR to continue</em></p></div>"," ","","","","","","","","","","",""
"html-keyboard-response","131","287386","0.0-13.0","62d78737dcea82e9f96b957c","bdp_trlrn","Mon Mar 13 2023 10:12:30 GMT-0700 (Pacific Daylight Time)","605782","Untrustworthy,Trustworthy","","4777","","","","","","<div class='header' style='text-align:left; position: absolute; top: 5%; left: 5%;'><small>Task 3 of 5</small></div><div class='instruxDiv'><p><strong>3) What happens to the amount of points you send to your partner?</strong></p><p>a) Nothing</p><p>b) It doubles</p><p>c) It quadruples</p>","B","","","","","","","","","","",""
"html-keyboard-response","132","297567","0.0-14.0","62d78737dcea82e9f96b957c","bdp_trlrn","Mon Mar 13 2023 10:12:30 GMT-0700 (Pacific Daylight Time)","605782","Untrustworthy,Trustworthy","","10075","","","","","","<div class='header' style='text-align:left; position: absolute; top: 5%; left: 5%;'><small>Task 3 of 5</small></div><div class='instruxDiv'><p><strong>3) What happens to the amount of points you send to your partner?</strong></p><p>a) Nothing</p><p style='color:#FF0000'>b) It doubles</p><p>c) It quadruples</p><h3 style='color:#FF0000'>Incorrect!</h3><h3 class='center-content'>The correct response is c).</h3><h3 class='center-content'>The amount of points you send to your partner quadruples.</h3><p><em>Press SPACEBAR to continue</em></p></div>"," ","","","","","","","","","","",""
"html-keyboard-response","133","307124","0.0-15.0","62d78737dcea82e9f96b957c","bdp_trlrn","Mon Mar 13 2023 10:12:30 GMT-0700 (Pacific Daylight Time)","605782","Untrustworthy,Trustworthy","","9456","","","","","","<div class='header' style='text-align:left; position: absolute; top: 5%; left: 5%;'><small>Task 3 of 5</small></div><div class='instruxDiv'><p><strong>4) If you decided to share 4 out of 5 points with your partner, and they decided to share half of the amount they received with you, how many points would you receive back from them on this round?</strong></p><p>a) 16</p><p>b) 0</p><p>c) 8</p>","C","","","","","","","","","","",""
"html-keyboard-response","134","309317","0.0-16.0","62d78737dcea82e9f96b957c","bdp_trlrn","Mon Mar 13 2023 10:12:30 GMT-0700 (Pacific Daylight Time)","605782","Untrustworthy,Trustworthy","","2089","","","","","","<div class='header' style='text-align:left; position: absolute; top: 5%; left: 5%;'><small>Task 3 of 5</small></div><div class='instruxDiv'><p><strong>4) If you decided to share 4 out of 5 points with your partner, and they decided to share half of the amount they received with you, how many points would you receive back from them on this round?</strong></p><p>a) 16</p><p>b) 0</p><p style='color:#00FF00'>c) 8</p><h3 style='color:#00FF00'>Correct!</h3><h3 class='center-content'>The correct response is c).</h3><h3 class='center-content'>If you shared 4 out of 5 points with your partner and they decided to share half of the amount they received with you, you would receive 8 points back (i.e. (4 x 4)/2 = 8).</h3><p><em>Press SPACEBAR to continue</em></p></div>"," ","","","","","","","","","","",""
"html-keyboard-response","135","314426","0.0-17.0","62d78737dcea82e9f96b957c","bdp_trlrn","Mon Mar 13 2023 10:12:30 GMT-0700 (Pacific Daylight Time)","605782","Untrustworthy,Trustworthy","","null","","","","","","<div class='header' style='text-align:left; position: absolute; top: 5%; left: 5%;'><small>Task 3 of 5</small></div><div class='instruxDiv'><p>Thank you for completing the quiz<p>These are the actual partners you will be interacting with in the next block:<p><div class='tc' align='center'><img class='introPic' src='trustrating_stim/white_00340_940422_fa_edt.bmp'><br><strong>Jacob</strong></div><div class='bl' align='center'><img class='introPic' src='trustrating_stim/white_mw035.bmp'><br><strong>Daniel</strong></div><div class='br' align='center'><img class='introPic' src='trustrating_stim/white_00785_941205_fb_edt.bmp'><br><strong>Alex</strong></div></div><p>Across <strong>66 rounds</strong> you will interact with each partner <strong>22 times</strong> (in random order).<p style='align:center; color:white'><font <em>Press SPACEBAR to continue</em></p>","null","","","","","","","","","","",""
"instructions","136","322539","0.0-18.0","62d78737dcea82e9f96b957c","bdp_trlrn","Mon Mar 13 2023 10:12:30 GMT-0700 (Pacific Daylight Time)","605782","Untrustworthy,Trustworthy","[{""page_index"":0,""viewing_time"":5516},{""page_index"":1,""viewing_time"":2596}]","8112","","","","","","","","","","","","","","","","","",""
"html-keyboard-response","137","324597","0.0-19.0-1.0","62d78737dcea82e9f96b957c","bdp_trlrn","Mon Mar 13 2023 10:12:30 GMT-0700 (Pacific Daylight Time)","605782","Untrustworthy,Trustworthy","","1956","","","","decision","","<div class='trialDiv'><img src='trustrating_stim/white_mw035.bmp'><br><font class='baseline'><strong>Daniel</strong><p>Choose number of points to send.</font><div class='respPicDiv'><img src='img/responseButtonOffersNo0L.png' class='respPic'></div></div>","5","1","Daniel","7","Kept","0.2,0.65","14","0.2","trustrating_stim/white_mw035.bmp","6","5","1"
"html-keyboard-response","138","324850","0.0-19.0-2.0","62d78737dcea82e9f96b957c","bdp_trlrn","Mon Mar 13 2023 10:12:30 GMT-0700 (Pacific Daylight Time)","605782","Untrustworthy,Trustworthy","","null","","","","decisionFB","","<div class='trialDiv'><img src='trustrating_stim/white_mw035.bmp'><br><font class='baseline'><strong>Daniel</strong><p>Choose number of points to send.</font><div class='respPicDiv'><img src='img/responseButtonOffersNo0L5.png' class='respPic'></div></div>","null","1","Daniel","7","Kept","0.2,0.65","14","0.2","trustrating_stim/white_mw035.bmp","6","0","1"
"html-keyboard-response","139","325856","0.0-19.0-3.0","62d78737dcea82e9f96b957c","bdp_trlrn","Mon Mar 13 2023 10:12:30 GMT-0700 (Pacific Daylight Time)","605782","Untrustworthy,Trustworthy","","null","","","","feedback","","<div class='trialDiv'><img src='trustrating_stim/white_mw035.bmp'><br><font class='baseline'><strong>Daniel</strong><p>Received: <strong>20</strong></font> &nbsp; &nbsp; &nbsp; &nbsp; &nbsp; &nbsp;<font class='negOutcome'>Shared back: <strong>0</strong></font></font><div class='respPicDiv'><img src='img/responseButtonOffersNo0_wht.png' class='respPic'></div></div>","null","1","Daniel","7","Kept","0.2,0.65","14","0.2","trustrating_stim/white_mw035.bmp","6","0","1"
"html-keyboard-response","140","327974","0.0-19.0-1.1","62d78737dcea82e9f96b957c","bdp_trlrn","Mon Mar 13 2023 10:12:30 GMT-0700 (Pacific Daylight Time)","605782","Untrustworthy,Trustworthy","","2117","","","","decision","","<div class='trialDiv'><img src='trustrating_stim/white_00785_941205_fb_edt.bmp'><br><font class='baseline'><strong>Alex</strong><p>Choose number of points to send.</font><div class='respPicDiv'><img src='img/responseButtonOffersNo0L.png' class='respPic'></div></div>","5","1","Alex","8","Kept","0.65,0.2","13","0.65","trustrating_stim/white_00785_941205_fb_edt.bmp","8.5","5","2"
"html-keyboard-response","141","328230","0.0-19.0-2.1","62d78737dcea82e9f96b957c","bdp_trlrn","Mon Mar 13 2023 10:12:30 GMT-0700 (Pacific Daylight Time)","605782","Untrustworthy,Trustworthy","","null","","","","decisionFB","","<div class='trialDiv'><img src='trustrating_stim/white_00785_941205_fb_edt.bmp'><br><font class='baseline'><strong>Alex</strong><p>Choose number of points to send.</font><div class='respPicDiv'><img src='img/responseButtonOffersNo0L5.png' class='respPic'></div></div>","null","1","Alex","8","Kept","0.65,0.2","13","0.65","trustrating_stim/white_00785_941205_fb_edt.bmp","8.5","0","2"
"html-keyboard-response","142","329234","0.0-19.0-3.1","62d78737dcea82e9f96b957c","bdp_trlrn","Mon Mar 13 2023 10:12:30 GMT-0700 (Pacific Daylight Time)","605782","Untrustworthy,Trustworthy","","null","","","","feedback","","<div class='trialDiv'><img src='trustrating_stim/white_00785_941205_fb_edt.bmp'><br><font class='baseline'><strong>Alex</strong><p>Received: <strong>20</strong></font> &nbsp; &nbsp; &nbsp; &nbsp; &nbsp; &nbsp;<font class='negOutcome'>Shared back: <strong>0</strong></font></font><div class='respPicDiv'><img src='img/responseButtonOffersNo0_wht.png' class='respPic'></div></div>","null","1","Alex","8","Kept","0.65,0.2","13","0.65","trustrating_stim/white_00785_941205_fb_edt.bmp","8.5","0","2"
"html-keyboard-response","143","332501","0.0-19.0-1.2","62d78737dcea82e9f96b957c","bdp_trlrn","Mon Mar 13 2023 10:12:30 GMT-0700 (Pacific Daylight Time)","605782","Untrustworthy,Trustworthy","","3265","","","","decision","","<div class='trialDiv'><img src='trustrating_stim/white_00340_940422_fa_edt.bmp'><br><font class='baseline'><strong>Jacob</strong><p>Choose number of points to send.</font><div class='respPicDiv'><img src='img/responseButtonOffersNo0L.png' class='respPic'></div></div>","5","1","Jacob","2","Kept","0.2,0.8","9","0.2","trustrating_stim/white_00340_940422_fa_edt.bmp","1","5","3"
"html-keyboard-response","144","332753","0.0-19.0-2.2","62d78737dcea82e9f96b957c","bdp_trlrn","Mon Mar 13 2023 10:12:30 GMT-0700 (Pacific Daylight Time)","605782","Untrustworthy,Trustworthy","","null","","","","decisionFB","","<div class='trialDiv'><img src='trustrating_stim/white_00340_940422_fa_edt.bmp'><br><font class='baseline'><strong>Jacob</strong><p>Choose number of points to send.</font><div class='respPicDiv'><img src='img/responseButtonOffersNo0L5.png' class='respPic'></div></div>","null","1","Jacob","2","Kept","0.2,0.8","9","0.2","trustrating_stim/white_00340_940422_fa_edt.bmp","1","0","3"
"html-keyboard-response","145","333756","0.0-19.0-3.2","62d78737dcea82e9f96b957c","bdp_trlrn","Mon Mar 13 2023 10:12:30 GMT-0700 (Pacific Daylight Time)","605782","Untrustworthy,Trustworthy","","null","","","","feedback","","<div class='trialDiv'><img src='trustrating_stim/white_00340_940422_fa_edt.bmp'><br><font class='baseline'><strong>Jacob</strong><p>Received: <strong>20</strong></font> &nbsp; &nbsp; &nbsp; &nbsp; &nbsp; &nbsp;<font class='negOutcome'>Shared back: <strong>0</strong></font></font><div class='respPicDiv'><img src='img/responseButtonOffersNo0_wht.png' class='respPic'></div></div>","null","1","Jacob","2","Kept","0.2,0.8","9","0.2","trustrating_stim/white_00340_940422_fa_edt.bmp","1","0","3"
"html-keyboard-response","146","334714","0.0-19.0-1.3","62d78737dcea82e9f96b957c","bdp_trlrn","Mon Mar 13 2023 10:12:30 GMT-0700 (Pacific Daylight Time)","605782","Untrustworthy,Trustworthy","","956","","","","decision","","<div class='trialDiv'><img src='trustrating_stim/white_00785_941205_fb_edt.bmp'><br><font class='baseline'><strong>Alex</strong><p>Choose number of points to send.</font><div class='respPicDiv'><img src='img/responseButtonOffersNo0L.png' class='respPic'></div></div>","5","2","Alex","8","Shared","0.65,0.2","13","0.65","trustrating_stim/white_00785_941205_fb_edt.bmp","8.5","5","4"
"html-keyboard-response","147","334970","0.0-19.0-2.3","62d78737dcea82e9f96b957c","bdp_trlrn","Mon Mar 13 2023 10:12:30 GMT-0700 (Pacific Daylight Time)","605782","Untrustworthy,Trustworthy","","null","","","","decisionFB","","<div class='trialDiv'><img src='trustrating_stim/white_00785_941205_fb_edt.bmp'><br><font class='baseline'><strong>Alex</strong><p>Choose number of points to send.</font><div class='respPicDiv'><img src='img/responseButtonOffersNo0L5.png' class='respPic'></div></div>","null","2","Alex","8","Shared","0.65,0.2","13","0.65","trustrating_stim/white_00785_941205_fb_edt.bmp","8.5","0","4"
"html-keyboard-response","148","335974","0.0-19.0-3.3","62d78737dcea82e9f96b957c","bdp_trlrn","Mon Mar 13 2023 10:12:30 GMT-0700 (Pacific Daylight Time)","605782","Untrustworthy,Trustworthy","","null","","","","feedback","","<div class='trialDiv'><img src='trustrating_stim/white_00785_941205_fb_edt.bmp'><br><font class='baseline'><strong>Alex</strong><p>Received: <strong>20</strong></font> &nbsp; &nbsp; &nbsp; &nbsp; &nbsp; &nbsp;<font class='posOutcome'>Shared back: <strong>10</strong></font></font><div class='respPicDiv'><img src='img/responseButtonOffersNo0_wht.png' class='respPic'></div></div>","null","2","Alex","8","Shared","0.65,0.2","13","0.65","trustrating_stim/white_00785_941205_fb_edt.bmp","8.5","10","4"
"html-keyboard-response","149","339699","0.0-19.0-1.4","62d78737dcea82e9f96b957c","bdp_trlrn","Mon Mar 13 2023 10:12:30 GMT-0700 (Pacific Daylight Time)","605782","Untrustworthy,Trustworthy","","3724","","","","decision","","<div class='trialDiv'><img src='trustrating_stim/white_00340_940422_fa_edt.bmp'><br><font class='baseline'><strong>Jacob</strong><p>Choose number of points to send.</font><div class='respPicDiv'><img src='img/responseButtonOffersNo0L.png' class='respPic'></div></div>","5","2","Jacob","2","Kept","0.2,0.8","9","0.2","trustrating_stim/white_00340_940422_fa_edt.bmp","1","15","5"
"html-keyboard-response","150","339952","0.0-19.0-2.4","62d78737dcea82e9f96b957c","bdp_trlrn","Mon Mar 13 2023 10:12:30 GMT-0700 (Pacific Daylight Time)","605782","Untrustworthy,Trustworthy","","null","","","","decisionFB","","<div class='trialDiv'><img src='trustrating_stim/white_00340_940422_fa_edt.bmp'><br><font class='baseline'><strong>Jacob</strong><p>Choose number of points to send.</font><div class='respPicDiv'><img src='img/responseButtonOffersNo0L5.png' class='respPic'></div></div>","null","2","Jacob","2","Kept","0.2,0.8","9","0.2","trustrating_stim/white_00340_940422_fa_edt.bmp","1","10","5"
"html-keyboard-response","151","340955","0.0-19.0-3.4","62d78737dcea82e9f96b957c","bdp_trlrn","Mon Mar 13 2023 10:12:30 GMT-0700 (Pacific Daylight Time)","605782","Untrustworthy,Trustworthy","","null","","","","feedback","","<div class='trialDiv'><img src='trustrating_stim/white_00340_940422_fa_edt.bmp'><br><font class='baseline'><strong>Jacob</strong><p>Received: <strong>20</strong></font> &nbsp; &nbsp; &nbsp; &nbsp; &nbsp; &nbsp;<font class='negOutcome'>Shared back: <strong>0</strong></font></font><div class='respPicDiv'><img src='img/responseButtonOffersNo0_wht.png' class='respPic'></div></div>","null","2","Jacob","2","Kept","0.2,0.8","9","0.2","trustrating_stim/white_00340_940422_fa_edt.bmp","1","10","5"
"html-keyboard-response","152","341230","0.0-19.0-1.5","62d78737dcea82e9f96b957c","bdp_trlrn","Mon Mar 13 2023 10:12:30 GMT-0700 (Pacific Daylight Time)","605782","Untrustworthy,Trustworthy","","274","","","","decision","","<div class='trialDiv'><img src='trustrating_stim/white_mw035.bmp'><br><font class='baseline'><strong>Daniel</strong><p>Choose number of points to send.</font><div class='respPicDiv'><img src='img/responseButtonOffersNo0L.png' class='respPic'></div></div>","5","2","Daniel","7","Shared","0.2,0.65","14","0.2","trustrating_stim/white_mw035.bmp","6","15","6"
"html-keyboard-response","153","341483","0.0-19.0-2.5","62d78737dcea82e9f96b957c","bdp_trlrn","Mon Mar 13 2023 10:12:30 GMT-0700 (Pacific Daylight Time)","605782","Untrustworthy,Trustworthy","","null","","","","decisionFB","","<div class='trialDiv'><img src='trustrating_stim/white_mw035.bmp'><br><font class='baseline'><strong>Daniel</strong><p>Choose number of points to send.</font><div class='respPicDiv'><img src='img/responseButtonOffersNo0L5.png' class='respPic'></div></div>","null","2","Daniel","7","Shared","0.2,0.65","14","0.2","trustrating_stim/white_mw035.bmp","6","10","6"
"html-keyboard-response","154","342488","0.0-19.0-3.5","62d78737dcea82e9f96b957c","bdp_trlrn","Mon Mar 13 2023 10:12:30 GMT-0700 (Pacific Daylight Time)","605782","Untrustworthy,Trustworthy","","null","","","","feedback","","<div class='trialDiv'><img src='trustrating_stim/white_mw035.bmp'><br><font class='baseline'><strong>Daniel</strong><p>Received: <strong>20</strong></font> &nbsp; &nbsp; &nbsp; &nbsp; &nbsp; &nbsp;<font class='posOutcome'>Shared back: <strong>10</strong></font></font><div class='respPicDiv'><img src='img/responseButtonOffersNo0_wht.png' class='respPic'></div></div>","null","2","Daniel","7","Shared","0.2,0.65","14","0.2","trustrating_stim/white_mw035.bmp","6","20","6"
"html-keyboard-response","155","342979","0.0-19.0-1.6","62d78737dcea82e9f96b957c","bdp_trlrn","Mon Mar 13 2023 10:12:30 GMT-0700 (Pacific Daylight Time)","605782","Untrustworthy,Trustworthy","","491","","","","decision","","<div class='trialDiv'><img src='trustrating_stim/white_00340_940422_fa_edt.bmp'><br><font class='baseline'><strong>Jacob</strong><p>Choose number of points to send.</font><div class='respPicDiv'><img src='img/responseButtonOffersNo0L.png' class='respPic'></div></div>","5","3","Jacob","2","Kept","0.2,0.8","9","0.2","trustrating_stim/white_00340_940422_fa_edt.bmp","1","25","7"
"html-keyboard-response","156","343235","0.0-19.0-2.6","62d78737dcea82e9f96b957c","bdp_trlrn","Mon Mar 13 2023 10:12:30 GMT-0700 (Pacific Daylight Time)","605782","Untrustworthy,Trustworthy","","null","","","","decisionFB","","<div class='trialDiv'><img src='trustrating_stim/white_00340_940422_fa_edt.bmp'><br><font class='baseline'><strong>Jacob</strong><p>Choose number of points to send.</font><div class='respPicDiv'><img src='img/responseButtonOffersNo0L5.png' class='respPic'></div></div>","null","3","Jacob","2","Kept","0.2,0.8","9","0.2","trustrating_stim/white_00340_940422_fa_edt.bmp","1","20","7"
"html-keyboard-response","157","344240","0.0-19.0-3.6","62d78737dcea82e9f96b957c","bdp_trlrn","Mon Mar 13 2023 10:12:30 GMT-0700 (Pacific Daylight Time)","605782","Untrustworthy,Trustworthy","","null","","","","feedback","","<div class='trialDiv'><img src='trustrating_stim/white_00340_940422_fa_edt.bmp'><br><font class='baseline'><strong>Jacob</strong><p>Received: <strong>20</strong></font> &nbsp; &nbsp; &nbsp; &nbsp; &nbsp; &nbsp;<font class='negOutcome'>Shared back: <strong>0</strong></font></font><div class='respPicDiv'><img src='img/responseButtonOffersNo0_wht.png' class='respPic'></div></div>","null","3","Jacob","2","Kept","0.2,0.8","9","0.2","trustrating_stim/white_00340_940422_fa_edt.bmp","1","20","7"
"html-keyboard-response","158","344521","0.0-19.0-1.7","62d78737dcea82e9f96b957c","bdp_trlrn","Mon Mar 13 2023 10:12:30 GMT-0700 (Pacific Daylight Time)","605782","Untrustworthy,Trustworthy","","280","","","","decision","","<div class='trialDiv'><img src='trustrating_stim/white_mw035.bmp'><br><font class='baseline'><strong>Daniel</strong><p>Choose number of points to send.</font><div class='respPicDiv'><img src='img/responseButtonOffersNo0L.png' class='respPic'></div></div>","5","3","Daniel","7","Kept","0.2,0.65","14","0.2","trustrating_stim/white_mw035.bmp","6","25","8"
"html-keyboard-response","159","344775","0.0-19.0-2.7","62d78737dcea82e9f96b957c","bdp_trlrn","Mon Mar 13 2023 10:12:30 GMT-0700 (Pacific Daylight Time)","605782","Untrustworthy,Trustworthy","","null","","","","decisionFB","","<div class='trialDiv'><img src='trustrating_stim/white_mw035.bmp'><br><font class='baseline'><strong>Daniel</strong><p>Choose number of points to send.</font><div class='respPicDiv'><img src='img/responseButtonOffersNo0L5.png' class='respPic'></div></div>","null","3","Daniel","7","Kept","0.2,0.65","14","0.2","trustrating_stim/white_mw035.bmp","6","20","8"
"html-keyboard-response","160","345780","0.0-19.0-3.7","62d78737dcea82e9f96b957c","bdp_trlrn","Mon Mar 13 2023 10:12:30 GMT-0700 (Pacific Daylight Time)","605782","Untrustworthy,Trustworthy","","null","","","","feedback","","<div class='trialDiv'><img src='trustrating_stim/white_mw035.bmp'><br><font class='baseline'><strong>Daniel</strong><p>Received: <strong>20</strong></font> &nbsp; &nbsp; &nbsp; &nbsp; &nbsp; &nbsp;<font class='negOutcome'>Shared back: <strong>0</strong></font></font><div class='respPicDiv'><img src='img/responseButtonOffersNo0_wht.png' class='respPic'></div></div>","null","3","Daniel","7","Kept","0.2,0.65","14","0.2","trustrating_stim/white_mw035.bmp","6","20","8"
"html-keyboard-response","161","349517","0.0-19.0-1.8","62d78737dcea82e9f96b957c","bdp_trlrn","Mon Mar 13 2023 10:12:30 GMT-0700 (Pacific Daylight Time)","605782","Untrustworthy,Trustworthy","","3736","","","","decision","","<div class='trialDiv'><img src='trustrating_stim/white_00785_941205_fb_edt.bmp'><br><font class='baseline'><strong>Alex</strong><p>Choose number of points to send.</font><div class='respPicDiv'><img src='img/responseButtonOffersNo0L.png' class='respPic'></div></div>","5","3","Alex","8","Shared","0.65,0.2","13","0.65","trustrating_stim/white_00785_941205_fb_edt.bmp","8.5","25","9"
"html-keyboard-response","162","349771","0.0-19.0-2.8","62d78737dcea82e9f96b957c","bdp_trlrn","Mon Mar 13 2023 10:12:30 GMT-0700 (Pacific Daylight Time)","605782","Untrustworthy,Trustworthy","","null","","","","decisionFB","","<div class='trialDiv'><img src='trustrating_stim/white_00785_941205_fb_edt.bmp'><br><font class='baseline'><strong>Alex</strong><p>Choose number of points to send.</font><div class='respPicDiv'><img src='img/responseButtonOffersNo0L5.png' class='respPic'></div></div>","null","3","Alex","8","Shared","0.65,0.2","13","0.65","trustrating_stim/white_00785_941205_fb_edt.bmp","8.5","20","9"
"html-keyboard-response","163","350777","0.0-19.0-3.8","62d78737dcea82e9f96b957c","bdp_trlrn","Mon Mar 13 2023 10:12:30 GMT-0700 (Pacific Daylight Time)","605782","Untrustworthy,Trustworthy","","null","","","","feedback","","<div class='trialDiv'><img src='trustrating_stim/white_00785_941205_fb_edt.bmp'><br><font class='baseline'><strong>Alex</strong><p>Received: <strong>20</strong></font> &nbsp; &nbsp; &nbsp; &nbsp; &nbsp; &nbsp;<font class='posOutcome'>Shared back: <strong>10</strong></font></font><div class='respPicDiv'><img src='img/responseButtonOffersNo0_wht.png' class='respPic'></div></div>","null","3","Alex","8","Shared","0.65,0.2","13","0.65","trustrating_stim/white_00785_941205_fb_edt.bmp","8.5","30","9"
"html-keyboard-response","164","353492","0.0-19.0-1.9","62d78737dcea82e9f96b957c","bdp_trlrn","Mon Mar 13 2023 10:12:30 GMT-0700 (Pacific Daylight Time)","605782","Untrustworthy,Trustworthy","","2714","","","","decision","","<div class='trialDiv'><img src='trustrating_stim/white_00340_940422_fa_edt.bmp'><br><font class='baseline'><strong>Jacob</strong><p>Choose number of points to send.</font><div class='respPicDiv'><img src='img/responseButtonOffersNo0L.png' class='respPic'></div></div>","5","4","Jacob","2","Kept","0.2,0.8","9","0.2","trustrating_stim/white_00340_940422_fa_edt.bmp","1","35","10"
"html-keyboard-response","165","353746","0.0-19.0-2.9","62d78737dcea82e9f96b957c","bdp_trlrn","Mon Mar 13 2023 10:12:30 GMT-0700 (Pacific Daylight Time)","605782","Untrustworthy,Trustworthy","","null","","","","decisionFB","","<div class='trialDiv'><img src='trustrating_stim/white_00340_940422_fa_edt.bmp'><br><font class='baseline'><strong>Jacob</strong><p>Choose number of points to send.</font><div class='respPicDiv'><img src='img/responseButtonOffersNo0L5.png' class='respPic'></div></div>","null","4","Jacob","2","Kept","0.2,0.8","9","0.2","trustrating_stim/white_00340_940422_fa_edt.bmp","1","30","10"
"html-keyboard-response","166","354753","0.0-19.0-3.9","62d78737dcea82e9f96b957c","bdp_trlrn","Mon Mar 13 2023 10:12:30 GMT-0700 (Pacific Daylight Time)","605782","Untrustworthy,Trustworthy","","null","","","","feedback","","<div class='trialDiv'><img src='trustrating_stim/white_00340_940422_fa_edt.bmp'><br><font class='baseline'><strong>Jacob</strong><p>Received: <strong>20</strong></font> &nbsp; &nbsp; &nbsp; &nbsp; &nbsp; &nbsp;<font class='negOutcome'>Shared back: <strong>0</strong></font></font><div class='respPicDiv'><img src='img/responseButtonOffersNo0_wht.png' class='respPic'></div></div>","null","4","Jacob","2","Kept","0.2,0.8","9","0.2","trustrating_stim/white_00340_940422_fa_edt.bmp","1","30","10"
"html-keyboard-response","167","355289","0.0-19.0-1.10","62d78737dcea82e9f96b957c","bdp_trlrn","Mon Mar 13 2023 10:12:30 GMT-0700 (Pacific Daylight Time)","605782","Untrustworthy,Trustworthy","","535","","","","decision","","<div class='trialDiv'><img src='trustrating_stim/white_00785_941205_fb_edt.bmp'><br><font class='baseline'><strong>Alex</strong><p>Choose number of points to send.</font><div class='respPicDiv'><img src='img/responseButtonOffersNo0L.png' class='respPic'></div></div>","5","4","Alex","8","Kept","0.65,0.2","13","0.65","trustrating_stim/white_00785_941205_fb_edt.bmp","8.5","35","11"
"html-keyboard-response","168","355543","0.0-19.0-2.10","62d78737dcea82e9f96b957c","bdp_trlrn","Mon Mar 13 2023 10:12:30 GMT-0700 (Pacific Daylight Time)","605782","Untrustworthy,Trustworthy","","null","","","","decisionFB","","<div class='trialDiv'><img src='trustrating_stim/white_00785_941205_fb_edt.bmp'><br><font class='baseline'><strong>Alex</strong><p>Choose number of points to send.</font><div class='respPicDiv'><img src='img/responseButtonOffersNo0L5.png' class='respPic'></div></div>","null","4","Alex","8","Kept","0.65,0.2","13","0.65","trustrating_stim/white_00785_941205_fb_edt.bmp","8.5","30","11"
"html-keyboard-response","169","356547","0.0-19.0-3.10","62d78737dcea82e9f96b957c","bdp_trlrn","Mon Mar 13 2023 10:12:30 GMT-0700 (Pacific Daylight Time)","605782","Untrustworthy,Trustworthy","","null","","","","feedback","","<div class='trialDiv'><img src='trustrating_stim/white_00785_941205_fb_edt.bmp'><br><font class='baseline'><strong>Alex</strong><p>Received: <strong>20</strong></font> &nbsp; &nbsp; &nbsp; &nbsp; &nbsp; &nbsp;<font class='negOutcome'>Shared back: <strong>0</strong></font></font><div class='respPicDiv'><img src='img/responseButtonOffersNo0_wht.png' class='respPic'></div></div>","null","4","Alex","8","Kept","0.65,0.2","13","0.65","trustrating_stim/white_00785_941205_fb_edt.bmp","8.5","30","11"
"html-keyboard-response","170","356778","0.0-19.0-1.11","62d78737dcea82e9f96b957c","bdp_trlrn","Mon Mar 13 2023 10:12:30 GMT-0700 (Pacific Daylight Time)","605782","Untrustworthy,Trustworthy","","230","","","","decision","","<div class='trialDiv'><img src='trustrating_stim/white_mw035.bmp'><br><font class='baseline'><strong>Daniel</strong><p>Choose number of points to send.</font><div class='respPicDiv'><img src='img/responseButtonOffersNo0L.png' class='respPic'></div></div>","5","4","Daniel","7","Shared","0.2,0.65","14","0.2","trustrating_stim/white_mw035.bmp","6","35","12"
"html-keyboard-response","171","357034","0.0-19.0-2.11","62d78737dcea82e9f96b957c","bdp_trlrn","Mon Mar 13 2023 10:12:30 GMT-0700 (Pacific Daylight Time)","605782","Untrustworthy,Trustworthy","","null","","","","decisionFB","","<div class='trialDiv'><img src='trustrating_stim/white_mw035.bmp'><br><font class='baseline'><strong>Daniel</strong><p>Choose number of points to send.</font><div class='respPicDiv'><img src='img/responseButtonOffersNo0L5.png' class='respPic'></div></div>","null","4","Daniel","7","Shared","0.2,0.65","14","0.2","trustrating_stim/white_mw035.bmp","6","30","12"
"html-keyboard-response","172","358039","0.0-19.0-3.11","62d78737dcea82e9f96b957c","bdp_trlrn","Mon Mar 13 2023 10:12:30 GMT-0700 (Pacific Daylight Time)","605782","Untrustworthy,Trustworthy","","null","","","","feedback","","<div class='trialDiv'><img src='trustrating_stim/white_mw035.bmp'><br><font class='baseline'><strong>Daniel</strong><p>Received: <strong>20</strong></font> &nbsp; &nbsp; &nbsp; &nbsp; &nbsp; &nbsp;<font class='posOutcome'>Shared back: <strong>10</strong></font></font><div class='respPicDiv'><img src='img/responseButtonOffersNo0_wht.png' class='respPic'></div></div>","null","4","Daniel","7","Shared","0.2,0.65","14","0.2","trustrating_stim/white_mw035.bmp","6","40","12"
"html-keyboard-response","173","358776","0.0-19.0-1.12","62d78737dcea82e9f96b957c","bdp_trlrn","Mon Mar 13 2023 10:12:30 GMT-0700 (Pacific Daylight Time)","605782","Untrustworthy,Trustworthy","","736","","","","decision","","<div class='trialDiv'><img src='trustrating_stim/white_00785_941205_fb_edt.bmp'><br><font class='baseline'><strong>Alex</strong><p>Choose number of points to send.</font><div class='respPicDiv'><img src='img/responseButtonOffersNo0L.png' class='respPic'></div></div>","5","5","Alex","8","Shared","0.65,0.2","13","0.65","trustrating_stim/white_00785_941205_fb_edt.bmp","8.5","45","13"
"html-keyboard-response","174","359032","0.0-19.0-2.12","62d78737dcea82e9f96b957c","bdp_trlrn","Mon Mar 13 2023 10:12:30 GMT-0700 (Pacific Daylight Time)","605782","Untrustworthy,Trustworthy","","null","","","","decisionFB","","<div class='trialDiv'><img src='trustrating_stim/white_00785_941205_fb_edt.bmp'><br><font class='baseline'><strong>Alex</strong><p>Choose number of points to send.</font><div class='respPicDiv'><img src='img/responseButtonOffersNo0L5.png' class='respPic'></div></div>","null","5","Alex","8","Shared","0.65,0.2","13","0.65","trustrating_stim/white_00785_941205_fb_edt.bmp","8.5","40","13"
"html-keyboard-response","175","360036","0.0-19.0-3.12","62d78737dcea82e9f96b957c","bdp_trlrn","Mon Mar 13 2023 10:12:30 GMT-0700 (Pacific Daylight Time)","605782","Untrustworthy,Trustworthy","","null","","","","feedback","","<div class='trialDiv'><img src='trustrating_stim/white_00785_941205_fb_edt.bmp'><br><font class='baseline'><strong>Alex</strong><p>Received: <strong>20</strong></font> &nbsp; &nbsp; &nbsp; &nbsp; &nbsp; &nbsp;<font class='posOutcome'>Shared back: <strong>10</strong></font></font><div class='respPicDiv'><img src='img/responseButtonOffersNo0_wht.png' class='respPic'></div></div>","null","5","Alex","8","Shared","0.65,0.2","13","0.65","trustrating_stim/white_00785_941205_fb_edt.bmp","8.5","50","13"
"html-keyboard-response","176","360356","0.0-19.0-1.13","62d78737dcea82e9f96b957c","bdp_trlrn","Mon Mar 13 2023 10:12:30 GMT-0700 (Pacific Daylight Time)","605782","Untrustworthy,Trustworthy","","319","","","","decision","","<div class='trialDiv'><img src='trustrating_stim/white_00340_940422_fa_edt.bmp'><br><font class='baseline'><strong>Jacob</strong><p>Choose number of points to send.</font><div class='respPicDiv'><img src='img/responseButtonOffersNo0L.png' class='respPic'></div></div>","5","5","Jacob","2","Kept","0.2,0.8","9","0.2","trustrating_stim/white_00340_940422_fa_edt.bmp","1","55","14"
"html-keyboard-response","177","360611","0.0-19.0-2.13","62d78737dcea82e9f96b957c","bdp_trlrn","Mon Mar 13 2023 10:12:30 GMT-0700 (Pacific Daylight Time)","605782","Untrustworthy,Trustworthy","","null","","","","decisionFB","","<div class='trialDiv'><img src='trustrating_stim/white_00340_940422_fa_edt.bmp'><br><font class='baseline'><strong>Jacob</strong><p>Choose number of points to send.</font><div class='respPicDiv'><img src='img/responseButtonOffersNo0L5.png' class='respPic'></div></div>","null","5","Jacob","2","Kept","0.2,0.8","9","0.2","trustrating_stim/white_00340_940422_fa_edt.bmp","1","50","14"
"html-keyboard-response","178","361615","0.0-19.0-3.13","62d78737dcea82e9f96b957c","bdp_trlrn","Mon Mar 13 2023 10:12:30 GMT-0700 (Pacific Daylight Time)","605782","Untrustworthy,Trustworthy","","null","","","","feedback","","<div class='trialDiv'><img src='trustrating_stim/white_00340_940422_fa_edt.bmp'><br><font class='baseline'><strong>Jacob</strong><p>Received: <strong>20</strong></font> &nbsp; &nbsp; &nbsp; &nbsp; &nbsp; &nbsp;<font class='negOutcome'>Shared back: <strong>0</strong></font></font><div class='respPicDiv'><img src='img/responseButtonOffersNo0_wht.png' class='respPic'></div></div>","null","5","Jacob","2","Kept","0.2,0.8","9","0.2","trustrating_stim/white_00340_940422_fa_edt.bmp","1","50","14"
"html-keyboard-response","179","361675","0.0-19.0-1.14","62d78737dcea82e9f96b957c","bdp_trlrn","Mon Mar 13 2023 10:12:30 GMT-0700 (Pacific Daylight Time)","605782","Untrustworthy,Trustworthy","","59","","","","decision","","<div class='trialDiv'><img src='trustrating_stim/white_mw035.bmp'><br><font class='baseline'><strong>Daniel</strong><p>Choose number of points to send.</font><div class='respPicDiv'><img src='img/responseButtonOffersNo0L.png' class='respPic'></div></div>","5","5","Daniel","7","Kept","0.2,0.65","14","0.2","trustrating_stim/white_mw035.bmp","6","55","15"
"html-keyboard-response","180","361929","0.0-19.0-2.14","62d78737dcea82e9f96b957c","bdp_trlrn","Mon Mar 13 2023 10:12:30 GMT-0700 (Pacific Daylight Time)","605782","Untrustworthy,Trustworthy","","null","","","","decisionFB","","<div class='trialDiv'><img src='trustrating_stim/white_mw035.bmp'><br><font class='baseline'><strong>Daniel</strong><p>Choose number of points to send.</font><div class='respPicDiv'><img src='img/responseButtonOffersNo0L5.png' class='respPic'></div></div>","null","5","Daniel","7","Kept","0.2,0.65","14","0.2","trustrating_stim/white_mw035.bmp","6","50","15"
"html-keyboard-response","181","362930","0.0-19.0-3.14","62d78737dcea82e9f96b957c","bdp_trlrn","Mon Mar 13 2023 10:12:30 GMT-0700 (Pacific Daylight Time)","605782","Untrustworthy,Trustworthy","","null","","","","feedback","","<div class='trialDiv'><img src='trustrating_stim/white_mw035.bmp'><br><font class='baseline'><strong>Daniel</strong><p>Received: <strong>20</strong></font> &nbsp; &nbsp; &nbsp; &nbsp; &nbsp; &nbsp;<font class='negOutcome'>Shared back: <strong>0</strong></font></font><div class='respPicDiv'><img src='img/responseButtonOffersNo0_wht.png' class='respPic'></div></div>","null","5","Daniel","7","Kept","0.2,0.65","14","0.2","trustrating_stim/white_mw035.bmp","6","50","15"
"html-keyboard-response","182","363495","0.0-19.0-1.15","62d78737dcea82e9f96b957c","bdp_trlrn","Mon Mar 13 2023 10:12:30 GMT-0700 (Pacific Daylight Time)","605782","Untrustworthy,Trustworthy","","563","","","","decision","","<div class='trialDiv'><img src='trustrating_stim/white_00785_941205_fb_edt.bmp'><br><font class='baseline'><strong>Alex</strong><p>Choose number of points to send.</font><div class='respPicDiv'><img src='img/responseButtonOffersNo0L.png' class='respPic'></div></div>","5","6","Alex","8","Shared","0.65,0.2","13","0.65","trustrating_stim/white_00785_941205_fb_edt.bmp","8.5","55","16"
"html-keyboard-response","183","363751","0.0-19.0-2.15","62d78737dcea82e9f96b957c","bdp_trlrn","Mon Mar 13 2023 10:12:30 GMT-0700 (Pacific Daylight Time)","605782","Untrustworthy,Trustworthy","","null","","","","decisionFB","","<div class='trialDiv'><img src='trustrating_stim/white_00785_941205_fb_edt.bmp'><br><font class='baseline'><strong>Alex</strong><p>Choose number of points to send.</font><div class='respPicDiv'><img src='img/responseButtonOffersNo0L5.png' class='respPic'></div></div>","null","6","Alex","8","Shared","0.65,0.2","13","0.65","trustrating_stim/white_00785_941205_fb_edt.bmp","8.5","50","16"
"html-keyboard-response","184","364756","0.0-19.0-3.15","62d78737dcea82e9f96b957c","bdp_trlrn","Mon Mar 13 2023 10:12:30 GMT-0700 (Pacific Daylight Time)","605782","Untrustworthy,Trustworthy","","null","","","","feedback","","<div class='trialDiv'><img src='trustrating_stim/white_00785_941205_fb_edt.bmp'><br><font class='baseline'><strong>Alex</strong><p>Received: <strong>20</strong></font> &nbsp; &nbsp; &nbsp; &nbsp; &nbsp; &nbsp;<font class='posOutcome'>Shared back: <strong>10</strong></font></font><div class='respPicDiv'><img src='img/responseButtonOffersNo0_wht.png' class='respPic'></div></div>","null","6","Alex","8","Shared","0.65,0.2","13","0.65","trustrating_stim/white_00785_941205_fb_edt.bmp","8.5","60","16"
"html-keyboard-response","185","365041","0.0-19.0-1.16","62d78737dcea82e9f96b957c","bdp_trlrn","Mon Mar 13 2023 10:12:30 GMT-0700 (Pacific Daylight Time)","605782","Untrustworthy,Trustworthy","","284","","","","decision","","<div class='trialDiv'><img src='trustrating_stim/white_00340_940422_fa_edt.bmp'><br><font class='baseline'><strong>Jacob</strong><p>Choose number of points to send.</font><div class='respPicDiv'><img src='img/responseButtonOffersNo0L.png' class='respPic'></div></div>","5","6","Jacob","2","Shared","0.2,0.8","9","0.2","trustrating_stim/white_00340_940422_fa_edt.bmp","1","65","17"
"html-keyboard-response","186","365296","0.0-19.0-2.16","62d78737dcea82e9f96b957c","bdp_trlrn","Mon Mar 13 2023 10:12:30 GMT-0700 (Pacific Daylight Time)","605782","Untrustworthy,Trustworthy","","null","","","","decisionFB","","<div class='trialDiv'><img src='trustrating_stim/white_00340_940422_fa_edt.bmp'><br><font class='baseline'><strong>Jacob</strong><p>Choose number of points to send.</font><div class='respPicDiv'><img src='img/responseButtonOffersNo0L5.png' class='respPic'></div></div>","null","6","Jacob","2","Shared","0.2,0.8","9","0.2","trustrating_stim/white_00340_940422_fa_edt.bmp","1","60","17"
"html-keyboard-response","187","366299","0.0-19.0-3.16","62d78737dcea82e9f96b957c","bdp_trlrn","Mon Mar 13 2023 10:12:30 GMT-0700 (Pacific Daylight Time)","605782","Untrustworthy,Trustworthy","","null","","","","feedback","","<div class='trialDiv'><img src='trustrating_stim/white_00340_940422_fa_edt.bmp'><br><font class='baseline'><strong>Jacob</strong><p>Received: <strong>20</strong></font> &nbsp; &nbsp; &nbsp; &nbsp; &nbsp; &nbsp;<font class='posOutcome'>Shared back: <strong>10</strong></font></font><div class='respPicDiv'><img src='img/responseButtonOffersNo0_wht.png' class='respPic'></div></div>","null","6","Jacob","2","Shared","0.2,0.8","9","0.2","trustrating_stim/white_00340_940422_fa_edt.bmp","1","70","17"
"html-keyboard-response","188","366545","0.0-19.0-1.17","62d78737dcea82e9f96b957c","bdp_trlrn","Mon Mar 13 2023 10:12:30 GMT-0700 (Pacific Daylight Time)","605782","Untrustworthy,Trustworthy","","244","","","","decision","","<div class='trialDiv'><img src='trustrating_stim/white_mw035.bmp'><br><font class='baseline'><strong>Daniel</strong><p>Choose number of points to send.</font><div class='respPicDiv'><img src='img/responseButtonOffersNo0L.png' class='respPic'></div></div>","5","6","Daniel","7","Kept","0.2,0.65","14","0.2","trustrating_stim/white_mw035.bmp","6","75","18"
"html-keyboard-response","189","366799","0.0-19.0-2.17","62d78737dcea82e9f96b957c","bdp_trlrn","Mon Mar 13 2023 10:12:30 GMT-0700 (Pacific Daylight Time)","605782","Untrustworthy,Trustworthy","","null","","","","decisionFB","","<div class='trialDiv'><img src='trustrating_stim/white_mw035.bmp'><br><font class='baseline'><strong>Daniel</strong><p>Choose number of points to send.</font><div class='respPicDiv'><img src='img/responseButtonOffersNo0L5.png' class='respPic'></div></div>","null","6","Daniel","7","Kept","0.2,0.65","14","0.2","trustrating_stim/white_mw035.bmp","6","70","18"
"html-keyboard-response","190","367803","0.0-19.0-3.17","62d78737dcea82e9f96b957c","bdp_trlrn","Mon Mar 13 2023 10:12:30 GMT-0700 (Pacific Daylight Time)","605782","Untrustworthy,Trustworthy","","null","","","","feedback","","<div class='trialDiv'><img src='trustrating_stim/white_mw035.bmp'><br><font class='baseline'><strong>Daniel</strong><p>Received: <strong>20</strong></font> &nbsp; &nbsp; &nbsp; &nbsp; &nbsp; &nbsp;<font class='negOutcome'>Shared back: <strong>0</strong></font></font><div class='respPicDiv'><img src='img/responseButtonOffersNo0_wht.png' class='respPic'></div></div>","null","6","Daniel","7","Kept","0.2,0.65","14","0.2","trustrating_stim/white_mw035.bmp","6","70","18"
"html-keyboard-response","191","367957","0.0-19.0-1.18","62d78737dcea82e9f96b957c","bdp_trlrn","Mon Mar 13 2023 10:12:30 GMT-0700 (Pacific Daylight Time)","605782","Untrustworthy,Trustworthy","","153","","","","decision","","<div class='trialDiv'><img src='trustrating_stim/white_00340_940422_fa_edt.bmp'><br><font class='baseline'><strong>Jacob</strong><p>Choose number of points to send.</font><div class='respPicDiv'><img src='img/responseButtonOffersNo0L.png' class='respPic'></div></div>","5","7","Jacob","2","Kept","0.2,0.8","9","0.2","trustrating_stim/white_00340_940422_fa_edt.bmp","1","75","19"
"html-keyboard-response","192","368212","0.0-19.0-2.18","62d78737dcea82e9f96b957c","bdp_trlrn","Mon Mar 13 2023 10:12:30 GMT-0700 (Pacific Daylight Time)","605782","Untrustworthy,Trustworthy","","null","","","","decisionFB","","<div class='trialDiv'><img src='trustrating_stim/white_00340_940422_fa_edt.bmp'><br><font class='baseline'><strong>Jacob</strong><p>Choose number of points to send.</font><div class='respPicDiv'><img src='img/responseButtonOffersNo0L5.png' class='respPic'></div></div>","null","7","Jacob","2","Kept","0.2,0.8","9","0.2","trustrating_stim/white_00340_940422_fa_edt.bmp","1","70","19"
"html-keyboard-response","193","369214","0.0-19.0-3.18","62d78737dcea82e9f96b957c","bdp_trlrn","Mon Mar 13 2023 10:12:30 GMT-0700 (Pacific Daylight Time)","605782","Untrustworthy,Trustworthy","","null","","","","feedback","","<div class='trialDiv'><img src='trustrating_stim/white_00340_940422_fa_edt.bmp'><br><font class='baseline'><strong>Jacob</strong><p>Received: <strong>20</strong></font> &nbsp; &nbsp; &nbsp; &nbsp; &nbsp; &nbsp;<font class='negOutcome'>Shared back: <strong>0</strong></font></font><div class='respPicDiv'><img src='img/responseButtonOffersNo0_wht.png' class='respPic'></div></div>","null","7","Jacob","2","Kept","0.2,0.8","9","0.2","trustrating_stim/white_00340_940422_fa_edt.bmp","1","70","19"
"html-keyboard-response","194","369512","0.0-19.0-1.19","62d78737dcea82e9f96b957c","bdp_trlrn","Mon Mar 13 2023 10:12:30 GMT-0700 (Pacific Daylight Time)","605782","Untrustworthy,Trustworthy","","296","","","","decision","","<div class='trialDiv'><img src='trustrating_stim/white_00785_941205_fb_edt.bmp'><br><font class='baseline'><strong>Alex</strong><p>Choose number of points to send.</font><div class='respPicDiv'><img src='img/responseButtonOffersNo0L.png' class='respPic'></div></div>","5","7","Alex","8","Shared","0.65,0.2","13","0.65","trustrating_stim/white_00785_941205_fb_edt.bmp","8.5","75","20"
"html-keyboard-response","195","369765","0.0-19.0-2.19","62d78737dcea82e9f96b957c","bdp_trlrn","Mon Mar 13 2023 10:12:30 GMT-0700 (Pacific Daylight Time)","605782","Untrustworthy,Trustworthy","","null","","","","decisionFB","","<div class='trialDiv'><img src='trustrating_stim/white_00785_941205_fb_edt.bmp'><br><font class='baseline'><strong>Alex</strong><p>Choose number of points to send.</font><div class='respPicDiv'><img src='img/responseButtonOffersNo0L5.png' class='respPic'></div></div>","null","7","Alex","8","Shared","0.65,0.2","13","0.65","trustrating_stim/white_00785_941205_fb_edt.bmp","8.5","70","20"
"html-keyboard-response","196","370770","0.0-19.0-3.19","62d78737dcea82e9f96b957c","bdp_trlrn","Mon Mar 13 2023 10:12:30 GMT-0700 (Pacific Daylight Time)","605782","Untrustworthy,Trustworthy","","null","","","","feedback","","<div class='trialDiv'><img src='trustrating_stim/white_00785_941205_fb_edt.bmp'><br><font class='baseline'><strong>Alex</strong><p>Received: <strong>20</strong></font> &nbsp; &nbsp; &nbsp; &nbsp; &nbsp; &nbsp;<font class='posOutcome'>Shared back: <strong>10</strong></font></font><div class='respPicDiv'><img src='img/responseButtonOffersNo0_wht.png' class='respPic'></div></div>","null","7","Alex","8","Shared","0.65,0.2","13","0.65","trustrating_stim/white_00785_941205_fb_edt.bmp","8.5","80","20"
"html-keyboard-response","197","371620","0.0-19.0-1.20","62d78737dcea82e9f96b957c","bdp_trlrn","Mon Mar 13 2023 10:12:30 GMT-0700 (Pacific Daylight Time)","605782","Untrustworthy,Trustworthy","","849","","","","decision","","<div class='trialDiv'><img src='trustrating_stim/white_mw035.bmp'><br><font class='baseline'><strong>Daniel</strong><p>Choose number of points to send.</font><div class='respPicDiv'><img src='img/responseButtonOffersNo0L.png' class='respPic'></div></div>","5","7","Daniel","7","Kept","0.2,0.65","14","0.2","trustrating_stim/white_mw035.bmp","6","85","21"
"html-keyboard-response","198","371873","0.0-19.0-2.20","62d78737dcea82e9f96b957c","bdp_trlrn","Mon Mar 13 2023 10:12:30 GMT-0700 (Pacific Daylight Time)","605782","Untrustworthy,Trustworthy","","null","","","","decisionFB","","<div class='trialDiv'><img src='trustrating_stim/white_mw035.bmp'><br><font class='baseline'><strong>Daniel</strong><p>Choose number of points to send.</font><div class='respPicDiv'><img src='img/responseButtonOffersNo0L5.png' class='respPic'></div></div>","null","7","Daniel","7","Kept","0.2,0.65","14","0.2","trustrating_stim/white_mw035.bmp","6","80","21"
"html-keyboard-response","199","372877","0.0-19.0-3.20","62d78737dcea82e9f96b957c","bdp_trlrn","Mon Mar 13 2023 10:12:30 GMT-0700 (Pacific Daylight Time)","605782","Untrustworthy,Trustworthy","","null","","","","feedback","","<div class='trialDiv'><img src='trustrating_stim/white_mw035.bmp'><br><font class='baseline'><strong>Daniel</strong><p>Received: <strong>20</strong></font> &nbsp; &nbsp; &nbsp; &nbsp; &nbsp; &nbsp;<font class='negOutcome'>Shared back: <strong>0</strong></font></font><div class='respPicDiv'><img src='img/responseButtonOffersNo0_wht.png' class='respPic'></div></div>","null","7","Daniel","7","Kept","0.2,0.65","14","0.2","trustrating_stim/white_mw035.bmp","6","80","21"
"html-keyboard-response","200","373235","0.0-19.0-1.21","62d78737dcea82e9f96b957c","bdp_trlrn","Mon Mar 13 2023 10:12:30 GMT-0700 (Pacific Daylight Time)","605782","Untrustworthy,Trustworthy","","357","","","","decision","","<div class='trialDiv'><img src='trustrating_stim/white_00785_941205_fb_edt.bmp'><br><font class='baseline'><strong>Alex</strong><p>Choose number of points to send.</font><div class='respPicDiv'><img src='img/responseButtonOffersNo0L.png' class='respPic'></div></div>","5","8","Alex","8","Kept","0.65,0.2","13","0.65","trustrating_stim/white_00785_941205_fb_edt.bmp","8.5","85","22"
"html-keyboard-response","201","373486","0.0-19.0-2.21","62d78737dcea82e9f96b957c","bdp_trlrn","Mon Mar 13 2023 10:12:30 GMT-0700 (Pacific Daylight Time)","605782","Untrustworthy,Trustworthy","","null","","","","decisionFB","","<div class='trialDiv'><img src='trustrating_stim/white_00785_941205_fb_edt.bmp'><br><font class='baseline'><strong>Alex</strong><p>Choose number of points to send.</font><div class='respPicDiv'><img src='img/responseButtonOffersNo0L5.png' class='respPic'></div></div>","null","8","Alex","8","Kept","0.65,0.2","13","0.65","trustrating_stim/white_00785_941205_fb_edt.bmp","8.5","80","22"
"html-keyboard-response","202","374491","0.0-19.0-3.21","62d78737dcea82e9f96b957c","bdp_trlrn","Mon Mar 13 2023 10:12:30 GMT-0700 (Pacific Daylight Time)","605782","Untrustworthy,Trustworthy","","null","","","","feedback","","<div class='trialDiv'><img src='trustrating_stim/white_00785_941205_fb_edt.bmp'><br><font class='baseline'><strong>Alex</strong><p>Received: <strong>20</strong></font> &nbsp; &nbsp; &nbsp; &nbsp; &nbsp; &nbsp;<font class='negOutcome'>Shared back: <strong>0</strong></font></font><div class='respPicDiv'><img src='img/responseButtonOffersNo0_wht.png' class='respPic'></div></div>","null","8","Alex","8","Kept","0.65,0.2","13","0.65","trustrating_stim/white_00785_941205_fb_edt.bmp","8.5","80","22"
"html-keyboard-response","203","375100","0.0-19.0-1.22","62d78737dcea82e9f96b957c","bdp_trlrn","Mon Mar 13 2023 10:12:30 GMT-0700 (Pacific Daylight Time)","605782","Untrustworthy,Trustworthy","","608","","","","decision","","<div class='trialDiv'><img src='trustrating_stim/white_mw035.bmp'><br><font class='baseline'><strong>Daniel</strong><p>Choose number of points to send.</font><div class='respPicDiv'><img src='img/responseButtonOffersNo0L.png' class='respPic'></div></div>","5","8","Daniel","7","Kept","0.2,0.65","14","0.2","trustrating_stim/white_mw035.bmp","6","85","23"
"html-keyboard-response","204","375356","0.0-19.0-2.22","62d78737dcea82e9f96b957c","bdp_trlrn","Mon Mar 13 2023 10:12:30 GMT-0700 (Pacific Daylight Time)","605782","Untrustworthy,Trustworthy","","null","","","","decisionFB","","<div class='trialDiv'><img src='trustrating_stim/white_mw035.bmp'><br><font class='baseline'><strong>Daniel</strong><p>Choose number of points to send.</font><div class='respPicDiv'><img src='img/responseButtonOffersNo0L5.png' class='respPic'></div></div>","null","8","Daniel","7","Kept","0.2,0.65","14","0.2","trustrating_stim/white_mw035.bmp","6","80","23"
"html-keyboard-response","205","376360","0.0-19.0-3.22","62d78737dcea82e9f96b957c","bdp_trlrn","Mon Mar 13 2023 10:12:30 GMT-0700 (Pacific Daylight Time)","605782","Untrustworthy,Trustworthy","","null","","","","feedback","","<div class='trialDiv'><img src='trustrating_stim/white_mw035.bmp'><br><font class='baseline'><strong>Daniel</strong><p>Received: <strong>20</strong></font> &nbsp; &nbsp; &nbsp; &nbsp; &nbsp; &nbsp;<font class='negOutcome'>Shared back: <strong>0</strong></font></font><div class='respPicDiv'><img src='img/responseButtonOffersNo0_wht.png' class='respPic'></div></div>","null","8","Daniel","7","Kept","0.2,0.65","14","0.2","trustrating_stim/white_mw035.bmp","6","80","23"
"html-keyboard-response","206","376958","0.0-19.0-1.23","62d78737dcea82e9f96b957c","bdp_trlrn","Mon Mar 13 2023 10:12:30 GMT-0700 (Pacific Daylight Time)","605782","Untrustworthy,Trustworthy","","597","","","","decision","","<div class='trialDiv'><img src='trustrating_stim/white_00340_940422_fa_edt.bmp'><br><font class='baseline'><strong>Jacob</strong><p>Choose number of points to send.</font><div class='respPicDiv'><img src='img/responseButtonOffersNo0L.png' class='respPic'></div></div>","5","8","Jacob","2","Kept","0.2,0.8","9","0.2","trustrating_stim/white_00340_940422_fa_edt.bmp","1","85","24"
"html-keyboard-response","207","377213","0.0-19.0-2.23","62d78737dcea82e9f96b957c","bdp_trlrn","Mon Mar 13 2023 10:12:30 GMT-0700 (Pacific Daylight Time)","605782","Untrustworthy,Trustworthy","","null","","","","decisionFB","","<div class='trialDiv'><img src='trustrating_stim/white_00340_940422_fa_edt.bmp'><br><font class='baseline'><strong>Jacob</strong><p>Choose number of points to send.</font><div class='respPicDiv'><img src='img/responseButtonOffersNo0L5.png' class='respPic'></div></div>","null","8","Jacob","2","Kept","0.2,0.8","9","0.2","trustrating_stim/white_00340_940422_fa_edt.bmp","1","80","24"
"html-keyboard-response","208","378218","0.0-19.0-3.23","62d78737dcea82e9f96b957c","bdp_trlrn","Mon Mar 13 2023 10:12:30 GMT-0700 (Pacific Daylight Time)","605782","Untrustworthy,Trustworthy","","null","","","","feedback","","<div class='trialDiv'><img src='trustrating_stim/white_00340_940422_fa_edt.bmp'><br><font class='baseline'><strong>Jacob</strong><p>Received: <strong>20</strong></font> &nbsp; &nbsp; &nbsp; &nbsp; &nbsp; &nbsp;<font class='negOutcome'>Shared back: <strong>0</strong></font></font><div class='respPicDiv'><img src='img/responseButtonOffersNo0_wht.png' class='respPic'></div></div>","null","8","Jacob","2","Kept","0.2,0.8","9","0.2","trustrating_stim/white_00340_940422_fa_edt.bmp","1","80","24"
"html-keyboard-response","209","378506","0.0-19.0-1.24","62d78737dcea82e9f96b957c","bdp_trlrn","Mon Mar 13 2023 10:12:30 GMT-0700 (Pacific Daylight Time)","605782","Untrustworthy,Trustworthy","","287","","","","decision","","<div class='trialDiv'><img src='trustrating_stim/white_00785_941205_fb_edt.bmp'><br><font class='baseline'><strong>Alex</strong><p>Choose number of points to send.</font><div class='respPicDiv'><img src='img/responseButtonOffersNo0L.png' class='respPic'></div></div>","5","9","Alex","8","Shared","0.65,0.2","13","0.65","trustrating_stim/white_00785_941205_fb_edt.bmp","8.5","85","25"
"html-keyboard-response","210","378757","0.0-19.0-2.24","62d78737dcea82e9f96b957c","bdp_trlrn","Mon Mar 13 2023 10:12:30 GMT-0700 (Pacific Daylight Time)","605782","Untrustworthy,Trustworthy","","null","","","","decisionFB","","<div class='trialDiv'><img src='trustrating_stim/white_00785_941205_fb_edt.bmp'><br><font class='baseline'><strong>Alex</strong><p>Choose number of points to send.</font><div class='respPicDiv'><img src='img/responseButtonOffersNo0L5.png' class='respPic'></div></div>","null","9","Alex","8","Shared","0.65,0.2","13","0.65","trustrating_stim/white_00785_941205_fb_edt.bmp","8.5","80","25"
"html-keyboard-response","211","379762","0.0-19.0-3.24","62d78737dcea82e9f96b957c","bdp_trlrn","Mon Mar 13 2023 10:12:30 GMT-0700 (Pacific Daylight Time)","605782","Untrustworthy,Trustworthy","","null","","","","feedback","","<div class='trialDiv'><img src='trustrating_stim/white_00785_941205_fb_edt.bmp'><br><font class='baseline'><strong>Alex</strong><p>Received: <strong>20</strong></font> &nbsp; &nbsp; &nbsp; &nbsp; &nbsp; &nbsp;<font class='posOutcome'>Shared back: <strong>10</strong></font></font><div class='respPicDiv'><img src='img/responseButtonOffersNo0_wht.png' class='respPic'></div></div>","null","9","Alex","8","Shared","0.65,0.2","13","0.65","trustrating_stim/white_00785_941205_fb_edt.bmp","8.5","90","25"
"html-keyboard-response","212","381646","0.0-19.0-1.25","62d78737dcea82e9f96b957c","bdp_trlrn","Mon Mar 13 2023 10:12:30 GMT-0700 (Pacific Daylight Time)","605782","Untrustworthy,Trustworthy","","1883","","","","decision","","<div class='trialDiv'><img src='trustrating_stim/white_mw035.bmp'><br><font class='baseline'><strong>Daniel</strong><p>Choose number of points to send.</font><div class='respPicDiv'><img src='img/responseButtonOffersNo0L.png' class='respPic'></div></div>","5","9","Daniel","7","Shared","0.2,0.65","14","0.2","trustrating_stim/white_mw035.bmp","6","95","26"
"html-keyboard-response","213","381898","0.0-19.0-2.25","62d78737dcea82e9f96b957c","bdp_trlrn","Mon Mar 13 2023 10:12:30 GMT-0700 (Pacific Daylight Time)","605782","Untrustworthy,Trustworthy","","null","","","","decisionFB","","<div class='trialDiv'><img src='trustrating_stim/white_mw035.bmp'><br><font class='baseline'><strong>Daniel</strong><p>Choose number of points to send.</font><div class='respPicDiv'><img src='img/responseButtonOffersNo0L5.png' class='respPic'></div></div>","null","9","Daniel","7","Shared","0.2,0.65","14","0.2","trustrating_stim/white_mw035.bmp","6","90","26"
"html-keyboard-response","214","382902","0.0-19.0-3.25","62d78737dcea82e9f96b957c","bdp_trlrn","Mon Mar 13 2023 10:12:30 GMT-0700 (Pacific Daylight Time)","605782","Untrustworthy,Trustworthy","","null","","","","feedback","","<div class='trialDiv'><img src='trustrating_stim/white_mw035.bmp'><br><font class='baseline'><strong>Daniel</strong><p>Received: <strong>20</strong></font> &nbsp; &nbsp; &nbsp; &nbsp; &nbsp; &nbsp;<font class='posOutcome'>Shared back: <strong>10</strong></font></font><div class='respPicDiv'><img src='img/responseButtonOffersNo0_wht.png' class='respPic'></div></div>","null","9","Daniel","7","Shared","0.2,0.65","14","0.2","trustrating_stim/white_mw035.bmp","6","100","26"
"html-keyboard-response","215","384327","0.0-19.0-1.26","62d78737dcea82e9f96b957c","bdp_trlrn","Mon Mar 13 2023 10:12:30 GMT-0700 (Pacific Daylight Time)","605782","Untrustworthy,Trustworthy","","1424","","","","decision","","<div class='trialDiv'><img src='trustrating_stim/white_00340_940422_fa_edt.bmp'><br><font class='baseline'><strong>Jacob</strong><p>Choose number of points to send.</font><div class='respPicDiv'><img src='img/responseButtonOffersNo0L.png' class='respPic'></div></div>","5","9","Jacob","2","Shared","0.2,0.8","9","0.2","trustrating_stim/white_00340_940422_fa_edt.bmp","1","105","27"
"html-keyboard-response","216","384580","0.0-19.0-2.26","62d78737dcea82e9f96b957c","bdp_trlrn","Mon Mar 13 2023 10:12:30 GMT-0700 (Pacific Daylight Time)","605782","Untrustworthy,Trustworthy","","null","","","","decisionFB","","<div class='trialDiv'><img src='trustrating_stim/white_00340_940422_fa_edt.bmp'><br><font class='baseline'><strong>Jacob</strong><p>Choose number of points to send.</font><div class='respPicDiv'><img src='img/responseButtonOffersNo0L5.png' class='respPic'></div></div>","null","9","Jacob","2","Shared","0.2,0.8","9","0.2","trustrating_stim/white_00340_940422_fa_edt.bmp","1","100","27"
"html-keyboard-response","217","385584","0.0-19.0-3.26","62d78737dcea82e9f96b957c","bdp_trlrn","Mon Mar 13 2023 10:12:30 GMT-0700 (Pacific Daylight Time)","605782","Untrustworthy,Trustworthy","","null","","","","feedback","","<div class='trialDiv'><img src='trustrating_stim/white_00340_940422_fa_edt.bmp'><br><font class='baseline'><strong>Jacob</strong><p>Received: <strong>20</strong></font> &nbsp; &nbsp; &nbsp; &nbsp; &nbsp; &nbsp;<font class='posOutcome'>Shared back: <strong>10</strong></font></font><div class='respPicDiv'><img src='img/responseButtonOffersNo0_wht.png' class='respPic'></div></div>","null","9","Jacob","2","Shared","0.2,0.8","9","0.2","trustrating_stim/white_00340_940422_fa_edt.bmp","1","110","27"
"html-keyboard-response","218","386476","0.0-19.0-1.27","62d78737dcea82e9f96b957c","bdp_trlrn","Mon Mar 13 2023 10:12:30 GMT-0700 (Pacific Daylight Time)","605782","Untrustworthy,Trustworthy","","891","","","","decision","","<div class='trialDiv'><img src='trustrating_stim/white_mw035.bmp'><br><font class='baseline'><strong>Daniel</strong><p>Choose number of points to send.</font><div class='respPicDiv'><img src='img/responseButtonOffersNo0L.png' class='respPic'></div></div>","5","10","Daniel","7","Kept","0.2,0.65","14","0.2","trustrating_stim/white_mw035.bmp","6","115","28"
"html-keyboard-response","219","386728","0.0-19.0-2.27","62d78737dcea82e9f96b957c","bdp_trlrn","Mon Mar 13 2023 10:12:30 GMT-0700 (Pacific Daylight Time)","605782","Untrustworthy,Trustworthy","","null","","","","decisionFB","","<div class='trialDiv'><img src='trustrating_stim/white_mw035.bmp'><br><font class='baseline'><strong>Daniel</strong><p>Choose number of points to send.</font><div class='respPicDiv'><img src='img/responseButtonOffersNo0L5.png' class='respPic'></div></div>","null","10","Daniel","7","Kept","0.2,0.65","14","0.2","trustrating_stim/white_mw035.bmp","6","110","28"
"html-keyboard-response","220","387732","0.0-19.0-3.27","62d78737dcea82e9f96b957c","bdp_trlrn","Mon Mar 13 2023 10:12:30 GMT-0700 (Pacific Daylight Time)","605782","Untrustworthy,Trustworthy","","null","","","","feedback","","<div class='trialDiv'><img src='trustrating_stim/white_mw035.bmp'><br><font class='baseline'><strong>Daniel</strong><p>Received: <strong>20</strong></font> &nbsp; &nbsp; &nbsp; &nbsp; &nbsp; &nbsp;<font class='negOutcome'>Shared back: <strong>0</strong></font></font><div class='respPicDiv'><img src='img/responseButtonOffersNo0_wht.png' class='respPic'></div></div>","null","10","Daniel","7","Kept","0.2,0.65","14","0.2","trustrating_stim/white_mw035.bmp","6","110","28"
