"trial_type","trial_index","time_elapsed","internal_node_id","subject_id","task","startTime","totalTime","labels","view_history","rt","event","trial","time","trialtype","success","stimulus","key_press","aground","name","faceID","outcome","agenttype","agentswpt","agentcurrpshare","face","avgRating","point_total","round"
"pavlovia","0","3","0.0-0.0","63f7eb4fd0c75f760998818c","bdp_trlrn","Tue Mar 14 2023 18:24:47 GMT-0700 (Pacific Daylight Time)","969779","Trustworthy,Untrustworthy","","","","","","","","","","","","","","","","","","","",""
"instructions","1","5827","0.0-1.0","63f7eb4fd0c75f760998818c","bdp_trlrn","Tue Mar 14 2023 18:24:47 GMT-0700 (Pacific Daylight Time)","969779","Trustworthy,Untrustworthy","[{""page_index"":0,""viewing_time"":5824}]","5824","","","","","","","","","","","","","","","","","",""
"","","","","63f7eb4fd0c75f760998818c","bdp_trlrn","Tue Mar 14 2023 18:24:47 GMT-0700 (Pacific Daylight Time)","969779","Trustworthy,Untrustworthy","","","fullscreenenter","2","9636","fullscreenenter","","","","","","","","","","","","","",""
"fullscreen","2","10575","0.0-2.0","63f7eb4fd0c75f760998818c","bdp_trlrn","Tue Mar 14 2023 18:24:47 GMT-0700 (Pacific Daylight Time)","969779","Trustworthy,Untrustworthy","","","","","","","true","","","","","","","","","","","","",""
"instructions","3","40954","0.0-4.0","63f7eb4fd0c75f760998818c","bdp_trlrn","Tue Mar 14 2023 18:24:47 GMT-0700 (Pacific Daylight Time)","969779","Trustworthy,Untrustworthy","[{""page_index"":0,""viewing_time"":21966},{""page_index"":1,""viewing_time"":8410}]","30377","","","","","","","","","","","","","","","","","",""
"instructions","4","42482","0.0-5.0","63f7eb4fd0c75f760998818c","bdp_trlrn","Tue Mar 14 2023 18:24:47 GMT-0700 (Pacific Daylight Time)","969779","Trustworthy,Untrustworthy","[{""page_index"":0,""viewing_time"":1527}]","1527","","","","","","","","","","","","","","","","","",""
"image-keyboard-response","5","49351","0.0-6.0-1.0","63f7eb4fd0c75f760998818c","bdp_trlrn","Tue Mar 14 2023 18:24:47 GMT-0700 (Pacific Daylight Time)","969779","Trustworthy,Untrustworthy","","6758","","","","rating","","trustrating_stim/white_mw056.bmp","2","","","","","","","","","","",""
"image-keyboard-response","6","49555","0.0-6.0-2.0","63f7eb4fd0c75f760998818c","bdp_trlrn","Tue Mar 14 2023 18:24:47 GMT-0700 (Pacific Daylight Time)","969779","Trustworthy,Untrustworthy","","null","","","","ratingFB","","trustrating_stim/white_mw056.bmp","null","","","","","","","","","","",""
"image-keyboard-response","7","53739","0.0-6.0-1.1","63f7eb4fd0c75f760998818c","bdp_trlrn","Tue Mar 14 2023 18:24:47 GMT-0700 (Pacific Daylight Time)","969779","Trustworthy,Untrustworthy","","4070","","","","rating","","trustrating_stim/white_mw046.bmp","3","","","","","","","","","","",""
"image-keyboard-response","8","53958","0.0-6.0-2.1","63f7eb4fd0c75f760998818c","bdp_trlrn","Tue Mar 14 2023 18:24:47 GMT-0700 (Pacific Daylight Time)","969779","Trustworthy,Untrustworthy","","null","","","","ratingFB","","trustrating_stim/white_mw046.bmp","null","","","","","","","","","","",""
"image-keyboard-response","9","59263","0.0-6.0-1.2","63f7eb4fd0c75f760998818c","bdp_trlrn","Tue Mar 14 2023 18:24:47 GMT-0700 (Pacific Daylight Time)","969779","Trustworthy,Untrustworthy","","5192","","","","rating","","trustrating_stim/white_00577_940928_fa_edt.bmp","3","","","","","","","","","","",""
"image-keyboard-response","10","59478","0.0-6.0-2.2","63f7eb4fd0c75f760998818c","bdp_trlrn","Tue Mar 14 2023 18:24:47 GMT-0700 (Pacific Daylight Time)","969779","Trustworthy,Untrustworthy","","null","","","","ratingFB","","trustrating_stim/white_00577_940928_fa_edt.bmp","null","","","","","","","","","","",""
"image-keyboard-response","11","61770","0.0-6.0-1.3","63f7eb4fd0c75f760998818c","bdp_trlrn","Tue Mar 14 2023 18:24:47 GMT-0700 (Pacific Daylight Time)","969779","Trustworthy,Untrustworthy","","2184","","","","rating","","trustrating_stim/white_mw097.bmp","3","","","","","","","","","","",""
"image-keyboard-response","12","61974","0.0-6.0-2.3","63f7eb4fd0c75f760998818c","bdp_trlrn","Tue Mar 14 2023 18:24:47 GMT-0700 (Pacific Daylight Time)","969779","Trustworthy,Untrustworthy","","null","","","","ratingFB","","trustrating_stim/white_mw097.bmp","null","","","","","","","","","","",""
"image-keyboard-response","13","68189","0.0-6.0-1.4","63f7eb4fd0c75f760998818c","bdp_trlrn","Tue Mar 14 2023 18:24:47 GMT-0700 (Pacific Daylight Time)","969779","Trustworthy,Untrustworthy","","6102","","","","rating","","trustrating_stim/white_mw066.bmp","6","","","","","","","","","","",""
"image-keyboard-response","14","68398","0.0-6.0-2.4","63f7eb4fd0c75f760998818c","bdp_trlrn","Tue Mar 14 2023 18:24:47 GMT-0700 (Pacific Daylight Time)","969779","Trustworthy,Untrustworthy","","null","","","","ratingFB","","trustrating_stim/white_mw066.bmp","null","","","","","","","","","","",""
"image-keyboard-response","15","71207","0.0-6.0-1.5","63f7eb4fd0c75f760998818c","bdp_trlrn","Tue Mar 14 2023 18:24:47 GMT-0700 (Pacific Daylight Time)","969779","Trustworthy,Untrustworthy","","2703","","","","rating","","trustrating_stim/white_mw033.bmp","5","","","","","","","","","","",""
"image-keyboard-response","16","71412","0.0-6.0-2.5","63f7eb4fd0c75f760998818c","bdp_trlrn","Tue Mar 14 2023 18:24:47 GMT-0700 (Pacific Daylight Time)","969779","Trustworthy,Untrustworthy","","null","","","","ratingFB","","trustrating_stim/white_mw033.bmp","null","","","","","","","","","","",""
"image-keyboard-response","17","78035","0.0-6.0-1.6","63f7eb4fd0c75f760998818c","bdp_trlrn","Tue Mar 14 2023 18:24:47 GMT-0700 (Pacific Daylight Time)","969779","Trustworthy,Untrustworthy","","6509","","","","rating","","trustrating_stim/white_00519_940519_fb_edt.bmp","7","","","","","","","","","","",""
"image-keyboard-response","18","78250","0.0-6.0-2.6","63f7eb4fd0c75f760998818c","bdp_trlrn","Tue Mar 14 2023 18:24:47 GMT-0700 (Pacific Daylight Time)","969779","Trustworthy,Untrustworthy","","null","","","","ratingFB","","trustrating_stim/white_00519_940519_fb_edt.bmp","null","","","","","","","","","","",""
"image-keyboard-response","19","81747","0.0-6.0-1.7","63f7eb4fd0c75f760998818c","bdp_trlrn","Tue Mar 14 2023 18:24:47 GMT-0700 (Pacific Daylight Time)","969779","Trustworthy,Untrustworthy","","3382","","","","rating","","trustrating_stim/white_mw071.bmp","3","","","","","","","","","","",""
"image-keyboard-response","20","81949","0.0-6.0-2.7","63f7eb4fd0c75f760998818c","bdp_trlrn","Tue Mar 14 2023 18:24:47 GMT-0700 (Pacific Daylight Time)","969779","Trustworthy,Untrustworthy","","null","","","","ratingFB","","trustrating_stim/white_mw071.bmp","null","","","","","","","","","","",""
"image-keyboard-response","21","86193","0.0-6.0-1.8","63f7eb4fd0c75f760998818c","bdp_trlrn","Tue Mar 14 2023 18:24:47 GMT-0700 (Pacific Daylight Time)","969779","Trustworthy,Untrustworthy","","4129","","","","rating","","trustrating_stim/white_00785_941205_fb_edt.bmp","6","","","","","","","","","","",""
"image-keyboard-response","22","86408","0.0-6.0-2.8","63f7eb4fd0c75f760998818c","bdp_trlrn","Tue Mar 14 2023 18:24:47 GMT-0700 (Pacific Daylight Time)","969779","Trustworthy,Untrustworthy","","null","","","","ratingFB","","trustrating_stim/white_00785_941205_fb_edt.bmp","null","","","","","","","","","","",""
"image-keyboard-response","23","88375","0.0-6.0-1.9","63f7eb4fd0c75f760998818c","bdp_trlrn","Tue Mar 14 2023 18:24:47 GMT-0700 (Pacific Daylight Time)","969779","Trustworthy,Untrustworthy","","1855","","","","rating","","trustrating_stim/white_00129_931230_fb_edt.bmp","4","","","","","","","","","","",""
"image-keyboard-response","24","88579","0.0-6.0-2.9","63f7eb4fd0c75f760998818c","bdp_trlrn","Tue Mar 14 2023 18:24:47 GMT-0700 (Pacific Daylight Time)","969779","Trustworthy,Untrustworthy","","null","","","","ratingFB","","trustrating_stim/white_00129_931230_fb_edt.bmp","null","","","","","","","","","","",""
"image-keyboard-response","25","94119","0.0-6.0-1.10","63f7eb4fd0c75f760998818c","bdp_trlrn","Tue Mar 14 2023 18:24:47 GMT-0700 (Pacific Daylight Time)","969779","Trustworthy,Untrustworthy","","5432","","","","rating","","trustrating_stim/white_00223_940128_fb_edt.bmp","3","","","","","","","","","","",""
"image-keyboard-response","26","94324","0.0-6.0-2.10","63f7eb4fd0c75f760998818c","bdp_trlrn","Tue Mar 14 2023 18:24:47 GMT-0700 (Pacific Daylight Time)","969779","Trustworthy,Untrustworthy","","null","","","","ratingFB","","trustrating_stim/white_00223_940128_fb_edt.bmp","null","","","","","","","","","","",""
"image-keyboard-response","27","96642","0.0-6.0-1.11","63f7eb4fd0c75f760998818c","bdp_trlrn","Tue Mar 14 2023 18:24:47 GMT-0700 (Pacific Daylight Time)","969779","Trustworthy,Untrustworthy","","2206","","","","rating","","trustrating_stim/white_00340_940422_fa_edt.bmp","5","","","","","","","","","","",""
"image-keyboard-response","28","96860","0.0-6.0-2.11","63f7eb4fd0c75f760998818c","bdp_trlrn","Tue Mar 14 2023 18:24:47 GMT-0700 (Pacific Daylight Time)","969779","Trustworthy,Untrustworthy","","null","","","","ratingFB","","trustrating_stim/white_00340_940422_fa_edt.bmp","null","","","","","","","","","","",""
"image-keyboard-response","29","99716","0.0-6.0-1.12","63f7eb4fd0c75f760998818c","bdp_trlrn","Tue Mar 14 2023 18:24:47 GMT-0700 (Pacific Daylight Time)","969779","Trustworthy,Untrustworthy","","2745","","","","rating","","trustrating_stim/white_mw048.bmp","3","","","","","","","","","","",""
"image-keyboard-response","30","99921","0.0-6.0-2.12","63f7eb4fd0c75f760998818c","bdp_trlrn","Tue Mar 14 2023 18:24:47 GMT-0700 (Pacific Daylight Time)","969779","Trustworthy,Untrustworthy","","null","","","","ratingFB","","trustrating_stim/white_mw048.bmp","null","","","","","","","","","","",""
"image-keyboard-response","31","111551","0.0-6.0-1.13","63f7eb4fd0c75f760998818c","bdp_trlrn","Tue Mar 14 2023 18:24:47 GMT-0700 (Pacific Daylight Time)","969779","Trustworthy,Untrustworthy","","11523","","","","rating","","trustrating_stim/white_mw049.bmp","4","","","","","","","","","","",""
"image-keyboard-response","32","111756","0.0-6.0-2.13","63f7eb4fd0c75f760998818c","bdp_trlrn","Tue Mar 14 2023 18:24:47 GMT-0700 (Pacific Daylight Time)","969779","Trustworthy,Untrustworthy","","null","","","","ratingFB","","trustrating_stim/white_mw049.bmp","null","","","","","","","","","","",""
"image-keyboard-response","33","119863","0.0-6.0-1.14","63f7eb4fd0c75f760998818c","bdp_trlrn","Tue Mar 14 2023 18:24:47 GMT-0700 (Pacific Daylight Time)","969779","Trustworthy,Untrustworthy","","7996","","","","rating","","trustrating_stim/white_mw099.bmp","6","","","","","","","","","","",""
"image-keyboard-response","34","120066","0.0-6.0-2.14","63f7eb4fd0c75f760998818c","bdp_trlrn","Tue Mar 14 2023 18:24:47 GMT-0700 (Pacific Daylight Time)","969779","Trustworthy,Untrustworthy","","null","","","","ratingFB","","trustrating_stim/white_mw099.bmp","null","","","","","","","","","","",""
"image-keyboard-response","35","124557","0.0-6.0-1.15","63f7eb4fd0c75f760998818c","bdp_trlrn","Tue Mar 14 2023 18:24:47 GMT-0700 (Pacific Daylight Time)","969779","Trustworthy,Untrustworthy","","4387","","","","rating","","trustrating_stim/white_mw053.bmp","1","","","","","","","","","","",""
"image-keyboard-response","36","124765","0.0-6.0-2.15","63f7eb4fd0c75f760998818c","bdp_trlrn","Tue Mar 14 2023 18:24:47 GMT-0700 (Pacific Daylight Time)","969779","Trustworthy,Untrustworthy","","null","","","","ratingFB","","trustrating_stim/white_mw053.bmp","null","","","","","","","","","","",""
"image-keyboard-response","37","126834","0.0-6.0-1.16","63f7eb4fd0c75f760998818c","bdp_trlrn","Tue Mar 14 2023 18:24:47 GMT-0700 (Pacific Daylight Time)","969779","Trustworthy,Untrustworthy","","1951","","","","rating","","trustrating_stim/white_00602_940928_fb_edt.bmp","2","","","","","","","","","","",""
"image-keyboard-response","38","127037","0.0-6.0-2.16","63f7eb4fd0c75f760998818c","bdp_trlrn","Tue Mar 14 2023 18:24:47 GMT-0700 (Pacific Daylight Time)","969779","Trustworthy,Untrustworthy","","null","","","","ratingFB","","trustrating_stim/white_00602_940928_fb_edt.bmp","null","","","","","","","","","","",""
"image-keyboard-response","39","129163","0.0-6.0-1.17","63f7eb4fd0c75f760998818c","bdp_trlrn","Tue Mar 14 2023 18:24:47 GMT-0700 (Pacific Daylight Time)","969779","Trustworthy,Untrustworthy","","2010","","","","rating","","trustrating_stim/white_00659_941121_fa_edt.bmp","7","","","","","","","","","","",""
"image-keyboard-response","40","129370","0.0-6.0-2.17","63f7eb4fd0c75f760998818c","bdp_trlrn","Tue Mar 14 2023 18:24:47 GMT-0700 (Pacific Daylight Time)","969779","Trustworthy,Untrustworthy","","null","","","","ratingFB","","trustrating_stim/white_00659_941121_fa_edt.bmp","null","","","","","","","","","","",""
"image-keyboard-response","41","131345","0.0-6.0-1.18","63f7eb4fd0c75f760998818c","bdp_trlrn","Tue Mar 14 2023 18:24:47 GMT-0700 (Pacific Daylight Time)","969779","Trustworthy,Untrustworthy","","1872","","","","rating","","trustrating_stim/white_00120_931230_fa_edt.bmp","2","","","","","","","","","","",""
"image-keyboard-response","42","131560","0.0-6.0-2.18","63f7eb4fd0c75f760998818c","bdp_trlrn","Tue Mar 14 2023 18:24:47 GMT-0700 (Pacific Daylight Time)","969779","Trustworthy,Untrustworthy","","null","","","","ratingFB","","trustrating_stim/white_00120_931230_fa_edt.bmp","null","","","","","","","","","","",""
"image-keyboard-response","43","134745","0.0-6.0-1.19","63f7eb4fd0c75f760998818c","bdp_trlrn","Tue Mar 14 2023 18:24:47 GMT-0700 (Pacific Daylight Time)","969779","Trustworthy,Untrustworthy","","3077","","","","rating","","trustrating_stim/white_00757_941201_fa_edt.bmp","7","","","","","","","","","","",""
"image-keyboard-response","44","134958","0.0-6.0-2.19","63f7eb4fd0c75f760998818c","bdp_trlrn","Tue Mar 14 2023 18:24:47 GMT-0700 (Pacific Daylight Time)","969779","Trustworthy,Untrustworthy","","null","","","","ratingFB","","trustrating_stim/white_00757_941201_fa_edt.bmp","null","","","","","","","","","","",""
"image-keyboard-response","45","136864","0.0-6.0-1.20","63f7eb4fd0c75f760998818c","bdp_trlrn","Tue Mar 14 2023 18:24:47 GMT-0700 (Pacific Daylight Time)","969779","Trustworthy,Untrustworthy","","1795","","","","rating","","trustrating_stim/white_00807_941205_fb_edt.bmp","5","","","","","","","","","","",""
"image-keyboard-response","46","137066","0.0-6.0-2.20","63f7eb4fd0c75f760998818c","bdp_trlrn","Tue Mar 14 2023 18:24:47 GMT-0700 (Pacific Daylight Time)","969779","Trustworthy,Untrustworthy","","null","","","","ratingFB","","trustrating_stim/white_00807_941205_fb_edt.bmp","null","","","","","","","","","","",""
"image-keyboard-response","47","139191","0.0-6.0-1.21","63f7eb4fd0c75f760998818c","bdp_trlrn","Tue Mar 14 2023 18:24:47 GMT-0700 (Pacific Daylight Time)","969779","Trustworthy,Untrustworthy","","2022","","","","rating","","trustrating_stim/white_mw035.bmp","5","","","","","","","","","","",""
"image-keyboard-response","48","139407","0.0-6.0-2.21","63f7eb4fd0c75f760998818c","bdp_trlrn","Tue Mar 14 2023 18:24:47 GMT-0700 (Pacific Daylight Time)","969779","Trustworthy,Untrustworthy","","null","","","","ratingFB","","trustrating_stim/white_mw035.bmp","null","","","","","","","","","","",""
"image-keyboard-response","49","142440","0.0-6.0-1.22","63f7eb4fd0c75f760998818c","bdp_trlrn","Tue Mar 14 2023 18:24:47 GMT-0700 (Pacific Daylight Time)","969779","Trustworthy,Untrustworthy","","2922","","","","rating","","trustrating_stim/white_00761_941201_fb_edt.bmp","3","","","","","","","","","","",""
"image-keyboard-response","50","142646","0.0-6.0-2.22","63f7eb4fd0c75f760998818c","bdp_trlrn","Tue Mar 14 2023 18:24:47 GMT-0700 (Pacific Daylight Time)","969779","Trustworthy,Untrustworthy","","null","","","","ratingFB","","trustrating_stim/white_00761_941201_fb_edt.bmp","null","","","","","","","","","","",""
"image-keyboard-response","51","144724","0.0-6.0-1.23","63f7eb4fd0c75f760998818c","bdp_trlrn","Tue Mar 14 2023 18:24:47 GMT-0700 (Pacific Daylight Time)","969779","Trustworthy,Untrustworthy","","1973","","","","rating","","trustrating_stim/white_mw060.bmp","7","","","","","","","","","","",""
"image-keyboard-response","52","144941","0.0-6.0-2.23","63f7eb4fd0c75f760998818c","bdp_trlrn","Tue Mar 14 2023 18:24:47 GMT-0700 (Pacific Daylight Time)","969779","Trustworthy,Untrustworthy","","null","","","","ratingFB","","trustrating_stim/white_mw060.bmp","null","","","","","","","","","","",""
"image-keyboard-response","53","146690","0.0-6.0-1.24","63f7eb4fd0c75f760998818c","bdp_trlrn","Tue Mar 14 2023 18:24:47 GMT-0700 (Pacific Daylight Time)","969779","Trustworthy,Untrustworthy","","1630","","","","rating","","trustrating_stim/white_mw089.bmp","7","","","","","","","","","","",""
"image-keyboard-response","54","146907","0.0-6.0-2.24","63f7eb4fd0c75f760998818c","bdp_trlrn","Tue Mar 14 2023 18:24:47 GMT-0700 (Pacific Daylight Time)","969779","Trustworthy,Untrustworthy","","null","","","","ratingFB","","trustrating_stim/white_mw089.bmp","null","","","","","","","","","","",""
"image-keyboard-response","55","148309","0.0-6.0-1.25","63f7eb4fd0c75f760998818c","bdp_trlrn","Tue Mar 14 2023 18:24:47 GMT-0700 (Pacific Daylight Time)","969779","Trustworthy,Untrustworthy","","1291","","","","rating","","trustrating_stim/white_mw063.bmp","6","","","","","","","","","","",""
"image-keyboard-response","56","148515","0.0-6.0-2.25","63f7eb4fd0c75f760998818c","bdp_trlrn","Tue Mar 14 2023 18:24:47 GMT-0700 (Pacific Daylight Time)","969779","Trustworthy,Untrustworthy","","null","","","","ratingFB","","trustrating_stim/white_mw063.bmp","null","","","","","","","","","","",""
"image-keyboard-response","57","150790","0.0-6.0-1.26","63f7eb4fd0c75f760998818c","bdp_trlrn","Tue Mar 14 2023 18:24:47 GMT-0700 (Pacific Daylight Time)","969779","Trustworthy,Untrustworthy","","2160","","","","rating","","trustrating_stim/white_00109_931230_fa_edt.bmp","3","","","","","","","","","","",""
"image-keyboard-response","58","151005","0.0-6.0-2.26","63f7eb4fd0c75f760998818c","bdp_trlrn","Tue Mar 14 2023 18:24:47 GMT-0700 (Pacific Daylight Time)","969779","Trustworthy,Untrustworthy","","null","","","","ratingFB","","trustrating_stim/white_00109_931230_fa_edt.bmp","null","","","","","","","","","","",""
"image-keyboard-response","59","156751","0.0-6.0-1.27","63f7eb4fd0c75f760998818c","bdp_trlrn","Tue Mar 14 2023 18:24:47 GMT-0700 (Pacific Daylight Time)","969779","Trustworthy,Untrustworthy","","5626","","","","rating","","trustrating_stim/white_00299_940422_fa_edt.bmp","5","","","","","","","","","","",""
"image-keyboard-response","60","156965","0.0-6.0-2.27","63f7eb4fd0c75f760998818c","bdp_trlrn","Tue Mar 14 2023 18:24:47 GMT-0700 (Pacific Daylight Time)","969779","Trustworthy,Untrustworthy","","null","","","","ratingFB","","trustrating_stim/white_00299_940422_fa_edt.bmp","null","","","","","","","","","","",""
"image-keyboard-response","61","159682","0.0-6.0-1.28","63f7eb4fd0c75f760998818c","bdp_trlrn","Tue Mar 14 2023 18:24:47 GMT-0700 (Pacific Daylight Time)","969779","Trustworthy,Untrustworthy","","2602","","","","rating","","trustrating_stim/white_00898_960530_fa_edt.bmp","3","","","","","","","","","","",""
"image-keyboard-response","62","159889","0.0-6.0-2.28","63f7eb4fd0c75f760998818c","bdp_trlrn","Tue Mar 14 2023 18:24:47 GMT-0700 (Pacific Daylight Time)","969779","Trustworthy,Untrustworthy","","null","","","","ratingFB","","trustrating_stim/white_00898_960530_fa_edt.bmp","null","","","","","","","","","","",""
"image-keyboard-response","63","167055","0.0-6.0-1.29","63f7eb4fd0c75f760998818c","bdp_trlrn","Tue Mar 14 2023 18:24:47 GMT-0700 (Pacific Daylight Time)","969779","Trustworthy,Untrustworthy","","7054","","","","rating","","trustrating_stim/white_mw084.bmp","4","","","","","","","","","","",""
"image-keyboard-response","64","167264","0.0-6.0-2.29","63f7eb4fd0c75f760998818c","bdp_trlrn","Tue Mar 14 2023 18:24:47 GMT-0700 (Pacific Daylight Time)","969779","Trustworthy,Untrustworthy","","null","","","","ratingFB","","trustrating_stim/white_mw084.bmp","null","","","","","","","","","","",""
"image-keyboard-response","65","177544","0.0-6.0-1.30","63f7eb4fd0c75f760998818c","bdp_trlrn","Tue Mar 14 2023 18:24:47 GMT-0700 (Pacific Daylight Time)","969779","Trustworthy,Untrustworthy","","10168","","","","rating","","trustrating_stim/white_00223_940128_fb_edt.bmp","3","","","","","","","","","","",""
"image-keyboard-response","66","177759","0.0-6.0-2.30","63f7eb4fd0c75f760998818c","bdp_trlrn","Tue Mar 14 2023 18:24:47 GMT-0700 (Pacific Daylight Time)","969779","Trustworthy,Untrustworthy","","null","","","","ratingFB","","trustrating_stim/white_00223_940128_fb_edt.bmp","null","","","","","","","","","","",""
"image-keyboard-response","67","188238","0.0-6.0-1.31","63f7eb4fd0c75f760998818c","bdp_trlrn","Tue Mar 14 2023 18:24:47 GMT-0700 (Pacific Daylight Time)","969779","Trustworthy,Untrustworthy","","10368","","","","rating","","trustrating_stim/white_00129_931230_fb_edt.bmp","4","","","","","","","","","","",""
"image-keyboard-response","68","188441","0.0-6.0-2.31","63f7eb4fd0c75f760998818c","bdp_trlrn","Tue Mar 14 2023 18:24:47 GMT-0700 (Pacific Daylight Time)","969779","Trustworthy,Untrustworthy","","null","","","","ratingFB","","trustrating_stim/white_00129_931230_fb_edt.bmp","null","","","","","","","","","","",""
"image-keyboard-response","69","192977","0.0-6.0-1.32","63f7eb4fd0c75f760998818c","bdp_trlrn","Tue Mar 14 2023 18:24:47 GMT-0700 (Pacific Daylight Time)","969779","Trustworthy,Untrustworthy","","4424","","","","rating","","trustrating_stim/white_00898_960530_fa_edt.bmp","4","","","","","","","","","","",""
"image-keyboard-response","70","193184","0.0-6.0-2.32","63f7eb4fd0c75f760998818c","bdp_trlrn","Tue Mar 14 2023 18:24:47 GMT-0700 (Pacific Daylight Time)","969779","Trustworthy,Untrustworthy","","null","","","","ratingFB","","trustrating_stim/white_00898_960530_fa_edt.bmp","null","","","","","","","","","","",""
"image-keyboard-response","71","196040","0.0-6.0-1.33","63f7eb4fd0c75f760998818c","bdp_trlrn","Tue Mar 14 2023 18:24:47 GMT-0700 (Pacific Daylight Time)","969779","Trustworthy,Untrustworthy","","2739","","","","rating","","trustrating_stim/white_mw089.bmp","7","","","","","","","","","","",""
"image-keyboard-response","72","196257","0.0-6.0-2.33","63f7eb4fd0c75f760998818c","bdp_trlrn","Tue Mar 14 2023 18:24:47 GMT-0700 (Pacific Daylight Time)","969779","Trustworthy,Untrustworthy","","null","","","","ratingFB","","trustrating_stim/white_mw089.bmp","null","","","","","","","","","","",""
"image-keyboard-response","73","197989","0.0-6.0-1.34","63f7eb4fd0c75f760998818c","bdp_trlrn","Tue Mar 14 2023 18:24:47 GMT-0700 (Pacific Daylight Time)","969779","Trustworthy,Untrustworthy","","1619","","","","rating","","trustrating_stim/white_mw033.bmp","6","","","","","","","","","","",""
"image-keyboard-response","74","198193","0.0-6.0-2.34","63f7eb4fd0c75f760998818c","bdp_trlrn","Tue Mar 14 2023 18:24:47 GMT-0700 (Pacific Daylight Time)","969779","Trustworthy,Untrustworthy","","null","","","","ratingFB","","trustrating_stim/white_mw033.bmp","null","","","","","","","","","","",""
"image-keyboard-response","75","202263","0.0-6.0-1.35","63f7eb4fd0c75f760998818c","bdp_trlrn","Tue Mar 14 2023 18:24:47 GMT-0700 (Pacific Daylight Time)","969779","Trustworthy,Untrustworthy","","3955","","","","rating","","trustrating_stim/white_mw048.bmp","6","","","","","","","","","","",""
"image-keyboard-response","76","202480","0.0-6.0-2.35","63f7eb4fd0c75f760998818c","bdp_trlrn","Tue Mar 14 2023 18:24:47 GMT-0700 (Pacific Daylight Time)","969779","Trustworthy,Untrustworthy","","null","","","","ratingFB","","trustrating_stim/white_mw048.bmp","null","","","","","","","","","","",""
"image-keyboard-response","77","205880","0.0-6.0-1.36","63f7eb4fd0c75f760998818c","bdp_trlrn","Tue Mar 14 2023 18:24:47 GMT-0700 (Pacific Daylight Time)","969779","Trustworthy,Untrustworthy","","3293","","","","rating","","trustrating_stim/white_mw097.bmp","6","","","","","","","","","","",""
"image-keyboard-response","78","206093","0.0-6.0-2.36","63f7eb4fd0c75f760998818c","bdp_trlrn","Tue Mar 14 2023 18:24:47 GMT-0700 (Pacific Daylight Time)","969779","Trustworthy,Untrustworthy","","null","","","","ratingFB","","trustrating_stim/white_mw097.bmp","null","","","","","","","","","","",""
"image-keyboard-response","79","212645","0.0-6.0-1.37","63f7eb4fd0c75f760998818c","bdp_trlrn","Tue Mar 14 2023 18:24:47 GMT-0700 (Pacific Daylight Time)","969779","Trustworthy,Untrustworthy","","6440","","","","rating","","trustrating_stim/white_00577_940928_fa_edt.bmp","5","","","","","","","","","","",""
"image-keyboard-response","80","212858","0.0-6.0-2.37","63f7eb4fd0c75f760998818c","bdp_trlrn","Tue Mar 14 2023 18:24:47 GMT-0700 (Pacific Daylight Time)","969779","Trustworthy,Untrustworthy","","null","","","","ratingFB","","trustrating_stim/white_00577_940928_fa_edt.bmp","null","","","","","","","","","","",""
"image-keyboard-response","81","216182","0.0-6.0-1.38","63f7eb4fd0c75f760998818c","bdp_trlrn","Tue Mar 14 2023 18:24:47 GMT-0700 (Pacific Daylight Time)","969779","Trustworthy,Untrustworthy","","3215","","","","rating","","trustrating_stim/white_00109_931230_fa_edt.bmp","2","","","","","","","","","","",""
"image-keyboard-response","82","216384","0.0-6.0-2.38","63f7eb4fd0c75f760998818c","bdp_trlrn","Tue Mar 14 2023 18:24:47 GMT-0700 (Pacific Daylight Time)","969779","Trustworthy,Untrustworthy","","null","","","","ratingFB","","trustrating_stim/white_00109_931230_fa_edt.bmp","null","","","","","","","","","","",""
"image-keyboard-response","83","218839","0.0-6.0-1.39","63f7eb4fd0c75f760998818c","bdp_trlrn","Tue Mar 14 2023 18:24:47 GMT-0700 (Pacific Daylight Time)","969779","Trustworthy,Untrustworthy","","2337","","","","rating","","trustrating_stim/white_mw046.bmp","5","","","","","","","","","","",""
"image-keyboard-response","84","219057","0.0-6.0-2.39","63f7eb4fd0c75f760998818c","bdp_trlrn","Tue Mar 14 2023 18:24:47 GMT-0700 (Pacific Daylight Time)","969779","Trustworthy,Untrustworthy","","null","","","","ratingFB","","trustrating_stim/white_mw046.bmp","null","","","","","","","","","","",""
"image-keyboard-response","85","220779","0.0-6.0-1.40","63f7eb4fd0c75f760998818c","bdp_trlrn","Tue Mar 14 2023 18:24:47 GMT-0700 (Pacific Daylight Time)","969779","Trustworthy,Untrustworthy","","1609","","","","rating","","trustrating_stim/white_mw053.bmp","1","","","","","","","","","","",""
"image-keyboard-response","86","220997","0.0-6.0-2.40","63f7eb4fd0c75f760998818c","bdp_trlrn","Tue Mar 14 2023 18:24:47 GMT-0700 (Pacific Daylight Time)","969779","Trustworthy,Untrustworthy","","null","","","","ratingFB","","trustrating_stim/white_mw053.bmp","null","","","","","","","","","","",""
"image-keyboard-response","87","225627","0.0-6.0-1.41","63f7eb4fd0c75f760998818c","bdp_trlrn","Tue Mar 14 2023 18:24:47 GMT-0700 (Pacific Daylight Time)","969779","Trustworthy,Untrustworthy","","4515","","","","rating","","trustrating_stim/white_mw071.bmp","7","","","","","","","","","","",""
"image-keyboard-response","88","225842","0.0-6.0-2.41","63f7eb4fd0c75f760998818c","bdp_trlrn","Tue Mar 14 2023 18:24:47 GMT-0700 (Pacific Daylight Time)","969779","Trustworthy,Untrustworthy","","null","","","","ratingFB","","trustrating_stim/white_mw071.bmp","null","","","","","","","","","","",""
"image-keyboard-response","89","228414","0.0-6.0-1.42","63f7eb4fd0c75f760998818c","bdp_trlrn","Tue Mar 14 2023 18:24:47 GMT-0700 (Pacific Daylight Time)","969779","Trustworthy,Untrustworthy","","2458","","","","rating","","trustrating_stim/white_00761_941201_fb_edt.bmp","4","","","","","","","","","","",""
"image-keyboard-response","90","228616","0.0-6.0-2.42","63f7eb4fd0c75f760998818c","bdp_trlrn","Tue Mar 14 2023 18:24:47 GMT-0700 (Pacific Daylight Time)","969779","Trustworthy,Untrustworthy","","null","","","","ratingFB","","trustrating_stim/white_00761_941201_fb_edt.bmp","null","","","","","","","","","","",""
"image-keyboard-response","91","230356","0.0-6.0-1.43","63f7eb4fd0c75f760998818c","bdp_trlrn","Tue Mar 14 2023 18:24:47 GMT-0700 (Pacific Daylight Time)","969779","Trustworthy,Untrustworthy","","1626","","","","rating","","trustrating_stim/white_mw066.bmp","2","","","","","","","","","","",""
"image-keyboard-response","92","230571","0.0-6.0-2.43","63f7eb4fd0c75f760998818c","bdp_trlrn","Tue Mar 14 2023 18:24:47 GMT-0700 (Pacific Daylight Time)","969779","Trustworthy,Untrustworthy","","null","","","","ratingFB","","trustrating_stim/white_mw066.bmp","null","","","","","","","","","","",""
"image-keyboard-response","93","233053","0.0-6.0-1.44","63f7eb4fd0c75f760998818c","bdp_trlrn","Tue Mar 14 2023 18:24:47 GMT-0700 (Pacific Daylight Time)","969779","Trustworthy,Untrustworthy","","2367","","","","rating","","trustrating_stim/white_mw099.bmp","6","","","","","","","","","","",""
"image-keyboard-response","94","233265","0.0-6.0-2.44","63f7eb4fd0c75f760998818c","bdp_trlrn","Tue Mar 14 2023 18:24:47 GMT-0700 (Pacific Daylight Time)","969779","Trustworthy,Untrustworthy","","null","","","","ratingFB","","trustrating_stim/white_mw099.bmp","null","","","","","","","","","","",""
"image-keyboard-response","95","241122","0.0-6.0-1.45","63f7eb4fd0c75f760998818c","bdp_trlrn","Tue Mar 14 2023 18:24:47 GMT-0700 (Pacific Daylight Time)","969779","Trustworthy,Untrustworthy","","7745","","","","rating","","trustrating_stim/white_00519_940519_fb_edt.bmp","4","","","","","","","","","","",""
"image-keyboard-response","96","241342","0.0-6.0-2.45","63f7eb4fd0c75f760998818c","bdp_trlrn","Tue Mar 14 2023 18:24:47 GMT-0700 (Pacific Daylight Time)","969779","Trustworthy,Untrustworthy","","null","","","","ratingFB","","trustrating_stim/white_00519_940519_fb_edt.bmp","null","","","","","","","","","","",""
"image-keyboard-response","97","245227","0.0-6.0-1.46","63f7eb4fd0c75f760998818c","bdp_trlrn","Tue Mar 14 2023 18:24:47 GMT-0700 (Pacific Daylight Time)","969779","Trustworthy,Untrustworthy","","3771","","","","rating","","trustrating_stim/white_mw035.bmp","3","","","","","","","","","","",""
"image-keyboard-response","98","245437","0.0-6.0-2.46","63f7eb4fd0c75f760998818c","bdp_trlrn","Tue Mar 14 2023 18:24:47 GMT-0700 (Pacific Daylight Time)","969779","Trustworthy,Untrustworthy","","null","","","","ratingFB","","trustrating_stim/white_mw035.bmp","null","","","","","","","","","","",""
"image-keyboard-response","99","247267","0.0-6.0-1.47","63f7eb4fd0c75f760998818c","bdp_trlrn","Tue Mar 14 2023 18:24:47 GMT-0700 (Pacific Daylight Time)","969779","Trustworthy,Untrustworthy","","1716","","","","rating","","trustrating_stim/white_mw049.bmp","1","","","","","","","","","","",""
"image-keyboard-response","100","247476","0.0-6.0-2.47","63f7eb4fd0c75f760998818c","bdp_trlrn","Tue Mar 14 2023 18:24:47 GMT-0700 (Pacific Daylight Time)","969779","Trustworthy,Untrustworthy","","null","","","","ratingFB","","trustrating_stim/white_mw049.bmp","null","","","","","","","","","","",""
"image-keyboard-response","101","250909","0.0-6.0-1.48","63f7eb4fd0c75f760998818c","bdp_trlrn","Tue Mar 14 2023 18:24:47 GMT-0700 (Pacific Daylight Time)","969779","Trustworthy,Untrustworthy","","3323","","","","rating","","trustrating_stim/white_00340_940422_fa_edt.bmp","6","","","","","","","","","","",""
"image-keyboard-response","102","251128","0.0-6.0-2.48","63f7eb4fd0c75f760998818c","bdp_trlrn","Tue Mar 14 2023 18:24:47 GMT-0700 (Pacific Daylight Time)","969779","Trustworthy,Untrustworthy","","null","","","","ratingFB","","trustrating_stim/white_00340_940422_fa_edt.bmp","null","","","","","","","","","","",""
"image-keyboard-response","103","253382","0.0-6.0-1.49","63f7eb4fd0c75f760998818c","bdp_trlrn","Tue Mar 14 2023 18:24:47 GMT-0700 (Pacific Daylight Time)","969779","Trustworthy,Untrustworthy","","2144","","","","rating","","trustrating_stim/white_00299_940422_fa_edt.bmp","5","","","","","","","","","","",""
"image-keyboard-response","104","253589","0.0-6.0-2.49","63f7eb4fd0c75f760998818c","bdp_trlrn","Tue Mar 14 2023 18:24:47 GMT-0700 (Pacific Daylight Time)","969779","Trustworthy,Untrustworthy","","null","","","","ratingFB","","trustrating_stim/white_00299_940422_fa_edt.bmp","null","","","","","","","","","","",""
"image-keyboard-response","105","255972","0.0-6.0-1.50","63f7eb4fd0c75f760998818c","bdp_trlrn","Tue Mar 14 2023 18:24:47 GMT-0700 (Pacific Daylight Time)","969779","Trustworthy,Untrustworthy","","2269","","","","rating","","trustrating_stim/white_00807_941205_fb_edt.bmp","6","","","","","","","","","","",""
"image-keyboard-response","106","256187","0.0-6.0-2.50","63f7eb4fd0c75f760998818c","bdp_trlrn","Tue Mar 14 2023 18:24:47 GMT-0700 (Pacific Daylight Time)","969779","Trustworthy,Untrustworthy","","null","","","","ratingFB","","trustrating_stim/white_00807_941205_fb_edt.bmp","null","","","","","","","","","","",""
"image-keyboard-response","107","258311","0.0-6.0-1.51","63f7eb4fd0c75f760998818c","bdp_trlrn","Tue Mar 14 2023 18:24:47 GMT-0700 (Pacific Daylight Time)","969779","Trustworthy,Untrustworthy","","2005","","","","rating","","trustrating_stim/white_mw063.bmp","7","","","","","","","","","","",""
"image-keyboard-response","108","258520","0.0-6.0-2.51","63f7eb4fd0c75f760998818c","bdp_trlrn","Tue Mar 14 2023 18:24:47 GMT-0700 (Pacific Daylight Time)","969779","Trustworthy,Untrustworthy","","null","","","","ratingFB","","trustrating_stim/white_mw063.bmp","null","","","","","","","","","","",""
"image-keyboard-response","109","261884","0.0-6.0-1.52","63f7eb4fd0c75f760998818c","bdp_trlrn","Tue Mar 14 2023 18:24:47 GMT-0700 (Pacific Daylight Time)","969779","Trustworthy,Untrustworthy","","3258","","","","rating","","trustrating_stim/white_00757_941201_fa_edt.bmp","5","","","","","","","","","","",""
"image-keyboard-response","110","262086","0.0-6.0-2.52","63f7eb4fd0c75f760998818c","bdp_trlrn","Tue Mar 14 2023 18:24:47 GMT-0700 (Pacific Daylight Time)","969779","Trustworthy,Untrustworthy","","null","","","","ratingFB","","trustrating_stim/white_00757_941201_fa_edt.bmp","null","","","","","","","","","","",""
"image-keyboard-response","111","268019","0.0-6.0-1.53","63f7eb4fd0c75f760998818c","bdp_trlrn","Tue Mar 14 2023 18:24:47 GMT-0700 (Pacific Daylight Time)","969779","Trustworthy,Untrustworthy","","5827","","","","rating","","trustrating_stim/white_00659_941121_fa_edt.bmp","6","","","","","","","","","","",""
"image-keyboard-response","112","268224","0.0-6.0-2.53","63f7eb4fd0c75f760998818c","bdp_trlrn","Tue Mar 14 2023 18:24:47 GMT-0700 (Pacific Daylight Time)","969779","Trustworthy,Untrustworthy","","null","","","","ratingFB","","trustrating_stim/white_00659_941121_fa_edt.bmp","null","","","","","","","","","","",""
"image-keyboard-response","113","278306","0.0-6.0-1.54","63f7eb4fd0c75f760998818c","bdp_trlrn","Tue Mar 14 2023 18:24:47 GMT-0700 (Pacific Daylight Time)","969779","Trustworthy,Untrustworthy","","9971","","","","rating","","trustrating_stim/white_mw084.bmp","4","","","","","","","","","","",""
"image-keyboard-response","114","278508","0.0-6.0-2.54","63f7eb4fd0c75f760998818c","bdp_trlrn","Tue Mar 14 2023 18:24:47 GMT-0700 (Pacific Daylight Time)","969779","Trustworthy,Untrustworthy","","null","","","","ratingFB","","trustrating_stim/white_mw084.bmp","null","","","","","","","","","","",""
"image-keyboard-response","115","286676","0.0-6.0-1.55","63f7eb4fd0c75f760998818c","bdp_trlrn","Tue Mar 14 2023 18:24:47 GMT-0700 (Pacific Daylight Time)","969779","Trustworthy,Untrustworthy","","8058","","","","rating","","trustrating_stim/white_mw056.bmp","5","","","","","","","","","","",""
"image-keyboard-response","116","286890","0.0-6.0-2.55","63f7eb4fd0c75f760998818c","bdp_trlrn","Tue Mar 14 2023 18:24:47 GMT-0700 (Pacific Daylight Time)","969779","Trustworthy,Untrustworthy","","null","","","","ratingFB","","trustrating_stim/white_mw056.bmp","null","","","","","","","","","","",""
"image-keyboard-response","117","291002","0.0-6.0-1.56","63f7eb4fd0c75f760998818c","bdp_trlrn","Tue Mar 14 2023 18:24:47 GMT-0700 (Pacific Daylight Time)","969779","Trustworthy,Untrustworthy","","3993","","","","rating","","trustrating_stim/white_00602_940928_fb_edt.bmp","2","","","","","","","","","","",""
"image-keyboard-response","118","291214","0.0-6.0-2.56","63f7eb4fd0c75f760998818c","bdp_trlrn","Tue Mar 14 2023 18:24:47 GMT-0700 (Pacific Daylight Time)","969779","Trustworthy,Untrustworthy","","null","","","","ratingFB","","trustrating_stim/white_00602_940928_fb_edt.bmp","null","","","","","","","","","","",""
"image-keyboard-response","119","294212","0.0-6.0-1.57","63f7eb4fd0c75f760998818c","bdp_trlrn","Tue Mar 14 2023 18:24:47 GMT-0700 (Pacific Daylight Time)","969779","Trustworthy,Untrustworthy","","2890","","","","rating","","trustrating_stim/white_00120_931230_fa_edt.bmp","2","","","","","","","","","","",""
"image-keyboard-response","120","294422","0.0-6.0-2.57","63f7eb4fd0c75f760998818c","bdp_trlrn","Tue Mar 14 2023 18:24:47 GMT-0700 (Pacific Daylight Time)","969779","Trustworthy,Untrustworthy","","null","","","","ratingFB","","trustrating_stim/white_00120_931230_fa_edt.bmp","null","","","","","","","","","","",""
"image-keyboard-response","121","298809","0.0-6.0-1.58","63f7eb4fd0c75f760998818c","bdp_trlrn","Tue Mar 14 2023 18:24:47 GMT-0700 (Pacific Daylight Time)","969779","Trustworthy,Untrustworthy","","4275","","","","rating","","trustrating_stim/white_mw060.bmp","8","","","","","","","","","","",""
"image-keyboard-response","122","299029","0.0-6.0-2.58","63f7eb4fd0c75f760998818c","bdp_trlrn","Tue Mar 14 2023 18:24:47 GMT-0700 (Pacific Daylight Time)","969779","Trustworthy,Untrustworthy","","null","","","","ratingFB","","trustrating_stim/white_mw060.bmp","null","","","","","","","","","","",""
"image-keyboard-response","123","301520","0.0-6.0-1.59","63f7eb4fd0c75f760998818c","bdp_trlrn","Tue Mar 14 2023 18:24:47 GMT-0700 (Pacific Daylight Time)","969779","Trustworthy,Untrustworthy","","2372","","","","rating","","trustrating_stim/white_00785_941205_fb_edt.bmp","6","","","","","","","","","","",""
"image-keyboard-response","124","301737","0.0-6.0-2.59","63f7eb4fd0c75f760998818c","bdp_trlrn","Tue Mar 14 2023 18:24:47 GMT-0700 (Pacific Daylight Time)","969779","Trustworthy,Untrustworthy","","null","","","","ratingFB","","trustrating_stim/white_00785_941205_fb_edt.bmp","null","","","","","","","","","","",""
"instructions","125","304392","0.0-7.0","63f7eb4fd0c75f760998818c","bdp_trlrn","Tue Mar 14 2023 18:24:47 GMT-0700 (Pacific Daylight Time)","969779","Trustworthy,Untrustworthy","[{""page_index"":0,""viewing_time"":2553}]","2553","","","","","","","","","","","","","","","","","",""
"instructions","126","441191","0.0-8.0","63f7eb4fd0c75f760998818c","bdp_trlrn","Tue Mar 14 2023 18:24:47 GMT-0700 (Pacific Daylight Time)","969779","Trustworthy,Untrustworthy","[{""page_index"":0,""viewing_time"":24907},{""page_index"":1,""viewing_time"":15534},{""page_index"":2,""viewing_time"":23449},{""page_index"":3,""viewing_time"":16287},{""page_index"":4,""viewing_time"":4868},{""page_index"":5,""viewing_time"":12410},{""page_index"":6,""viewing_time"":18417},{""page_index"":7,""viewing_time"":13444},{""page_index"":6,""viewing_time"":1614},{""page_index"":7,""viewing_time"":5761}]","136691","","","","","","","","","","","","","","","","","",""
"html-keyboard-response","127","452490","0.0-9.0","63f7eb4fd0c75f760998818c","bdp_trlrn","Tue Mar 14 2023 18:24:47 GMT-0700 (Pacific Daylight Time)","969779","Trustworthy,Untrustworthy","","11296","","","","","","<div class='header' style='text-align:left; position: absolute; top: 5%; left: 5%;'><small>Task 2 of 5</small></div><div class='instruxDiv'><p><strong>1) What is the minimum number of points you can choose to send to your partner?</strong></p><p>a) 0</p><p>b) 1</p><p>c) 5</p>","B","","","","","","","","","","",""
"html-keyboard-response","128","454941","0.0-10.0","63f7eb4fd0c75f760998818c","bdp_trlrn","Tue Mar 14 2023 18:24:47 GMT-0700 (Pacific Daylight Time)","969779","Trustworthy,Untrustworthy","","2347","","","","","","<div class='header' style='text-align:left; position: absolute; top: 5%; left: 5%;'><small>Task 2 of 5</small></div><div class='instruxDiv'><p><strong>1) What is the minimum number of points you can choose to send to your partner?</strong></p><p>a) 0</p><p style='color:#00FF00'>b) 1</p><p>c) 5</p><h3 style='color:#00FF00'>Correct!</h3><h3 class='center-content'>The correct response is b).</h3><h3 class='center-content'>The minimum number of points you can choose to send to your partner is 1 point.</h3><p><em>Press SPACEBAR to continue</em></p></div>"," ","","","","","","","","","","",""
"html-keyboard-response","129","457848","0.0-11.0","63f7eb4fd0c75f760998818c","bdp_trlrn","Tue Mar 14 2023 18:24:47 GMT-0700 (Pacific Daylight Time)","969779","Trustworthy,Untrustworthy","","2805","","","","","","<div class='header' style='text-align:left; position: absolute; top: 5%; left: 5%;'><small>Task 2 of 5</small></div><div class='instruxDiv'><p><strong>2) What is the maximum number of points you can choose to send to your partner?</strong></p><p>a) 8</p><p>b) 5</p><p>c) 3</p>","B","","","","","","","","","","",""
"html-keyboard-response","130","459048","0.0-12.0","63f7eb4fd0c75f760998818c","bdp_trlrn","Tue Mar 14 2023 18:24:47 GMT-0700 (Pacific Daylight Time)","969779","Trustworthy,Untrustworthy","","1087","","","","","","<div class='header' style='text-align:left; position: absolute; top: 5%; left: 5%;'><small>Task 2 of 5</small></div><div class='instruxDiv'><p><strong>2) What is the maximum number of points you can choose to send to your partner?</strong></p><p>a) 8</p><p style='color:#00FF00'>b) 5</p><p>c) 3</p><h3 style='color:#00FF00'>Correct!</h3><h3 class='center-content'>The correct response is b).</h3><h3 class='center-content'>The maximum number of points you can choose to send to your partner is 5 points.</h3><p><em>Press SPACEBAR to continue</em></p></div>"," ","","","","","","","","","","",""
"html-keyboard-response","131","465754","0.0-13.0","63f7eb4fd0c75f760998818c","bdp_trlrn","Tue Mar 14 2023 18:24:47 GMT-0700 (Pacific Daylight Time)","969779","Trustworthy,Untrustworthy","","6592","","","","","","<div class='header' style='text-align:left; position: absolute; top: 5%; left: 5%;'><small>Task 2 of 5</small></div><div class='instruxDiv'><p><strong>3) What happens to the amount of points you send to your partner?</strong></p><p>a) Nothing</p><p>b) It doubles</p><p>c) It quadruples</p>","C","","","","","","","","","","",""
"html-keyboard-response","132","467105","0.0-14.0","63f7eb4fd0c75f760998818c","bdp_trlrn","Tue Mar 14 2023 18:24:47 GMT-0700 (Pacific Daylight Time)","969779","Trustworthy,Untrustworthy","","1242","","","","","","<div class='header' style='text-align:left; position: absolute; top: 5%; left: 5%;'><small>Task 2 of 5</small></div><div class='instruxDiv'><p><strong>3) What happens to the amount of points you send to your partner?</strong></p><p>a) Nothing</p><p>b) It doubles</p><p style='color:#00FF00'>c) It quadruples</p><h3 style='color:#00FF00'>Correct!</h3><h3 class='center-content'>The correct response is c).</h3><h3 class='center-content'>The amount of points you send to your partner quadruples.</h3><p><em>Press SPACEBAR to continue</em></p></div>"," ","","","","","","","","","","",""
"html-keyboard-response","133","473251","0.0-15.0","63f7eb4fd0c75f760998818c","bdp_trlrn","Tue Mar 14 2023 18:24:47 GMT-0700 (Pacific Daylight Time)","969779","Trustworthy,Untrustworthy","","6037","","","","","","<div class='header' style='text-align:left; position: absolute; top: 5%; left: 5%;'><small>Task 2 of 5</small></div><div class='instruxDiv'><p><strong>4) If you decided to share 4 out of 5 points with your partner, and they decided to share half of the amount they received with you, how many points would you receive back from them on this round?</strong></p><p>a) 16</p><p>b) 0</p><p>c) 8</p>","C","","","","","","","","","","",""
"html-keyboard-response","134","474406","0.0-16.0","63f7eb4fd0c75f760998818c","bdp_trlrn","Tue Mar 14 2023 18:24:47 GMT-0700 (Pacific Daylight Time)","969779","Trustworthy,Untrustworthy","","1043","","","","","","<div class='header' style='text-align:left; position: absolute; top: 5%; left: 5%;'><small>Task 2 of 5</small></div><div class='instruxDiv'><p><strong>4) If you decided to share 4 out of 5 points with your partner, and they decided to share half of the amount they received with you, how many points would you receive back from them on this round?</strong></p><p>a) 16</p><p>b) 0</p><p style='color:#00FF00'>c) 8</p><h3 style='color:#00FF00'>Correct!</h3><h3 class='center-content'>The correct response is c).</h3><h3 class='center-content'>If you shared 4 out of 5 points with your partner and they decided to share half of the amount they received with you, you would receive 8 points back (i.e. (4 x 4)/2 = 8).</h3><p><em>Press SPACEBAR to continue</em></p></div>"," ","","","","","","","","","","",""
"html-keyboard-response","135","479539","0.0-17.0","63f7eb4fd0c75f760998818c","bdp_trlrn","Tue Mar 14 2023 18:24:47 GMT-0700 (Pacific Daylight Time)","969779","Trustworthy,Untrustworthy","","null","","","","","","<div class='header' style='text-align:left; position: absolute; top: 5%; left: 5%;'><small>Task 2 of 5</small></div><div class='instruxDiv'><p>Thank you for completing the quiz<p>These are the actual partners you will be interacting with in the next block:<p><div class='tc' align='center'><img class='introPic' src='trustrating_stim/white_00120_931230_fa_edt.bmp'><br><strong>James</strong></div><div class='bl' align='center'><img class='introPic' src='trustrating_stim/white_mw048.bmp'><br><strong>Joseph</strong></div><div class='br' align='center'><img class='introPic' src='trustrating_stim/white_mw089.bmp'><br><strong>Jordan</strong></div></div><p>Across <strong>66 rounds</strong> you will interact with each partner <strong>22 times</strong> (in random order).<p style='align:center; color:white'><font <em>Press SPACEBAR to continue</em></p>","null","","","","","","","","","","",""
"instructions","136","490427","0.0-18.0","63f7eb4fd0c75f760998818c","bdp_trlrn","Tue Mar 14 2023 18:24:47 GMT-0700 (Pacific Daylight Time)","969779","Trustworthy,Untrustworthy","[{""page_index"":0,""viewing_time"":7049},{""page_index"":1,""viewing_time"":3838}]","10887","","","","","","","","","","","","","","","","","",""
"html-keyboard-response","137","496384","0.0-19.0-1.0","63f7eb4fd0c75f760998818c","bdp_trlrn","Tue Mar 14 2023 18:24:47 GMT-0700 (Pacific Daylight Time)","969779","Trustworthy,Untrustworthy","","5837","","","","decision","","<div class='trialDiv'><img src='trustrating_stim/white_mw048.bmp'><br><font class='baseline'><strong>Joseph</strong><p>Choose number of points to send.</font><div class='respPicDiv'><img src='img/responseButtonOffersNo0L.png' class='respPic'></div></div>","3","1","Joseph","6","Kept","0.2,0.8","9","0.2","trustrating_stim/white_mw048.bmp","4.5","5","1"
"html-keyboard-response","138","496642","0.0-19.0-2.0","63f7eb4fd0c75f760998818c","bdp_trlrn","Tue Mar 14 2023 18:24:47 GMT-0700 (Pacific Daylight Time)","969779","Trustworthy,Untrustworthy","","null","","","","decisionFB","","<div class='trialDiv'><img src='trustrating_stim/white_mw048.bmp'><br><font class='baseline'><strong>Joseph</strong><p>Choose number of points to send.</font><div class='respPicDiv'><img src='img/responseButtonOffersNo0L3.png' class='respPic'></div></div>","null","1","Joseph","6","Kept","0.2,0.8","9","0.2","trustrating_stim/white_mw048.bmp","4.5","2","1"
"html-keyboard-response","139","497653","0.0-19.0-3.0","63f7eb4fd0c75f760998818c","bdp_trlrn","Tue Mar 14 2023 18:24:47 GMT-0700 (Pacific Daylight Time)","969779","Trustworthy,Untrustworthy","","null","","","","feedback","","<div class='trialDiv'><img src='trustrating_stim/white_mw048.bmp'><br><font class='baseline'><strong>Joseph</strong><p>Received: <strong>12</strong></font> &nbsp; &nbsp; &nbsp; &nbsp; &nbsp; &nbsp;<font class='negOutcome'>Shared back: <strong>0</strong></font></font><div class='respPicDiv'><img src='img/responseButtonOffersNo0_wht.png' class='respPic'></div></div>","null","1","Joseph","6","Kept","0.2,0.8","9","0.2","trustrating_stim/white_mw048.bmp","4.5","2","1"
"html-keyboard-response","140","501275","0.0-19.0-1.1","63f7eb4fd0c75f760998818c","bdp_trlrn","Tue Mar 14 2023 18:24:47 GMT-0700 (Pacific Daylight Time)","969779","Trustworthy,Untrustworthy","","3620","","","","decision","","<div class='trialDiv'><img src='trustrating_stim/white_mw089.bmp'><br><font class='baseline'><strong>Jordan</strong><p>Choose number of points to send.</font><div class='respPicDiv'><img src='img/responseButtonOffersNo0L.png' class='respPic'></div></div>","3","1","Jordan","10","Kept","0.8,0.35","12","0.8","trustrating_stim/white_mw089.bmp","7","7","2"
"html-keyboard-response","141","501541","0.0-19.0-2.1","63f7eb4fd0c75f760998818c","bdp_trlrn","Tue Mar 14 2023 18:24:47 GMT-0700 (Pacific Daylight Time)","969779","Trustworthy,Untrustworthy","","null","","","","decisionFB","","<div class='trialDiv'><img src='trustrating_stim/white_mw089.bmp'><br><font class='baseline'><strong>Jordan</strong><p>Choose number of points to send.</font><div class='respPicDiv'><img src='img/responseButtonOffersNo0L3.png' class='respPic'></div></div>","null","1","Jordan","10","Kept","0.8,0.35","12","0.8","trustrating_stim/white_mw089.bmp","7","4","2"
"html-keyboard-response","142","502560","0.0-19.0-3.1","63f7eb4fd0c75f760998818c","bdp_trlrn","Tue Mar 14 2023 18:24:47 GMT-0700 (Pacific Daylight Time)","969779","Trustworthy,Untrustworthy","","null","","","","feedback","","<div class='trialDiv'><img src='trustrating_stim/white_mw089.bmp'><br><font class='baseline'><strong>Jordan</strong><p>Received: <strong>12</strong></font> &nbsp; &nbsp; &nbsp; &nbsp; &nbsp; &nbsp;<font class='negOutcome'>Shared back: <strong>0</strong></font></font><div class='respPicDiv'><img src='img/responseButtonOffersNo0_wht.png' class='respPic'></div></div>","null","1","Jordan","10","Kept","0.8,0.35","12","0.8","trustrating_stim/white_mw089.bmp","7","4","2"
"html-keyboard-response","143","504703","0.0-19.0-1.2","63f7eb4fd0c75f760998818c","bdp_trlrn","Tue Mar 14 2023 18:24:47 GMT-0700 (Pacific Daylight Time)","969779","Trustworthy,Untrustworthy","","2141","","","","decision","","<div class='trialDiv'><img src='trustrating_stim/white_00120_931230_fa_edt.bmp'><br><font class='baseline'><strong>James</strong><p>Choose number of points to send.</font><div class='respPicDiv'><img src='img/responseButtonOffersNo0L.png' class='respPic'></div></div>","4","1","James","1","Kept","0.2,0.65","13","0.2","trustrating_stim/white_00120_931230_fa_edt.bmp","2","9","3"
"html-keyboard-response","144","504966","0.0-19.0-2.2","63f7eb4fd0c75f760998818c","bdp_trlrn","Tue Mar 14 2023 18:24:47 GMT-0700 (Pacific Daylight Time)","969779","Trustworthy,Untrustworthy","","null","","","","decisionFB","","<div class='trialDiv'><img src='trustrating_stim/white_00120_931230_fa_edt.bmp'><br><font class='baseline'><strong>James</strong><p>Choose number of points to send.</font><div class='respPicDiv'><img src='img/responseButtonOffersNo0L4.png' class='respPic'></div></div>","null","1","James","1","Kept","0.2,0.65","13","0.2","trustrating_stim/white_00120_931230_fa_edt.bmp","2","5","3"
"html-keyboard-response","145","505975","0.0-19.0-3.2","63f7eb4fd0c75f760998818c","bdp_trlrn","Tue Mar 14 2023 18:24:47 GMT-0700 (Pacific Daylight Time)","969779","Trustworthy,Untrustworthy","","null","","","","feedback","","<div class='trialDiv'><img src='trustrating_stim/white_00120_931230_fa_edt.bmp'><br><font class='baseline'><strong>James</strong><p>Received: <strong>16</strong></font> &nbsp; &nbsp; &nbsp; &nbsp; &nbsp; &nbsp;<font class='negOutcome'>Shared back: <strong>0</strong></font></font><div class='respPicDiv'><img src='img/responseButtonOffersNo0_wht.png' class='respPic'></div></div>","null","1","James","1","Kept","0.2,0.65","13","0.2","trustrating_stim/white_00120_931230_fa_edt.bmp","2","5","3"
"html-keyboard-response","146","510026","0.0-19.0-1.3","63f7eb4fd0c75f760998818c","bdp_trlrn","Tue Mar 14 2023 18:24:47 GMT-0700 (Pacific Daylight Time)","969779","Trustworthy,Untrustworthy","","4050","","","","decision","","<div class='trialDiv'><img src='trustrating_stim/white_mw089.bmp'><br><font class='baseline'><strong>Jordan</strong><p>Choose number of points to send.</font><div class='respPicDiv'><img src='img/responseButtonOffersNo0L.png' class='respPic'></div></div>","2","2","Jordan","10","Shared","0.8,0.35","12","0.8","trustrating_stim/white_mw089.bmp","7","10","4"
"html-keyboard-response","147","510288","0.0-19.0-2.3","63f7eb4fd0c75f760998818c","bdp_trlrn","Tue Mar 14 2023 18:24:47 GMT-0700 (Pacific Daylight Time)","969779","Trustworthy,Untrustworthy","","null","","","","decisionFB","","<div class='trialDiv'><img src='trustrating_stim/white_mw089.bmp'><br><font class='baseline'><strong>Jordan</strong><p>Choose number of points to send.</font><div class='respPicDiv'><img src='img/responseButtonOffersNo0L2.png' class='respPic'></div></div>","null","2","Jordan","10","Shared","0.8,0.35","12","0.8","trustrating_stim/white_mw089.bmp","7","8","4"
"html-keyboard-response","148","511300","0.0-19.0-3.3","63f7eb4fd0c75f760998818c","bdp_trlrn","Tue Mar 14 2023 18:24:47 GMT-0700 (Pacific Daylight Time)","969779","Trustworthy,Untrustworthy","","null","","","","feedback","","<div class='trialDiv'><img src='trustrating_stim/white_mw089.bmp'><br><font class='baseline'><strong>Jordan</strong><p>Received: <strong>8</strong></font> &nbsp; &nbsp; &nbsp; &nbsp; &nbsp; &nbsp;<font class='posOutcome'>Shared back: <strong>4</strong></font></font><div class='respPicDiv'><img src='img/responseButtonOffersNo0_wht.png' class='respPic'></div></div>","null","2","Jordan","10","Shared","0.8,0.35","12","0.8","trustrating_stim/white_mw089.bmp","7","12","4"
"html-keyboard-response","149","512552","0.0-19.0-1.4","63f7eb4fd0c75f760998818c","bdp_trlrn","Tue Mar 14 2023 18:24:47 GMT-0700 (Pacific Daylight Time)","969779","Trustworthy,Untrustworthy","","1250","","","","decision","","<div class='trialDiv'><img src='trustrating_stim/white_00120_931230_fa_edt.bmp'><br><font class='baseline'><strong>James</strong><p>Choose number of points to send.</font><div class='respPicDiv'><img src='img/responseButtonOffersNo0L.png' class='respPic'></div></div>","2","2","James","1","Kept","0.2,0.65","13","0.2","trustrating_stim/white_00120_931230_fa_edt.bmp","2","17","5"
"html-keyboard-response","150","512820","0.0-19.0-2.4","63f7eb4fd0c75f760998818c","bdp_trlrn","Tue Mar 14 2023 18:24:47 GMT-0700 (Pacific Daylight Time)","969779","Trustworthy,Untrustworthy","","null","","","","decisionFB","","<div class='trialDiv'><img src='trustrating_stim/white_00120_931230_fa_edt.bmp'><br><font class='baseline'><strong>James</strong><p>Choose number of points to send.</font><div class='respPicDiv'><img src='img/responseButtonOffersNo0L2.png' class='respPic'></div></div>","null","2","James","1","Kept","0.2,0.65","13","0.2","trustrating_stim/white_00120_931230_fa_edt.bmp","2","15","5"
"html-keyboard-response","151","513822","0.0-19.0-3.4","63f7eb4fd0c75f760998818c","bdp_trlrn","Tue Mar 14 2023 18:24:47 GMT-0700 (Pacific Daylight Time)","969779","Trustworthy,Untrustworthy","","null","","","","feedback","","<div class='trialDiv'><img src='trustrating_stim/white_00120_931230_fa_edt.bmp'><br><font class='baseline'><strong>James</strong><p>Received: <strong>8</strong></font> &nbsp; &nbsp; &nbsp; &nbsp; &nbsp; &nbsp;<font class='negOutcome'>Shared back: <strong>0</strong></font></font><div class='respPicDiv'><img src='img/responseButtonOffersNo0_wht.png' class='respPic'></div></div>","null","2","James","1","Kept","0.2,0.65","13","0.2","trustrating_stim/white_00120_931230_fa_edt.bmp","2","15","5"
"html-keyboard-response","152","514841","0.0-19.0-1.5","63f7eb4fd0c75f760998818c","bdp_trlrn","Tue Mar 14 2023 18:24:47 GMT-0700 (Pacific Daylight Time)","969779","Trustworthy,Untrustworthy","","1016","","","","decision","","<div class='trialDiv'><img src='trustrating_stim/white_mw048.bmp'><br><font class='baseline'><strong>Joseph</strong><p>Choose number of points to send.</font><div class='respPicDiv'><img src='img/responseButtonOffersNo0L.png' class='respPic'></div></div>","2","2","Joseph","6","Kept","0.2,0.8","9","0.2","trustrating_stim/white_mw048.bmp","4.5","20","6"
"html-keyboard-response","153","515093","0.0-19.0-2.5","63f7eb4fd0c75f760998818c","bdp_trlrn","Tue Mar 14 2023 18:24:47 GMT-0700 (Pacific Daylight Time)","969779","Trustworthy,Untrustworthy","","null","","","","decisionFB","","<div class='trialDiv'><img src='trustrating_stim/white_mw048.bmp'><br><font class='baseline'><strong>Joseph</strong><p>Choose number of points to send.</font><div class='respPicDiv'><img src='img/responseButtonOffersNo0L2.png' class='respPic'></div></div>","null","2","Joseph","6","Kept","0.2,0.8","9","0.2","trustrating_stim/white_mw048.bmp","4.5","18","6"
"html-keyboard-response","154","516109","0.0-19.0-3.5","63f7eb4fd0c75f760998818c","bdp_trlrn","Tue Mar 14 2023 18:24:47 GMT-0700 (Pacific Daylight Time)","969779","Trustworthy,Untrustworthy","","null","","","","feedback","","<div class='trialDiv'><img src='trustrating_stim/white_mw048.bmp'><br><font class='baseline'><strong>Joseph</strong><p>Received: <strong>8</strong></font> &nbsp; &nbsp; &nbsp; &nbsp; &nbsp; &nbsp;<font class='negOutcome'>Shared back: <strong>0</strong></font></font><div class='respPicDiv'><img src='img/responseButtonOffersNo0_wht.png' class='respPic'></div></div>","null","2","Joseph","6","Kept","0.2,0.8","9","0.2","trustrating_stim/white_mw048.bmp","4.5","18","6"
"html-keyboard-response","155","520743","0.0-19.0-1.6","63f7eb4fd0c75f760998818c","bdp_trlrn","Tue Mar 14 2023 18:24:47 GMT-0700 (Pacific Daylight Time)","969779","Trustworthy,Untrustworthy","","4633","","","","decision","","<div class='trialDiv'><img src='trustrating_stim/white_mw089.bmp'><br><font class='baseline'><strong>Jordan</strong><p>Choose number of points to send.</font><div class='respPicDiv'><img src='img/responseButtonOffersNo0L.png' class='respPic'></div></div>","4","3","Jordan","10","Shared","0.8,0.35","12","0.8","trustrating_stim/white_mw089.bmp","7","23","7"
"html-keyboard-response","156","521007","0.0-19.0-2.6","63f7eb4fd0c75f760998818c","bdp_trlrn","Tue Mar 14 2023 18:24:47 GMT-0700 (Pacific Daylight Time)","969779","Trustworthy,Untrustworthy","","null","","","","decisionFB","","<div class='trialDiv'><img src='trustrating_stim/white_mw089.bmp'><br><font class='baseline'><strong>Jordan</strong><p>Choose number of points to send.</font><div class='respPicDiv'><img src='img/responseButtonOffersNo0L4.png' class='respPic'></div></div>","null","3","Jordan","10","Shared","0.8,0.35","12","0.8","trustrating_stim/white_mw089.bmp","7","19","7"
"html-keyboard-response","157","522020","0.0-19.0-3.6","63f7eb4fd0c75f760998818c","bdp_trlrn","Tue Mar 14 2023 18:24:47 GMT-0700 (Pacific Daylight Time)","969779","Trustworthy,Untrustworthy","","null","","","","feedback","","<div class='trialDiv'><img src='trustrating_stim/white_mw089.bmp'><br><font class='baseline'><strong>Jordan</strong><p>Received: <strong>16</strong></font> &nbsp; &nbsp; &nbsp; &nbsp; &nbsp; &nbsp;<font class='posOutcome'>Shared back: <strong>8</strong></font></font><div class='respPicDiv'><img src='img/responseButtonOffersNo0_wht.png' class='respPic'></div></div>","null","3","Jordan","10","Shared","0.8,0.35","12","0.8","trustrating_stim/white_mw089.bmp","7","27","7"
"html-keyboard-response","158","523394","0.0-19.0-1.7","63f7eb4fd0c75f760998818c","bdp_trlrn","Tue Mar 14 2023 18:24:47 GMT-0700 (Pacific Daylight Time)","969779","Trustworthy,Untrustworthy","","1371","","","","decision","","<div class='trialDiv'><img src='trustrating_stim/white_00120_931230_fa_edt.bmp'><br><font class='baseline'><strong>James</strong><p>Choose number of points to send.</font><div class='respPicDiv'><img src='img/responseButtonOffersNo0L.png' class='respPic'></div></div>","1","3","James","1","Kept","0.2,0.65","13","0.2","trustrating_stim/white_00120_931230_fa_edt.bmp","2","32","8"
"html-keyboard-response","159","523654","0.0-19.0-2.7","63f7eb4fd0c75f760998818c","bdp_trlrn","Tue Mar 14 2023 18:24:47 GMT-0700 (Pacific Daylight Time)","969779","Trustworthy,Untrustworthy","","null","","","","decisionFB","","<div class='trialDiv'><img src='trustrating_stim/white_00120_931230_fa_edt.bmp'><br><font class='baseline'><strong>James</strong><p>Choose number of points to send.</font><div class='respPicDiv'><img src='img/responseButtonOffersNo0L1.png' class='respPic'></div></div>","null","3","James","1","Kept","0.2,0.65","13","0.2","trustrating_stim/white_00120_931230_fa_edt.bmp","2","31","8"
"html-keyboard-response","160","524663","0.0-19.0-3.7","63f7eb4fd0c75f760998818c","bdp_trlrn","Tue Mar 14 2023 18:24:47 GMT-0700 (Pacific Daylight Time)","969779","Trustworthy,Untrustworthy","","null","","","","feedback","","<div class='trialDiv'><img src='trustrating_stim/white_00120_931230_fa_edt.bmp'><br><font class='baseline'><strong>James</strong><p>Received: <strong>4</strong></font> &nbsp; &nbsp; &nbsp; &nbsp; &nbsp; &nbsp;<font class='negOutcome'>Shared back: <strong>0</strong></font></font><div class='respPicDiv'><img src='img/responseButtonOffersNo0_wht.png' class='respPic'></div></div>","null","3","James","1","Kept","0.2,0.65","13","0.2","trustrating_stim/white_00120_931230_fa_edt.bmp","2","31","8"
"html-keyboard-response","161","525312","0.0-19.0-1.8","63f7eb4fd0c75f760998818c","bdp_trlrn","Tue Mar 14 2023 18:24:47 GMT-0700 (Pacific Daylight Time)","969779","Trustworthy,Untrustworthy","","647","","","","decision","","<div class='trialDiv'><img src='trustrating_stim/white_mw048.bmp'><br><font class='baseline'><strong>Joseph</strong><p>Choose number of points to send.</font><div class='respPicDiv'><img src='img/responseButtonOffersNo0L.png' class='respPic'></div></div>","1","3","Joseph","6","Kept","0.2,0.8","9","0.2","trustrating_stim/white_mw048.bmp","4.5","36","9"
"html-keyboard-response","162","525564","0.0-19.0-2.8","63f7eb4fd0c75f760998818c","bdp_trlrn","Tue Mar 14 2023 18:24:47 GMT-0700 (Pacific Daylight Time)","969779","Trustworthy,Untrustworthy","","null","","","","decisionFB","","<div class='trialDiv'><img src='trustrating_stim/white_mw048.bmp'><br><font class='baseline'><strong>Joseph</strong><p>Choose number of points to send.</font><div class='respPicDiv'><img src='img/responseButtonOffersNo0L1.png' class='respPic'></div></div>","null","3","Joseph","6","Kept","0.2,0.8","9","0.2","trustrating_stim/white_mw048.bmp","4.5","35","9"
"html-keyboard-response","163","526575","0.0-19.0-3.8","63f7eb4fd0c75f760998818c","bdp_trlrn","Tue Mar 14 2023 18:24:47 GMT-0700 (Pacific Daylight Time)","969779","Trustworthy,Untrustworthy","","null","","","","feedback","","<div class='trialDiv'><img src='trustrating_stim/white_mw048.bmp'><br><font class='baseline'><strong>Joseph</strong><p>Received: <strong>4</strong></font> &nbsp; &nbsp; &nbsp; &nbsp; &nbsp; &nbsp;<font class='negOutcome'>Shared back: <strong>0</strong></font></font><div class='respPicDiv'><img src='img/responseButtonOffersNo0_wht.png' class='respPic'></div></div>","null","3","Joseph","6","Kept","0.2,0.8","9","0.2","trustrating_stim/white_mw048.bmp","4.5","35","9"
"html-keyboard-response","164","530647","0.0-19.0-1.9","63f7eb4fd0c75f760998818c","bdp_trlrn","Tue Mar 14 2023 18:24:47 GMT-0700 (Pacific Daylight Time)","969779","Trustworthy,Untrustworthy","","4070","","","","decision","","<div class='trialDiv'><img src='trustrating_stim/white_00120_931230_fa_edt.bmp'><br><font class='baseline'><strong>James</strong><p>Choose number of points to send.</font><div class='respPicDiv'><img src='img/responseButtonOffersNo0L.png' class='respPic'></div></div>","5","4","James","1","Shared","0.2,0.65","13","0.2","trustrating_stim/white_00120_931230_fa_edt.bmp","2","40","10"
"html-keyboard-response","165","530917","0.0-19.0-2.9","63f7eb4fd0c75f760998818c","bdp_trlrn","Tue Mar 14 2023 18:24:47 GMT-0700 (Pacific Daylight Time)","969779","Trustworthy,Untrustworthy","","null","","","","decisionFB","","<div class='trialDiv'><img src='trustrating_stim/white_00120_931230_fa_edt.bmp'><br><font class='baseline'><strong>James</strong><p>Choose number of points to send.</font><div class='respPicDiv'><img src='img/responseButtonOffersNo0L5.png' class='respPic'></div></div>","null","4","James","1","Shared","0.2,0.65","13","0.2","trustrating_stim/white_00120_931230_fa_edt.bmp","2","35","10"
"html-keyboard-response","166","531927","0.0-19.0-3.9","63f7eb4fd0c75f760998818c","bdp_trlrn","Tue Mar 14 2023 18:24:47 GMT-0700 (Pacific Daylight Time)","969779","Trustworthy,Untrustworthy","","null","","","","feedback","","<div class='trialDiv'><img src='trustrating_stim/white_00120_931230_fa_edt.bmp'><br><font class='baseline'><strong>James</strong><p>Received: <strong>20</strong></font> &nbsp; &nbsp; &nbsp; &nbsp; &nbsp; &nbsp;<font class='posOutcome'>Shared back: <strong>10</strong></font></font><div class='respPicDiv'><img src='img/responseButtonOffersNo0_wht.png' class='respPic'></div></div>","null","4","James","1","Shared","0.2,0.65","13","0.2","trustrating_stim/white_00120_931230_fa_edt.bmp","2","45","10"
"html-keyboard-response","167","533987","0.0-19.0-1.10","63f7eb4fd0c75f760998818c","bdp_trlrn","Tue Mar 14 2023 18:24:47 GMT-0700 (Pacific Daylight Time)","969779","Trustworthy,Untrustworthy","","2058","","","","decision","","<div class='trialDiv'><img src='trustrating_stim/white_mw048.bmp'><br><font class='baseline'><strong>Joseph</strong><p>Choose number of points to send.</font><div class='respPicDiv'><img src='img/responseButtonOffersNo0L.png' class='respPic'></div></div>","1","4","Joseph","6","Shared","0.2,0.8","9","0.2","trustrating_stim/white_mw048.bmp","4.5","50","11"
"html-keyboard-response","168","534251","0.0-19.0-2.10","63f7eb4fd0c75f760998818c","bdp_trlrn","Tue Mar 14 2023 18:24:47 GMT-0700 (Pacific Daylight Time)","969779","Trustworthy,Untrustworthy","","null","","","","decisionFB","","<div class='trialDiv'><img src='trustrating_stim/white_mw048.bmp'><br><font class='baseline'><strong>Joseph</strong><p>Choose number of points to send.</font><div class='respPicDiv'><img src='img/responseButtonOffersNo0L1.png' class='respPic'></div></div>","null","4","Joseph","6","Shared","0.2,0.8","9","0.2","trustrating_stim/white_mw048.bmp","4.5","49","11"
"html-keyboard-response","169","535257","0.0-19.0-3.10","63f7eb4fd0c75f760998818c","bdp_trlrn","Tue Mar 14 2023 18:24:47 GMT-0700 (Pacific Daylight Time)","969779","Trustworthy,Untrustworthy","","null","","","","feedback","","<div class='trialDiv'><img src='trustrating_stim/white_mw048.bmp'><br><font class='baseline'><strong>Joseph</strong><p>Received: <strong>4</strong></font> &nbsp; &nbsp; &nbsp; &nbsp; &nbsp; &nbsp;<font class='posOutcome'>Shared back: <strong>2</strong></font></font><div class='respPicDiv'><img src='img/responseButtonOffersNo0_wht.png' class='respPic'></div></div>","null","4","Joseph","6","Shared","0.2,0.8","9","0.2","trustrating_stim/white_mw048.bmp","4.5","51","11"
"html-keyboard-response","170","536955","0.0-19.0-1.11","63f7eb4fd0c75f760998818c","bdp_trlrn","Tue Mar 14 2023 18:24:47 GMT-0700 (Pacific Daylight Time)","969779","Trustworthy,Untrustworthy","","1695","","","","decision","","<div class='trialDiv'><img src='trustrating_stim/white_mw089.bmp'><br><font class='baseline'><strong>Jordan</strong><p>Choose number of points to send.</font><div class='respPicDiv'><img src='img/responseButtonOffersNo0L.png' class='respPic'></div></div>","1","4","Jordan","10","Shared","0.8,0.35","12","0.8","trustrating_stim/white_mw089.bmp","7","56","12"
"html-keyboard-response","171","537223","0.0-19.0-2.11","63f7eb4fd0c75f760998818c","bdp_trlrn","Tue Mar 14 2023 18:24:47 GMT-0700 (Pacific Daylight Time)","969779","Trustworthy,Untrustworthy","","null","","","","decisionFB","","<div class='trialDiv'><img src='trustrating_stim/white_mw089.bmp'><br><font class='baseline'><strong>Jordan</strong><p>Choose number of points to send.</font><div class='respPicDiv'><img src='img/responseButtonOffersNo0L1.png' class='respPic'></div></div>","null","4","Jordan","10","Shared","0.8,0.35","12","0.8","trustrating_stim/white_mw089.bmp","7","55","12"
"html-keyboard-response","172","538233","0.0-19.0-3.11","63f7eb4fd0c75f760998818c","bdp_trlrn","Tue Mar 14 2023 18:24:47 GMT-0700 (Pacific Daylight Time)","969779","Trustworthy,Untrustworthy","","null","","","","feedback","","<div class='trialDiv'><img src='trustrating_stim/white_mw089.bmp'><br><font class='baseline'><strong>Jordan</strong><p>Received: <strong>4</strong></font> &nbsp; &nbsp; &nbsp; &nbsp; &nbsp; &nbsp;<font class='posOutcome'>Shared back: <strong>2</strong></font></font><div class='respPicDiv'><img src='img/responseButtonOffersNo0_wht.png' class='respPic'></div></div>","null","4","Jordan","10","Shared","0.8,0.35","12","0.8","trustrating_stim/white_mw089.bmp","7","57","12"
"html-keyboard-response","173","539219","0.0-19.0-1.12","63f7eb4fd0c75f760998818c","bdp_trlrn","Tue Mar 14 2023 18:24:47 GMT-0700 (Pacific Daylight Time)","969779","Trustworthy,Untrustworthy","","983","","","","decision","","<div class='trialDiv'><img src='trustrating_stim/white_00120_931230_fa_edt.bmp'><br><font class='baseline'><strong>James</strong><p>Choose number of points to send.</font><div class='respPicDiv'><img src='img/responseButtonOffersNo0L.png' class='respPic'></div></div>","1","5","James","1","Kept","0.2,0.65","13","0.2","trustrating_stim/white_00120_931230_fa_edt.bmp","2","62","13"
"html-keyboard-response","174","539483","0.0-19.0-2.12","63f7eb4fd0c75f760998818c","bdp_trlrn","Tue Mar 14 2023 18:24:47 GMT-0700 (Pacific Daylight Time)","969779","Trustworthy,Untrustworthy","","null","","","","decisionFB","","<div class='trialDiv'><img src='trustrating_stim/white_00120_931230_fa_edt.bmp'><br><font class='baseline'><strong>James</strong><p>Choose number of points to send.</font><div class='respPicDiv'><img src='img/responseButtonOffersNo0L1.png' class='respPic'></div></div>","null","5","James","1","Kept","0.2,0.65","13","0.2","trustrating_stim/white_00120_931230_fa_edt.bmp","2","61","13"
"html-keyboard-response","175","540499","0.0-19.0-3.12","63f7eb4fd0c75f760998818c","bdp_trlrn","Tue Mar 14 2023 18:24:47 GMT-0700 (Pacific Daylight Time)","969779","Trustworthy,Untrustworthy","","null","","","","feedback","","<div class='trialDiv'><img src='trustrating_stim/white_00120_931230_fa_edt.bmp'><br><font class='baseline'><strong>James</strong><p>Received: <strong>4</strong></font> &nbsp; &nbsp; &nbsp; &nbsp; &nbsp; &nbsp;<font class='negOutcome'>Shared back: <strong>0</strong></font></font><div class='respPicDiv'><img src='img/responseButtonOffersNo0_wht.png' class='respPic'></div></div>","null","5","James","1","Kept","0.2,0.65","13","0.2","trustrating_stim/white_00120_931230_fa_edt.bmp","2","61","13"
"html-keyboard-response","176","544443","0.0-19.0-1.13","63f7eb4fd0c75f760998818c","bdp_trlrn","Tue Mar 14 2023 18:24:47 GMT-0700 (Pacific Daylight Time)","969779","Trustworthy,Untrustworthy","","3942","","","","decision","","<div class='trialDiv'><img src='trustrating_stim/white_mw048.bmp'><br><font class='baseline'><strong>Joseph</strong><p>Choose number of points to send.</font><div class='respPicDiv'><img src='img/responseButtonOffersNo0L.png' class='respPic'></div></div>","2","5","Joseph","6","Kept","0.2,0.8","9","0.2","trustrating_stim/white_mw048.bmp","4.5","66","14"
"html-keyboard-response","177","544709","0.0-19.0-2.13","63f7eb4fd0c75f760998818c","bdp_trlrn","Tue Mar 14 2023 18:24:47 GMT-0700 (Pacific Daylight Time)","969779","Trustworthy,Untrustworthy","","null","","","","decisionFB","","<div class='trialDiv'><img src='trustrating_stim/white_mw048.bmp'><br><font class='baseline'><strong>Joseph</strong><p>Choose number of points to send.</font><div class='respPicDiv'><img src='img/responseButtonOffersNo0L2.png' class='respPic'></div></div>","null","5","Joseph","6","Kept","0.2,0.8","9","0.2","trustrating_stim/white_mw048.bmp","4.5","64","14"
"html-keyboard-response","178","545723","0.0-19.0-3.13","63f7eb4fd0c75f760998818c","bdp_trlrn","Tue Mar 14 2023 18:24:47 GMT-0700 (Pacific Daylight Time)","969779","Trustworthy,Untrustworthy","","null","","","","feedback","","<div class='trialDiv'><img src='trustrating_stim/white_mw048.bmp'><br><font class='baseline'><strong>Joseph</strong><p>Received: <strong>8</strong></font> &nbsp; &nbsp; &nbsp; &nbsp; &nbsp; &nbsp;<font class='negOutcome'>Shared back: <strong>0</strong></font></font><div class='respPicDiv'><img src='img/responseButtonOffersNo0_wht.png' class='respPic'></div></div>","null","5","Joseph","6","Kept","0.2,0.8","9","0.2","trustrating_stim/white_mw048.bmp","4.5","64","14"
"html-keyboard-response","179","548361","0.0-19.0-1.14","63f7eb4fd0c75f760998818c","bdp_trlrn","Tue Mar 14 2023 18:24:47 GMT-0700 (Pacific Daylight Time)","969779","Trustworthy,Untrustworthy","","2636","","","","decision","","<div class='trialDiv'><img src='trustrating_stim/white_mw089.bmp'><br><font class='baseline'><strong>Jordan</strong><p>Choose number of points to send.</font><div class='respPicDiv'><img src='img/responseButtonOffersNo0L.png' class='respPic'></div></div>","5","5","Jordan","10","Shared","0.8,0.35","12","0.8","trustrating_stim/white_mw089.bmp","7","69","15"
"html-keyboard-response","180","548629","0.0-19.0-2.14","63f7eb4fd0c75f760998818c","bdp_trlrn","Tue Mar 14 2023 18:24:47 GMT-0700 (Pacific Daylight Time)","969779","Trustworthy,Untrustworthy","","null","","","","decisionFB","","<div class='trialDiv'><img src='trustrating_stim/white_mw089.bmp'><br><font class='baseline'><strong>Jordan</strong><p>Choose number of points to send.</font><div class='respPicDiv'><img src='img/responseButtonOffersNo0L5.png' class='respPic'></div></div>","null","5","Jordan","10","Shared","0.8,0.35","12","0.8","trustrating_stim/white_mw089.bmp","7","64","15"
"html-keyboard-response","181","549640","0.0-19.0-3.14","63f7eb4fd0c75f760998818c","bdp_trlrn","Tue Mar 14 2023 18:24:47 GMT-0700 (Pacific Daylight Time)","969779","Trustworthy,Untrustworthy","","null","","","","feedback","","<div class='trialDiv'><img src='trustrating_stim/white_mw089.bmp'><br><font class='baseline'><strong>Jordan</strong><p>Received: <strong>20</strong></font> &nbsp; &nbsp; &nbsp; &nbsp; &nbsp; &nbsp;<font class='posOutcome'>Shared back: <strong>10</strong></font></font><div class='respPicDiv'><img src='img/responseButtonOffersNo0_wht.png' class='respPic'></div></div>","null","5","Jordan","10","Shared","0.8,0.35","12","0.8","trustrating_stim/white_mw089.bmp","7","74","15"
"html-keyboard-response","182","554178","0.0-19.0-1.15","63f7eb4fd0c75f760998818c","bdp_trlrn","Tue Mar 14 2023 18:24:47 GMT-0700 (Pacific Daylight Time)","969779","Trustworthy,Untrustworthy","","4537","","","","decision","","<div class='trialDiv'><img src='trustrating_stim/white_mw048.bmp'><br><font class='baseline'><strong>Joseph</strong><p>Choose number of points to send.</font><div class='respPicDiv'><img src='img/responseButtonOffersNo0L.png' class='respPic'></div></div>","2","6","Joseph","6","Shared","0.2,0.8","9","0.2","trustrating_stim/white_mw048.bmp","4.5","79","16"
"html-keyboard-response","183","554440","0.0-19.0-2.15","63f7eb4fd0c75f760998818c","bdp_trlrn","Tue Mar 14 2023 18:24:47 GMT-0700 (Pacific Daylight Time)","969779","Trustworthy,Untrustworthy","","null","","","","decisionFB","","<div class='trialDiv'><img src='trustrating_stim/white_mw048.bmp'><br><font class='baseline'><strong>Joseph</strong><p>Choose number of points to send.</font><div class='respPicDiv'><img src='img/responseButtonOffersNo0L2.png' class='respPic'></div></div>","null","6","Joseph","6","Shared","0.2,0.8","9","0.2","trustrating_stim/white_mw048.bmp","4.5","77","16"
"html-keyboard-response","184","555449","0.0-19.0-3.15","63f7eb4fd0c75f760998818c","bdp_trlrn","Tue Mar 14 2023 18:24:47 GMT-0700 (Pacific Daylight Time)","969779","Trustworthy,Untrustworthy","","null","","","","feedback","","<div class='trialDiv'><img src='trustrating_stim/white_mw048.bmp'><br><font class='baseline'><strong>Joseph</strong><p>Received: <strong>8</strong></font> &nbsp; &nbsp; &nbsp; &nbsp; &nbsp; &nbsp;<font class='posOutcome'>Shared back: <strong>4</strong></font></font><div class='respPicDiv'><img src='img/responseButtonOffersNo0_wht.png' class='respPic'></div></div>","null","6","Joseph","6","Shared","0.2,0.8","9","0.2","trustrating_stim/white_mw048.bmp","4.5","81","16"
"html-keyboard-response","185","558014","0.0-19.0-1.16","63f7eb4fd0c75f760998818c","bdp_trlrn","Tue Mar 14 2023 18:24:47 GMT-0700 (Pacific Daylight Time)","969779","Trustworthy,Untrustworthy","","2564","","","","decision","","<div class='trialDiv'><img src='trustrating_stim/white_mw089.bmp'><br><font class='baseline'><strong>Jordan</strong><p>Choose number of points to send.</font><div class='respPicDiv'><img src='img/responseButtonOffersNo0L.png' class='respPic'></div></div>","5","6","Jordan","10","Kept","0.8,0.35","12","0.8","trustrating_stim/white_mw089.bmp","7","86","17"
"html-keyboard-response","186","558274","0.0-19.0-2.16","63f7eb4fd0c75f760998818c","bdp_trlrn","Tue Mar 14 2023 18:24:47 GMT-0700 (Pacific Daylight Time)","969779","Trustworthy,Untrustworthy","","null","","","","decisionFB","","<div class='trialDiv'><img src='trustrating_stim/white_mw089.bmp'><br><font class='baseline'><strong>Jordan</strong><p>Choose number of points to send.</font><div class='respPicDiv'><img src='img/responseButtonOffersNo0L5.png' class='respPic'></div></div>","null","6","Jordan","10","Kept","0.8,0.35","12","0.8","trustrating_stim/white_mw089.bmp","7","81","17"
"html-keyboard-response","187","559276","0.0-19.0-3.16","63f7eb4fd0c75f760998818c","bdp_trlrn","Tue Mar 14 2023 18:24:47 GMT-0700 (Pacific Daylight Time)","969779","Trustworthy,Untrustworthy","","null","","","","feedback","","<div class='trialDiv'><img src='trustrating_stim/white_mw089.bmp'><br><font class='baseline'><strong>Jordan</strong><p>Received: <strong>20</strong></font> &nbsp; &nbsp; &nbsp; &nbsp; &nbsp; &nbsp;<font class='negOutcome'>Shared back: <strong>0</strong></font></font><div class='respPicDiv'><img src='img/responseButtonOffersNo0_wht.png' class='respPic'></div></div>","null","6","Jordan","10","Kept","0.8,0.35","12","0.8","trustrating_stim/white_mw089.bmp","7","81","17"
"html-keyboard-response","188","563187","0.0-19.0-1.17","63f7eb4fd0c75f760998818c","bdp_trlrn","Tue Mar 14 2023 18:24:47 GMT-0700 (Pacific Daylight Time)","969779","Trustworthy,Untrustworthy","","3908","","","","decision","","<div class='trialDiv'><img src='trustrating_stim/white_00120_931230_fa_edt.bmp'><br><font class='baseline'><strong>James</strong><p>Choose number of points to send.</font><div class='respPicDiv'><img src='img/responseButtonOffersNo0L.png' class='respPic'></div></div>","1","6","James","1","Kept","0.2,0.65","13","0.2","trustrating_stim/white_00120_931230_fa_edt.bmp","2","86","18"
"html-keyboard-response","189","563454","0.0-19.0-2.17","63f7eb4fd0c75f760998818c","bdp_trlrn","Tue Mar 14 2023 18:24:47 GMT-0700 (Pacific Daylight Time)","969779","Trustworthy,Untrustworthy","","null","","","","decisionFB","","<div class='trialDiv'><img src='trustrating_stim/white_00120_931230_fa_edt.bmp'><br><font class='baseline'><strong>James</strong><p>Choose number of points to send.</font><div class='respPicDiv'><img src='img/responseButtonOffersNo0L1.png' class='respPic'></div></div>","null","6","James","1","Kept","0.2,0.65","13","0.2","trustrating_stim/white_00120_931230_fa_edt.bmp","2","85","18"
"html-keyboard-response","190","564458","0.0-19.0-3.17","63f7eb4fd0c75f760998818c","bdp_trlrn","Tue Mar 14 2023 18:24:47 GMT-0700 (Pacific Daylight Time)","969779","Trustworthy,Untrustworthy","","null","","","","feedback","","<div class='trialDiv'><img src='trustrating_stim/white_00120_931230_fa_edt.bmp'><br><font class='baseline'><strong>James</strong><p>Received: <strong>4</strong></font> &nbsp; &nbsp; &nbsp; &nbsp; &nbsp; &nbsp;<font class='negOutcome'>Shared back: <strong>0</strong></font></font><div class='respPicDiv'><img src='img/responseButtonOffersNo0_wht.png' class='respPic'></div></div>","null","6","James","1","Kept","0.2,0.65","13","0.2","trustrating_stim/white_00120_931230_fa_edt.bmp","2","85","18"
"html-keyboard-response","191","568669","0.0-19.0-1.18","63f7eb4fd0c75f760998818c","bdp_trlrn","Tue Mar 14 2023 18:24:47 GMT-0700 (Pacific Daylight Time)","969779","Trustworthy,Untrustworthy","","4209","","","","decision","","<div class='trialDiv'><img src='trustrating_stim/white_mw089.bmp'><br><font class='baseline'><strong>Jordan</strong><p>Choose number of points to send.</font><div class='respPicDiv'><img src='img/responseButtonOffersNo0L.png' class='respPic'></div></div>","3","7","Jordan","10","Shared","0.8,0.35","12","0.8","trustrating_stim/white_mw089.bmp","7","90","19"
"html-keyboard-response","192","568935","0.0-19.0-2.18","63f7eb4fd0c75f760998818c","bdp_trlrn","Tue Mar 14 2023 18:24:47 GMT-0700 (Pacific Daylight Time)","969779","Trustworthy,Untrustworthy","","null","","","","decisionFB","","<div class='trialDiv'><img src='trustrating_stim/white_mw089.bmp'><br><font class='baseline'><strong>Jordan</strong><p>Choose number of points to send.</font><div class='respPicDiv'><img src='img/responseButtonOffersNo0L3.png' class='respPic'></div></div>","null","7","Jordan","10","Shared","0.8,0.35","12","0.8","trustrating_stim/white_mw089.bmp","7","87","19"
"html-keyboard-response","193","569948","0.0-19.0-3.18","63f7eb4fd0c75f760998818c","bdp_trlrn","Tue Mar 14 2023 18:24:47 GMT-0700 (Pacific Daylight Time)","969779","Trustworthy,Untrustworthy","","null","","","","feedback","","<div class='trialDiv'><img src='trustrating_stim/white_mw089.bmp'><br><font class='baseline'><strong>Jordan</strong><p>Received: <strong>12</strong></font> &nbsp; &nbsp; &nbsp; &nbsp; &nbsp; &nbsp;<font class='posOutcome'>Shared back: <strong>6</strong></font></font><div class='respPicDiv'><img src='img/responseButtonOffersNo0_wht.png' class='respPic'></div></div>","null","7","Jordan","10","Shared","0.8,0.35","12","0.8","trustrating_stim/white_mw089.bmp","7","93","19"
"html-keyboard-response","194","571287","0.0-19.0-1.19","63f7eb4fd0c75f760998818c","bdp_trlrn","Tue Mar 14 2023 18:24:47 GMT-0700 (Pacific Daylight Time)","969779","Trustworthy,Untrustworthy","","1336","","","","decision","","<div class='trialDiv'><img src='trustrating_stim/white_mw048.bmp'><br><font class='baseline'><strong>Joseph</strong><p>Choose number of points to send.</font><div class='respPicDiv'><img src='img/responseButtonOffersNo0L.png' class='respPic'></div></div>","2","7","Joseph","6","Shared","0.2,0.8","9","0.2","trustrating_stim/white_mw048.bmp","4.5","98","20"
"html-keyboard-response","195","571549","0.0-19.0-2.19","63f7eb4fd0c75f760998818c","bdp_trlrn","Tue Mar 14 2023 18:24:47 GMT-0700 (Pacific Daylight Time)","969779","Trustworthy,Untrustworthy","","null","","","","decisionFB","","<div class='trialDiv'><img src='trustrating_stim/white_mw048.bmp'><br><font class='baseline'><strong>Joseph</strong><p>Choose number of points to send.</font><div class='respPicDiv'><img src='img/responseButtonOffersNo0L2.png' class='respPic'></div></div>","null","7","Joseph","6","Shared","0.2,0.8","9","0.2","trustrating_stim/white_mw048.bmp","4.5","96","20"
"html-keyboard-response","196","572558","0.0-19.0-3.19","63f7eb4fd0c75f760998818c","bdp_trlrn","Tue Mar 14 2023 18:24:47 GMT-0700 (Pacific Daylight Time)","969779","Trustworthy,Untrustworthy","","null","","","","feedback","","<div class='trialDiv'><img src='trustrating_stim/white_mw048.bmp'><br><font class='baseline'><strong>Joseph</strong><p>Received: <strong>8</strong></font> &nbsp; &nbsp; &nbsp; &nbsp; &nbsp; &nbsp;<font class='posOutcome'>Shared back: <strong>4</strong></font></font><div class='respPicDiv'><img src='img/responseButtonOffersNo0_wht.png' class='respPic'></div></div>","null","7","Joseph","6","Shared","0.2,0.8","9","0.2","trustrating_stim/white_mw048.bmp","4.5","100","20"
"html-keyboard-response","197","573468","0.0-19.0-1.20","63f7eb4fd0c75f760998818c","bdp_trlrn","Tue Mar 14 2023 18:24:47 GMT-0700 (Pacific Daylight Time)","969779","Trustworthy,Untrustworthy","","909","","","","decision","","<div class='trialDiv'><img src='trustrating_stim/white_00120_931230_fa_edt.bmp'><br><font class='baseline'><strong>James</strong><p>Choose number of points to send.</font><div class='respPicDiv'><img src='img/responseButtonOffersNo0L.png' class='respPic'></div></div>","1","7","James","1","Kept","0.2,0.65","13","0.2","trustrating_stim/white_00120_931230_fa_edt.bmp","2","105","21"
"html-keyboard-response","198","573720","0.0-19.0-2.20","63f7eb4fd0c75f760998818c","bdp_trlrn","Tue Mar 14 2023 18:24:47 GMT-0700 (Pacific Daylight Time)","969779","Trustworthy,Untrustworthy","","null","","","","decisionFB","","<div class='trialDiv'><img src='trustrating_stim/white_00120_931230_fa_edt.bmp'><br><font class='baseline'><strong>James</strong><p>Choose number of points to send.</font><div class='respPicDiv'><img src='img/responseButtonOffersNo0L1.png' class='respPic'></div></div>","null","7","James","1","Kept","0.2,0.65","13","0.2","trustrating_stim/white_00120_931230_fa_edt.bmp","2","104","21"
"html-keyboard-response","199","574735","0.0-19.0-3.20","63f7eb4fd0c75f760998818c","bdp_trlrn","Tue Mar 14 2023 18:24:47 GMT-0700 (Pacific Daylight Time)","969779","Trustworthy,Untrustworthy","","null","","","","feedback","","<div class='trialDiv'><img src='trustrating_stim/white_00120_931230_fa_edt.bmp'><br><font class='baseline'><strong>James</strong><p>Received: <strong>4</strong></font> &nbsp; &nbsp; &nbsp; &nbsp; &nbsp; &nbsp;<font class='negOutcome'>Shared back: <strong>0</strong></font></font><div class='respPicDiv'><img src='img/responseButtonOffersNo0_wht.png' class='respPic'></div></div>","null","7","James","1","Kept","0.2,0.65","13","0.2","trustrating_stim/white_00120_931230_fa_edt.bmp","2","104","21"
"html-keyboard-response","200","575714","0.0-19.0-1.21","63f7eb4fd0c75f760998818c","bdp_trlrn","Tue Mar 14 2023 18:24:47 GMT-0700 (Pacific Daylight Time)","969779","Trustworthy,Untrustworthy","","977","","","","decision","","<div class='trialDiv'><img src='trustrating_stim/white_mw089.bmp'><br><font class='baseline'><strong>Jordan</strong><p>Choose number of points to send.</font><div class='respPicDiv'><img src='img/responseButtonOffersNo0L.png' class='respPic'></div></div>","3","8","Jordan","10","Shared","0.8,0.35","12","0.8","trustrating_stim/white_mw089.bmp","7","109","22"
"html-keyboard-response","201","575971","0.0-19.0-2.21","63f7eb4fd0c75f760998818c","bdp_trlrn","Tue Mar 14 2023 18:24:47 GMT-0700 (Pacific Daylight Time)","969779","Trustworthy,Untrustworthy","","null","","","","decisionFB","","<div class='trialDiv'><img src='trustrating_stim/white_mw089.bmp'><br><font class='baseline'><strong>Jordan</strong><p>Choose number of points to send.</font><div class='respPicDiv'><img src='img/responseButtonOffersNo0L3.png' class='respPic'></div></div>","null","8","Jordan","10","Shared","0.8,0.35","12","0.8","trustrating_stim/white_mw089.bmp","7","106","22"
"html-keyboard-response","202","576976","0.0-19.0-3.21","63f7eb4fd0c75f760998818c","bdp_trlrn","Tue Mar 14 2023 18:24:47 GMT-0700 (Pacific Daylight Time)","969779","Trustworthy,Untrustworthy","","null","","","","feedback","","<div class='trialDiv'><img src='trustrating_stim/white_mw089.bmp'><br><font class='baseline'><strong>Jordan</strong><p>Received: <strong>12</strong></font> &nbsp; &nbsp; &nbsp; &nbsp; &nbsp; &nbsp;<font class='posOutcome'>Shared back: <strong>6</strong></font></font><div class='respPicDiv'><img src='img/responseButtonOffersNo0_wht.png' class='respPic'></div></div>","null","8","Jordan","10","Shared","0.8,0.35","12","0.8","trustrating_stim/white_mw089.bmp","7","112","22"
"html-keyboard-response","203","579304","0.0-19.0-1.22","63f7eb4fd0c75f760998818c","bdp_trlrn","Tue Mar 14 2023 18:24:47 GMT-0700 (Pacific Daylight Time)","969779","Trustworthy,Untrustworthy","","2327","","","","decision","","<div class='trialDiv'><img src='trustrating_stim/white_mw048.bmp'><br><font class='baseline'><strong>Joseph</strong><p>Choose number of points to send.</font><div class='respPicDiv'><img src='img/responseButtonOffersNo0L.png' class='respPic'></div></div>","2","8","Joseph","6","Kept","0.2,0.8","9","0.2","trustrating_stim/white_mw048.bmp","4.5","117","23"
"html-keyboard-response","204","579569","0.0-19.0-2.22","63f7eb4fd0c75f760998818c","bdp_trlrn","Tue Mar 14 2023 18:24:47 GMT-0700 (Pacific Daylight Time)","969779","Trustworthy,Untrustworthy","","null","","","","decisionFB","","<div class='trialDiv'><img src='trustrating_stim/white_mw048.bmp'><br><font class='baseline'><strong>Joseph</strong><p>Choose number of points to send.</font><div class='respPicDiv'><img src='img/responseButtonOffersNo0L2.png' class='respPic'></div></div>","null","8","Joseph","6","Kept","0.2,0.8","9","0.2","trustrating_stim/white_mw048.bmp","4.5","115","23"
"html-keyboard-response","205","580576","0.0-19.0-3.22","63f7eb4fd0c75f760998818c","bdp_trlrn","Tue Mar 14 2023 18:24:47 GMT-0700 (Pacific Daylight Time)","969779","Trustworthy,Untrustworthy","","null","","","","feedback","","<div class='trialDiv'><img src='trustrating_stim/white_mw048.bmp'><br><font class='baseline'><strong>Joseph</strong><p>Received: <strong>8</strong></font> &nbsp; &nbsp; &nbsp; &nbsp; &nbsp; &nbsp;<font class='negOutcome'>Shared back: <strong>0</strong></font></font><div class='respPicDiv'><img src='img/responseButtonOffersNo0_wht.png' class='respPic'></div></div>","null","8","Joseph","6","Kept","0.2,0.8","9","0.2","trustrating_stim/white_mw048.bmp","4.5","115","23"
"html-keyboard-response","206","581598","0.0-19.0-1.23","63f7eb4fd0c75f760998818c","bdp_trlrn","Tue Mar 14 2023 18:24:47 GMT-0700 (Pacific Daylight Time)","969779","Trustworthy,Untrustworthy","","1019","","","","decision","","<div class='trialDiv'><img src='trustrating_stim/white_00120_931230_fa_edt.bmp'><br><font class='baseline'><strong>James</strong><p>Choose number of points to send.</font><div class='respPicDiv'><img src='img/responseButtonOffersNo0L.png' class='respPic'></div></div>","1","8","James","1","Kept","0.2,0.65","13","0.2","trustrating_stim/white_00120_931230_fa_edt.bmp","2","120","24"
"html-keyboard-response","207","581852","0.0-19.0-2.23","63f7eb4fd0c75f760998818c","bdp_trlrn","Tue Mar 14 2023 18:24:47 GMT-0700 (Pacific Daylight Time)","969779","Trustworthy,Untrustworthy","","null","","","","decisionFB","","<div class='trialDiv'><img src='trustrating_stim/white_00120_931230_fa_edt.bmp'><br><font class='baseline'><strong>James</strong><p>Choose number of points to send.</font><div class='respPicDiv'><img src='img/responseButtonOffersNo0L1.png' class='respPic'></div></div>","null","8","James","1","Kept","0.2,0.65","13","0.2","trustrating_stim/white_00120_931230_fa_edt.bmp","2","119","24"
"html-keyboard-response","208","582858","0.0-19.0-3.23","63f7eb4fd0c75f760998818c","bdp_trlrn","Tue Mar 14 2023 18:24:47 GMT-0700 (Pacific Daylight Time)","969779","Trustworthy,Untrustworthy","","null","","","","feedback","","<div class='trialDiv'><img src='trustrating_stim/white_00120_931230_fa_edt.bmp'><br><font class='baseline'><strong>James</strong><p>Received: <strong>4</strong></font> &nbsp; &nbsp; &nbsp; &nbsp; &nbsp; &nbsp;<font class='negOutcome'>Shared back: <strong>0</strong></font></font><div class='respPicDiv'><img src='img/responseButtonOffersNo0_wht.png' class='respPic'></div></div>","null","8","James","1","Kept","0.2,0.65","13","0.2","trustrating_stim/white_00120_931230_fa_edt.bmp","2","119","24"
"html-keyboard-response","209","583935","0.0-19.0-1.24","63f7eb4fd0c75f760998818c","bdp_trlrn","Tue Mar 14 2023 18:24:47 GMT-0700 (Pacific Daylight Time)","969779","Trustworthy,Untrustworthy","","1075","","","","decision","","<div class='trialDiv'><img src='trustrating_stim/white_mw089.bmp'><br><font class='baseline'><strong>Jordan</strong><p>Choose number of points to send.</font><div class='respPicDiv'><img src='img/responseButtonOffersNo0L.png' class='respPic'></div></div>","3","9","Jordan","10","Kept","0.8,0.35","12","0.8","trustrating_stim/white_mw089.bmp","7","124","25"
"html-keyboard-response","210","584200","0.0-19.0-2.24","63f7eb4fd0c75f760998818c","bdp_trlrn","Tue Mar 14 2023 18:24:47 GMT-0700 (Pacific Daylight Time)","969779","Trustworthy,Untrustworthy","","null","","","","decisionFB","","<div class='trialDiv'><img src='trustrating_stim/white_mw089.bmp'><br><font class='baseline'><strong>Jordan</strong><p>Choose number of points to send.</font><div class='respPicDiv'><img src='img/responseButtonOffersNo0L3.png' class='respPic'></div></div>","null","9","Jordan","10","Kept","0.8,0.35","12","0.8","trustrating_stim/white_mw089.bmp","7","121","25"
"html-keyboard-response","211","585204","0.0-19.0-3.24","63f7eb4fd0c75f760998818c","bdp_trlrn","Tue Mar 14 2023 18:24:47 GMT-0700 (Pacific Daylight Time)","969779","Trustworthy,Untrustworthy","","null","","","","feedback","","<div class='trialDiv'><img src='trustrating_stim/white_mw089.bmp'><br><font class='baseline'><strong>Jordan</strong><p>Received: <strong>12</strong></font> &nbsp; &nbsp; &nbsp; &nbsp; &nbsp; &nbsp;<font class='negOutcome'>Shared back: <strong>0</strong></font></font><div class='respPicDiv'><img src='img/responseButtonOffersNo0_wht.png' class='respPic'></div></div>","null","9","Jordan","10","Kept","0.8,0.35","12","0.8","trustrating_stim/white_mw089.bmp","7","121","25"
"html-keyboard-response","212","585743","0.0-19.0-1.25","63f7eb4fd0c75f760998818c","bdp_trlrn","Tue Mar 14 2023 18:24:47 GMT-0700 (Pacific Daylight Time)","969779","Trustworthy,Untrustworthy","","537","","","","decision","","<div class='trialDiv'><img src='trustrating_stim/white_mw048.bmp'><br><font class='baseline'><strong>Joseph</strong><p>Choose number of points to send.</font><div class='respPicDiv'><img src='img/responseButtonOffersNo0L.png' class='respPic'></div></div>","2","9","Joseph","6","Shared","0.2,0.8","9","0.2","trustrating_stim/white_mw048.bmp","4.5","126","26"
"html-keyboard-response","213","586006","0.0-19.0-2.25","63f7eb4fd0c75f760998818c","bdp_trlrn","Tue Mar 14 2023 18:24:47 GMT-0700 (Pacific Daylight Time)","969779","Trustworthy,Untrustworthy","","null","","","","decisionFB","","<div class='trialDiv'><img src='trustrating_stim/white_mw048.bmp'><br><font class='baseline'><strong>Joseph</strong><p>Choose number of points to send.</font><div class='respPicDiv'><img src='img/responseButtonOffersNo0L2.png' class='respPic'></div></div>","null","9","Joseph","6","Shared","0.2,0.8","9","0.2","trustrating_stim/white_mw048.bmp","4.5","124","26"
"html-keyboard-response","214","587009","0.0-19.0-3.25","63f7eb4fd0c75f760998818c","bdp_trlrn","Tue Mar 14 2023 18:24:47 GMT-0700 (Pacific Daylight Time)","969779","Trustworthy,Untrustworthy","","null","","","","feedback","","<div class='trialDiv'><img src='trustrating_stim/white_mw048.bmp'><br><font class='baseline'><strong>Joseph</strong><p>Received: <strong>8</strong></font> &nbsp; &nbsp; &nbsp; &nbsp; &nbsp; &nbsp;<font class='posOutcome'>Shared back: <strong>4</strong></font></font><div class='respPicDiv'><img src='img/responseButtonOffersNo0_wht.png' class='respPic'></div></div>","null","9","Joseph","6","Shared","0.2,0.8","9","0.2","trustrating_stim/white_mw048.bmp","4.5","128","26"
"html-keyboard-response","215","587661","0.0-19.0-1.26","63f7eb4fd0c75f760998818c","bdp_trlrn","Tue Mar 14 2023 18:24:47 GMT-0700 (Pacific Daylight Time)","969779","Trustworthy,Untrustworthy","","650","","","","decision","","<div class='trialDiv'><img src='trustrating_stim/white_00120_931230_fa_edt.bmp'><br><font class='baseline'><strong>James</strong><p>Choose number of points to send.</font><div class='respPicDiv'><img src='img/responseButtonOffersNo0L.png' class='respPic'></div></div>","1","9","James","1","Shared","0.2,0.65","13","0.2","trustrating_stim/white_00120_931230_fa_edt.bmp","2","133","27"
"html-keyboard-response","216","587927","0.0-19.0-2.26","63f7eb4fd0c75f760998818c","bdp_trlrn","Tue Mar 14 2023 18:24:47 GMT-0700 (Pacific Daylight Time)","969779","Trustworthy,Untrustworthy","","null","","","","decisionFB","","<div class='trialDiv'><img src='trustrating_stim/white_00120_931230_fa_edt.bmp'><br><font class='baseline'><strong>James</strong><p>Choose number of points to send.</font><div class='respPicDiv'><img src='img/responseButtonOffersNo0L1.png' class='respPic'></div></div>","null","9","James","1","Shared","0.2,0.65","13","0.2","trustrating_stim/white_00120_931230_fa_edt.bmp","2","132","27"
"html-keyboard-response","217","588942","0.0-19.0-3.26","63f7eb4fd0c75f760998818c","bdp_trlrn","Tue Mar 14 2023 18:24:47 GMT-0700 (Pacific Daylight Time)","969779","Trustworthy,Untrustworthy","","null","","","","feedback","","<div class='trialDiv'><img src='trustrating_stim/white_00120_931230_fa_edt.bmp'><br><font class='baseline'><strong>James</strong><p>Received: <strong>4</strong></font> &nbsp; &nbsp; &nbsp; &nbsp; &nbsp; &nbsp;<font class='posOutcome'>Shared back: <strong>2</strong></font></font><div class='respPicDiv'><img src='img/responseButtonOffersNo0_wht.png' class='respPic'></div></div>","null","9","James","1","Shared","0.2,0.65","13","0.2","trustrating_stim/white_00120_931230_fa_edt.bmp","2","134","27"
"html-keyboard-response","218","590407","0.0-19.0-1.27","63f7eb4fd0c75f760998818c","bdp_trlrn","Tue Mar 14 2023 18:24:47 GMT-0700 (Pacific Daylight Time)","969779","Trustworthy,Untrustworthy","","1463","","","","decision","","<div class='trialDiv'><img src='trustrating_stim/white_mw048.bmp'><br><font class='baseline'><strong>Joseph</strong><p>Choose number of points to send.</font><div class='respPicDiv'><img src='img/responseButtonOffersNo0L.png' class='respPic'></div></div>","2","10","Joseph","6","Kept","0.2,0.8","9","0.2","trustrating_stim/white_mw048.bmp","4.5","139","28"
"html-keyboard-response","219","590666","0.0-19.0-2.27","63f7eb4fd0c75f760998818c","bdp_trlrn","Tue Mar 14 2023 18:24:47 GMT-0700 (Pacific Daylight Time)","969779","Trustworthy,Untrustworthy","","null","","","","decisionFB","","<div class='trialDiv'><img src='trustrating_stim/white_mw048.bmp'><br><font class='baseline'><strong>Joseph</strong><p>Choose number of points to send.</font><div class='respPicDiv'><img src='img/responseButtonOffersNo0L2.png' class='respPic'></div></div>","null","10","Joseph","6","Kept","0.2,0.8","9","0.2","trustrating_stim/white_mw048.bmp","4.5","137","28"
"html-keyboard-response","220","591685","0.0-19.0-3.27","63f7eb4fd0c75f760998818c","bdp_trlrn","Tue Mar 14 2023 18:24:47 GMT-0700 (Pacific Daylight Time)","969779","Trustworthy,Untrustworthy","","null","","","","feedback","","<div class='trialDiv'><img src='trustrating_stim/white_mw048.bmp'><br><font class='baseline'><strong>Joseph</strong><p>Received: <strong>8</strong></font> &nbsp; &nbsp; &nbsp; &nbsp; &nbsp; &nbsp;<font class='negOutcome'>Shared back: <strong>0</strong></font></font><div class='respPicDiv'><img src='img/responseButtonOffersNo0_wht.png' class='respPic'></div></div>","null","10","Joseph","6","Kept","0.2,0.8","9","0.2","trustrating_stim/white_mw048.bmp","4.5","137","28"
"html-keyboard-response","221","592157","0.0-19.0-1.28","63f7eb4fd0c75f760998818c","bdp_trlrn","Tue Mar 14 2023 18:24:47 GMT-0700 (Pacific Daylight Time)","969779","Trustworthy,Untrustworthy","","470","","","","decision","","<div class='trialDiv'><img src='trustrating_stim/white_mw089.bmp'><br><font class='baseline'><strong>Jordan</strong><p>Choose number of points to send.</font><div class='respPicDiv'><img src='img/responseButtonOffersNo0L.png' class='respPic'></div></div>","3","10","Jordan","10","Shared","0.8,0.35","12","0.8","trustrating_stim/white_mw089.bmp","7","142","29"
