"event","trial","time","trialtype","subject_id","task","startTime","totalTime","labels","trial_type","trial_index","time_elapsed","internal_node_id","view_history","rt","success","stimulus","key_press","aground","name","face","outcome","agenttype","agentswpt","agentcurrpshare","point_total","round"
"focus","0","0","focusevent","dfghdfgh","bdp_trlrn","Tue Oct 05 2021 13:21:44 GMT-0400 (Eastern Daylight Time)","255085","Untrustworthy,Trustworthy","","","","","","","","","","","","","","","","","",""
"","","","","dfghdfgh","bdp_trlrn","Tue Oct 05 2021 13:21:44 GMT-0400 (Eastern Daylight Time)","255085","Untrustworthy,Trustworthy","pavlovia","0","1","0.0-0.0","","","","","","","","","","","","","",""
"","","","","dfghdfgh","bdp_trlrn","Tue Oct 05 2021 13:21:44 GMT-0400 (Eastern Daylight Time)","255085","Untrustworthy,Trustworthy","instructions","1","6498","0.0-1.0","[{""page_index"":0,""viewing_time"":6496}]","6496","","","","","","","","","","","",""
"fullscreenexit","2","43074","fullscreenexit","dfghdfgh","bdp_trlrn","Tue Oct 05 2021 13:21:44 GMT-0400 (Eastern Daylight Time)","255085","Untrustworthy,Trustworthy","","","","","","","","","","","","","","","","","",""
"","","","","dfghdfgh","bdp_trlrn","Tue Oct 05 2021 13:21:44 GMT-0400 (Eastern Daylight Time)","255085","Untrustworthy,Trustworthy","fullscreen","2","43860","0.0-2.0","","","true","","","","","","","","","","",""
"","","","fullscreenfail","dfghdfgh","bdp_trlrn","Tue Oct 05 2021 13:21:44 GMT-0400 (Eastern Daylight Time)","255085","Untrustworthy,Trustworthy","image-keyboard-response","3","44685","0.0-3.0-0.0","","824","","","32","","","","","","","","",""
"","","","","dfghdfgh","bdp_trlrn","Tue Oct 05 2021 13:21:44 GMT-0400 (Eastern Daylight Time)","255085","Untrustworthy,Trustworthy","instructions","4","50881","0.0-4.0","[{""page_index"":0,""viewing_time"":1833},{""page_index"":1,""viewing_time"":4111}]","5944","","","","","","","","","","","",""
"","","","","dfghdfgh","bdp_trlrn","Tue Oct 05 2021 13:21:44 GMT-0400 (Eastern Daylight Time)","255085","Untrustworthy,Trustworthy","instructions","5","52395","0.0-5.0","[{""page_index"":0,""viewing_time"":1513}]","1513","","","","","","","","","","","",""
"","","","rating","dfghdfgh","bdp_trlrn","Tue Oct 05 2021 13:21:44 GMT-0400 (Eastern Daylight Time)","255085","Untrustworthy,Trustworthy","image-keyboard-response","6","53863","0.0-6.0-1.0","","1366","","trustrating_stim/white_00807_941205_fb_edt.bmp","8","","","","","","","","",""
"","","","ratingFB","dfghdfgh","bdp_trlrn","Tue Oct 05 2021 13:21:44 GMT-0400 (Eastern Daylight Time)","255085","Untrustworthy,Trustworthy","image-keyboard-response","7","54064","0.0-6.0-2.0","","null","","trustrating_stim/white_00807_941205_fb_edt.bmp","null","","","","","","","","",""
"","","","rating","dfghdfgh","bdp_trlrn","Tue Oct 05 2021 13:21:44 GMT-0400 (Eastern Daylight Time)","255085","Untrustworthy,Trustworthy","image-keyboard-response","8","54557","0.0-6.0-1.1","","392","","trustrating_stim/white_mw084.bmp","3","","","","","","","","",""
"","","","ratingFB","dfghdfgh","bdp_trlrn","Tue Oct 05 2021 13:21:44 GMT-0400 (Eastern Daylight Time)","255085","Untrustworthy,Trustworthy","image-keyboard-response","9","54758","0.0-6.0-2.1","","null","","trustrating_stim/white_mw084.bmp","null","","","","","","","","",""
"","","","rating","dfghdfgh","bdp_trlrn","Tue Oct 05 2021 13:21:44 GMT-0400 (Eastern Daylight Time)","255085","Untrustworthy,Trustworthy","image-keyboard-response","10","55098","0.0-6.0-1.2","","237","","trustrating_stim/white_mw012.bmp","7","","","","","","","","",""
"","","","ratingFB","dfghdfgh","bdp_trlrn","Tue Oct 05 2021 13:21:44 GMT-0400 (Eastern Daylight Time)","255085","Untrustworthy,Trustworthy","image-keyboard-response","11","55298","0.0-6.0-2.2","","null","","trustrating_stim/white_mw012.bmp","null","","","","","","","","",""
"","","","rating","dfghdfgh","bdp_trlrn","Tue Oct 05 2021 13:21:44 GMT-0400 (Eastern Daylight Time)","255085","Untrustworthy,Trustworthy","image-keyboard-response","12","55684","0.0-6.0-1.3","","284","","trustrating_stim/white_mw046.bmp","5","","","","","","","","",""
"","","","ratingFB","dfghdfgh","bdp_trlrn","Tue Oct 05 2021 13:21:44 GMT-0400 (Eastern Daylight Time)","255085","Untrustworthy,Trustworthy","image-keyboard-response","13","55884","0.0-6.0-2.3","","null","","trustrating_stim/white_mw046.bmp","null","","","","","","","","",""
"","","","rating","dfghdfgh","bdp_trlrn","Tue Oct 05 2021 13:21:44 GMT-0400 (Eastern Daylight Time)","255085","Untrustworthy,Trustworthy","image-keyboard-response","14","56210","0.0-6.0-1.4","","224","","trustrating_stim/white_mw082.bmp","5","","","","","","","","",""
"","","","ratingFB","dfghdfgh","bdp_trlrn","Tue Oct 05 2021 13:21:44 GMT-0400 (Eastern Daylight Time)","255085","Untrustworthy,Trustworthy","image-keyboard-response","15","56411","0.0-6.0-2.4","","null","","trustrating_stim/white_mw082.bmp","null","","","","","","","","",""
"","","","rating","dfghdfgh","bdp_trlrn","Tue Oct 05 2021 13:21:44 GMT-0400 (Eastern Daylight Time)","255085","Untrustworthy,Trustworthy","image-keyboard-response","16","56687","0.0-6.0-1.5","","175","","trustrating_stim/white_mw043.bmp","5","","","","","","","","",""
"","","","ratingFB","dfghdfgh","bdp_trlrn","Tue Oct 05 2021 13:21:44 GMT-0400 (Eastern Daylight Time)","255085","Untrustworthy,Trustworthy","image-keyboard-response","17","56889","0.0-6.0-2.5","","null","","trustrating_stim/white_mw043.bmp","null","","","","","","","","",""
"","","","rating","dfghdfgh","bdp_trlrn","Tue Oct 05 2021 13:21:44 GMT-0400 (Eastern Daylight Time)","255085","Untrustworthy,Trustworthy","image-keyboard-response","18","57088","0.0-6.0-1.6","","98","","trustrating_stim/white_mw025.bmp","5","","","","","","","","",""
"","","","ratingFB","dfghdfgh","bdp_trlrn","Tue Oct 05 2021 13:21:44 GMT-0400 (Eastern Daylight Time)","255085","Untrustworthy,Trustworthy","image-keyboard-response","19","57288","0.0-6.0-2.6","","null","","trustrating_stim/white_mw025.bmp","null","","","","","","","","",""
"","","","rating","dfghdfgh","bdp_trlrn","Tue Oct 05 2021 13:21:44 GMT-0400 (Eastern Daylight Time)","255085","Untrustworthy,Trustworthy","image-keyboard-response","20","57452","0.0-6.0-1.7","","62","","trustrating_stim/white_mw004.bmp","5","","","","","","","","",""
"","","","ratingFB","dfghdfgh","bdp_trlrn","Tue Oct 05 2021 13:21:44 GMT-0400 (Eastern Daylight Time)","255085","Untrustworthy,Trustworthy","image-keyboard-response","21","57653","0.0-6.0-2.7","","null","","trustrating_stim/white_mw004.bmp","null","","","","","","","","",""
"","","","rating","dfghdfgh","bdp_trlrn","Tue Oct 05 2021 13:21:44 GMT-0400 (Eastern Daylight Time)","255085","Untrustworthy,Trustworthy","image-keyboard-response","22","57911","0.0-6.0-1.8","","158","","trustrating_stim/white_mw080.bmp","5","","","","","","","","",""
"","","","ratingFB","dfghdfgh","bdp_trlrn","Tue Oct 05 2021 13:21:44 GMT-0400 (Eastern Daylight Time)","255085","Untrustworthy,Trustworthy","image-keyboard-response","23","58113","0.0-6.0-2.8","","null","","trustrating_stim/white_mw080.bmp","null","","","","","","","","",""
"","","","rating","dfghdfgh","bdp_trlrn","Tue Oct 05 2021 13:21:44 GMT-0400 (Eastern Daylight Time)","255085","Untrustworthy,Trustworthy","image-keyboard-response","24","58293","0.0-6.0-1.9","","80","","trustrating_stim/white_mw040.bmp","5","","","","","","","","",""
"","","","ratingFB","dfghdfgh","bdp_trlrn","Tue Oct 05 2021 13:21:44 GMT-0400 (Eastern Daylight Time)","255085","Untrustworthy,Trustworthy","image-keyboard-response","25","58494","0.0-6.0-2.9","","null","","trustrating_stim/white_mw040.bmp","null","","","","","","","","",""
"","","","rating","dfghdfgh","bdp_trlrn","Tue Oct 05 2021 13:21:44 GMT-0400 (Eastern Daylight Time)","255085","Untrustworthy,Trustworthy","image-keyboard-response","26","58664","0.0-6.0-1.10","","70","","trustrating_stim/white_00960_960627_fb_edt.bmp","5","","","","","","","","",""
"","","","ratingFB","dfghdfgh","bdp_trlrn","Tue Oct 05 2021 13:21:44 GMT-0400 (Eastern Daylight Time)","255085","Untrustworthy,Trustworthy","image-keyboard-response","27","58865","0.0-6.0-2.10","","null","","trustrating_stim/white_00960_960627_fb_edt.bmp","null","","","","","","","","",""
"","","","rating","dfghdfgh","bdp_trlrn","Tue Oct 05 2021 13:21:44 GMT-0400 (Eastern Daylight Time)","255085","Untrustworthy,Trustworthy","image-keyboard-response","28","59025","0.0-6.0-1.11","","59","","trustrating_stim/white_00761_941201_fb_edt.bmp","5","","","","","","","","",""
"","","","ratingFB","dfghdfgh","bdp_trlrn","Tue Oct 05 2021 13:21:44 GMT-0400 (Eastern Daylight Time)","255085","Untrustworthy,Trustworthy","image-keyboard-response","29","59227","0.0-6.0-2.11","","null","","trustrating_stim/white_00761_941201_fb_edt.bmp","null","","","","","","","","",""
"","","","rating","dfghdfgh","bdp_trlrn","Tue Oct 05 2021 13:21:44 GMT-0400 (Eastern Daylight Time)","255085","Untrustworthy,Trustworthy","image-keyboard-response","30","59379","0.0-6.0-1.12","","52","","trustrating_stim/white_mw066.bmp","5","","","","","","","","",""
"","","","ratingFB","dfghdfgh","bdp_trlrn","Tue Oct 05 2021 13:21:44 GMT-0400 (Eastern Daylight Time)","255085","Untrustworthy,Trustworthy","image-keyboard-response","31","59581","0.0-6.0-2.12","","null","","trustrating_stim/white_mw066.bmp","null","","","","","","","","",""
"","","","rating","dfghdfgh","bdp_trlrn","Tue Oct 05 2021 13:21:44 GMT-0400 (Eastern Daylight Time)","255085","Untrustworthy,Trustworthy","image-keyboard-response","32","59741","0.0-6.0-1.13","","59","","trustrating_stim/white_mw051.bmp","5","","","","","","","","",""
"","","","ratingFB","dfghdfgh","bdp_trlrn","Tue Oct 05 2021 13:21:44 GMT-0400 (Eastern Daylight Time)","255085","Untrustworthy,Trustworthy","image-keyboard-response","33","59942","0.0-6.0-2.13","","null","","trustrating_stim/white_mw051.bmp","null","","","","","","","","",""
"","","","rating","dfghdfgh","bdp_trlrn","Tue Oct 05 2021 13:21:44 GMT-0400 (Eastern Daylight Time)","255085","Untrustworthy,Trustworthy","image-keyboard-response","34","60101","0.0-6.0-1.14","","58","","trustrating_stim/white_mw019.bmp","5","","","","","","","","",""
"","","","ratingFB","dfghdfgh","bdp_trlrn","Tue Oct 05 2021 13:21:44 GMT-0400 (Eastern Daylight Time)","255085","Untrustworthy,Trustworthy","image-keyboard-response","35","60302","0.0-6.0-2.14","","null","","trustrating_stim/white_mw019.bmp","null","","","","","","","","",""
"","","","rating","dfghdfgh","bdp_trlrn","Tue Oct 05 2021 13:21:44 GMT-0400 (Eastern Daylight Time)","255085","Untrustworthy,Trustworthy","image-keyboard-response","36","60467","0.0-6.0-1.15","","63","","trustrating_stim/white_00120_931230_fa_edt.bmp","5","","","","","","","","",""
"","","","ratingFB","dfghdfgh","bdp_trlrn","Tue Oct 05 2021 13:21:44 GMT-0400 (Eastern Daylight Time)","255085","Untrustworthy,Trustworthy","image-keyboard-response","37","60668","0.0-6.0-2.15","","null","","trustrating_stim/white_00120_931230_fa_edt.bmp","null","","","","","","","","",""
"","","","rating","dfghdfgh","bdp_trlrn","Tue Oct 05 2021 13:21:44 GMT-0400 (Eastern Daylight Time)","255085","Untrustworthy,Trustworthy","image-keyboard-response","38","60842","0.0-6.0-1.16","","72","","trustrating_stim/white_mw071.bmp","5","","","","","","","","",""
"","","","ratingFB","dfghdfgh","bdp_trlrn","Tue Oct 05 2021 13:21:44 GMT-0400 (Eastern Daylight Time)","255085","Untrustworthy,Trustworthy","image-keyboard-response","39","61042","0.0-6.0-2.16","","null","","trustrating_stim/white_mw071.bmp","null","","","","","","","","",""
"","","","rating","dfghdfgh","bdp_trlrn","Tue Oct 05 2021 13:21:44 GMT-0400 (Eastern Daylight Time)","255085","Untrustworthy,Trustworthy","image-keyboard-response","40","61215","0.0-6.0-1.17","","72","","trustrating_stim/white_mw085.bmp","5","","","","","","","","",""
"","","","ratingFB","dfghdfgh","bdp_trlrn","Tue Oct 05 2021 13:21:44 GMT-0400 (Eastern Daylight Time)","255085","Untrustworthy,Trustworthy","image-keyboard-response","41","61417","0.0-6.0-2.17","","null","","trustrating_stim/white_mw085.bmp","null","","","","","","","","",""
"","","","rating","dfghdfgh","bdp_trlrn","Tue Oct 05 2021 13:21:44 GMT-0400 (Eastern Daylight Time)","255085","Untrustworthy,Trustworthy","image-keyboard-response","42","61592","0.0-6.0-1.18","","73","","trustrating_stim/white_00253_940128_fa_edt.bmp","5","","","","","","","","",""
"","","","ratingFB","dfghdfgh","bdp_trlrn","Tue Oct 05 2021 13:21:44 GMT-0400 (Eastern Daylight Time)","255085","Untrustworthy,Trustworthy","image-keyboard-response","43","61792","0.0-6.0-2.18","","null","","trustrating_stim/white_00253_940128_fa_edt.bmp","null","","","","","","","","",""
"","","","rating","dfghdfgh","bdp_trlrn","Tue Oct 05 2021 13:21:44 GMT-0400 (Eastern Daylight Time)","255085","Untrustworthy,Trustworthy","image-keyboard-response","44","61958","0.0-6.0-1.19","","65","","trustrating_stim/white_00657_941121_fa_edt.bmp","5","","","","","","","","",""
"","","","ratingFB","dfghdfgh","bdp_trlrn","Tue Oct 05 2021 13:21:44 GMT-0400 (Eastern Daylight Time)","255085","Untrustworthy,Trustworthy","image-keyboard-response","45","62159","0.0-6.0-2.19","","null","","trustrating_stim/white_00657_941121_fa_edt.bmp","null","","","","","","","","",""
"","","","rating","dfghdfgh","bdp_trlrn","Tue Oct 05 2021 13:21:44 GMT-0400 (Eastern Daylight Time)","255085","Untrustworthy,Trustworthy","image-keyboard-response","46","62325","0.0-6.0-1.20","","65","","trustrating_stim/white_mw035.bmp","5","","","","","","","","",""
"","","","ratingFB","dfghdfgh","bdp_trlrn","Tue Oct 05 2021 13:21:44 GMT-0400 (Eastern Daylight Time)","255085","Untrustworthy,Trustworthy","image-keyboard-response","47","62527","0.0-6.0-2.20","","null","","trustrating_stim/white_mw035.bmp","null","","","","","","","","",""
"","","","rating","dfghdfgh","bdp_trlrn","Tue Oct 05 2021 13:21:44 GMT-0400 (Eastern Daylight Time)","255085","Untrustworthy,Trustworthy","image-keyboard-response","48","62686","0.0-6.0-1.21","","57","","trustrating_stim/white_00223_940128_fb_edt.bmp","5","","","","","","","","",""
"","","","ratingFB","dfghdfgh","bdp_trlrn","Tue Oct 05 2021 13:21:44 GMT-0400 (Eastern Daylight Time)","255085","Untrustworthy,Trustworthy","image-keyboard-response","49","62887","0.0-6.0-2.21","","null","","trustrating_stim/white_00223_940128_fb_edt.bmp","null","","","","","","","","",""
"","","","rating","dfghdfgh","bdp_trlrn","Tue Oct 05 2021 13:21:44 GMT-0400 (Eastern Daylight Time)","255085","Untrustworthy,Trustworthy","image-keyboard-response","50","63038","0.0-6.0-1.22","","51","","trustrating_stim/white_mw058.bmp","5","","","","","","","","",""
"","","","ratingFB","dfghdfgh","bdp_trlrn","Tue Oct 05 2021 13:21:44 GMT-0400 (Eastern Daylight Time)","255085","Untrustworthy,Trustworthy","image-keyboard-response","51","63239","0.0-6.0-2.22","","null","","trustrating_stim/white_mw058.bmp","null","","","","","","","","",""
"","","","rating","dfghdfgh","bdp_trlrn","Tue Oct 05 2021 13:21:44 GMT-0400 (Eastern Daylight Time)","255085","Untrustworthy,Trustworthy","image-keyboard-response","52","63407","0.0-6.0-1.23","","68","","trustrating_stim/white_mw006.bmp","5","","","","","","","","",""
"","","","ratingFB","dfghdfgh","bdp_trlrn","Tue Oct 05 2021 13:21:44 GMT-0400 (Eastern Daylight Time)","255085","Untrustworthy,Trustworthy","image-keyboard-response","53","63609","0.0-6.0-2.23","","null","","trustrating_stim/white_mw006.bmp","null","","","","","","","","",""
"","","","rating","dfghdfgh","bdp_trlrn","Tue Oct 05 2021 13:21:44 GMT-0400 (Eastern Daylight Time)","255085","Untrustworthy,Trustworthy","image-keyboard-response","54","63788","0.0-6.0-1.24","","77","","trustrating_stim/white_00785_941205_fb_edt.bmp","5","","","","","","","","",""
"","","","ratingFB","dfghdfgh","bdp_trlrn","Tue Oct 05 2021 13:21:44 GMT-0400 (Eastern Daylight Time)","255085","Untrustworthy,Trustworthy","image-keyboard-response","55","63988","0.0-6.0-2.24","","null","","trustrating_stim/white_00785_941205_fb_edt.bmp","null","","","","","","","","",""
"","","","rating","dfghdfgh","bdp_trlrn","Tue Oct 05 2021 13:21:44 GMT-0400 (Eastern Daylight Time)","255085","Untrustworthy,Trustworthy","image-keyboard-response","56","64175","0.0-6.0-1.25","","86","","trustrating_stim/white_mw089.bmp","5","","","","","","","","",""
"","","","ratingFB","dfghdfgh","bdp_trlrn","Tue Oct 05 2021 13:21:44 GMT-0400 (Eastern Daylight Time)","255085","Untrustworthy,Trustworthy","image-keyboard-response","57","64377","0.0-6.0-2.25","","null","","trustrating_stim/white_mw089.bmp","null","","","","","","","","",""
"","","","rating","dfghdfgh","bdp_trlrn","Tue Oct 05 2021 13:21:44 GMT-0400 (Eastern Daylight Time)","255085","Untrustworthy,Trustworthy","image-keyboard-response","58","64527","0.0-6.0-1.26","","50","","trustrating_stim/white_00602_940928_fb_edt.bmp","5","","","","","","","","",""
"","","","ratingFB","dfghdfgh","bdp_trlrn","Tue Oct 05 2021 13:21:44 GMT-0400 (Eastern Daylight Time)","255085","Untrustworthy,Trustworthy","image-keyboard-response","59","64728","0.0-6.0-2.26","","null","","trustrating_stim/white_00602_940928_fb_edt.bmp","null","","","","","","","","",""
"","","","rating","dfghdfgh","bdp_trlrn","Tue Oct 05 2021 13:21:44 GMT-0400 (Eastern Daylight Time)","255085","Untrustworthy,Trustworthy","image-keyboard-response","60","64923","0.0-6.0-1.27","","93","","trustrating_stim/white_mw022.bmp","5","","","","","","","","",""
"","","","ratingFB","dfghdfgh","bdp_trlrn","Tue Oct 05 2021 13:21:44 GMT-0400 (Eastern Daylight Time)","255085","Untrustworthy,Trustworthy","image-keyboard-response","61","65124","0.0-6.0-2.27","","null","","trustrating_stim/white_mw022.bmp","null","","","","","","","","",""
"","","","rating","dfghdfgh","bdp_trlrn","Tue Oct 05 2021 13:21:44 GMT-0400 (Eastern Daylight Time)","255085","Untrustworthy,Trustworthy","image-keyboard-response","62","65394","0.0-6.0-1.28","","168","","trustrating_stim/white_mw099.bmp","5","","","","","","","","",""
"","","","ratingFB","dfghdfgh","bdp_trlrn","Tue Oct 05 2021 13:21:44 GMT-0400 (Eastern Daylight Time)","255085","Untrustworthy,Trustworthy","image-keyboard-response","63","65594","0.0-6.0-2.28","","null","","trustrating_stim/white_mw099.bmp","null","","","","","","","","",""
"","","","rating","dfghdfgh","bdp_trlrn","Tue Oct 05 2021 13:21:44 GMT-0400 (Eastern Daylight Time)","255085","Untrustworthy,Trustworthy","image-keyboard-response","64","65799","0.0-6.0-1.29","","104","","trustrating_stim/white_00757_941201_fa_edt.bmp","5","","","","","","","","",""
"","","","ratingFB","dfghdfgh","bdp_trlrn","Tue Oct 05 2021 13:21:44 GMT-0400 (Eastern Daylight Time)","255085","Untrustworthy,Trustworthy","image-keyboard-response","65","66000","0.0-6.0-2.29","","null","","trustrating_stim/white_00757_941201_fa_edt.bmp","null","","","","","","","","",""
"","","","rating","dfghdfgh","bdp_trlrn","Tue Oct 05 2021 13:21:44 GMT-0400 (Eastern Daylight Time)","255085","Untrustworthy,Trustworthy","image-keyboard-response","66","66231","0.0-6.0-1.30","","131","","trustrating_stim/white_mw054.bmp","5","","","","","","","","",""
"","","","ratingFB","dfghdfgh","bdp_trlrn","Tue Oct 05 2021 13:21:44 GMT-0400 (Eastern Daylight Time)","255085","Untrustworthy,Trustworthy","image-keyboard-response","67","66433","0.0-6.0-2.30","","null","","trustrating_stim/white_mw054.bmp","null","","","","","","","","",""
"","","","rating","dfghdfgh","bdp_trlrn","Tue Oct 05 2021 13:21:44 GMT-0400 (Eastern Daylight Time)","255085","Untrustworthy,Trustworthy","image-keyboard-response","68","66678","0.0-6.0-1.31","","144","","trustrating_stim/white_mw044.bmp","5","","","","","","","","",""
"","","","ratingFB","dfghdfgh","bdp_trlrn","Tue Oct 05 2021 13:21:44 GMT-0400 (Eastern Daylight Time)","255085","Untrustworthy,Trustworthy","image-keyboard-response","69","66878","0.0-6.0-2.31","","null","","trustrating_stim/white_mw044.bmp","null","","","","","","","","",""
"","","","rating","dfghdfgh","bdp_trlrn","Tue Oct 05 2021 13:21:44 GMT-0400 (Eastern Daylight Time)","255085","Untrustworthy,Trustworthy","image-keyboard-response","70","67111","0.0-6.0-1.32","","133","","trustrating_stim/white_mw057.bmp","5","","","","","","","","",""
"","","","ratingFB","dfghdfgh","bdp_trlrn","Tue Oct 05 2021 13:21:44 GMT-0400 (Eastern Daylight Time)","255085","Untrustworthy,Trustworthy","image-keyboard-response","71","67313","0.0-6.0-2.32","","null","","trustrating_stim/white_mw057.bmp","null","","","","","","","","",""
"","","","rating","dfghdfgh","bdp_trlrn","Tue Oct 05 2021 13:21:44 GMT-0400 (Eastern Daylight Time)","255085","Untrustworthy,Trustworthy","image-keyboard-response","72","67537","0.0-6.0-1.33","","124","","trustrating_stim/white_00109_931230_fa_edt.bmp","5","","","","","","","","",""
"","","","ratingFB","dfghdfgh","bdp_trlrn","Tue Oct 05 2021 13:21:44 GMT-0400 (Eastern Daylight Time)","255085","Untrustworthy,Trustworthy","image-keyboard-response","73","67738","0.0-6.0-2.33","","null","","trustrating_stim/white_00109_931230_fa_edt.bmp","null","","","","","","","","",""
"","","","rating","dfghdfgh","bdp_trlrn","Tue Oct 05 2021 13:21:44 GMT-0400 (Eastern Daylight Time)","255085","Untrustworthy,Trustworthy","image-keyboard-response","74","67977","0.0-6.0-1.34","","139","","trustrating_stim/white_00897_960530_fb_edt.bmp","5","","","","","","","","",""
"","","","ratingFB","dfghdfgh","bdp_trlrn","Tue Oct 05 2021 13:21:44 GMT-0400 (Eastern Daylight Time)","255085","Untrustworthy,Trustworthy","image-keyboard-response","75","68179","0.0-6.0-2.34","","null","","trustrating_stim/white_00897_960530_fb_edt.bmp","null","","","","","","","","",""
"","","","rating","dfghdfgh","bdp_trlrn","Tue Oct 05 2021 13:21:44 GMT-0400 (Eastern Daylight Time)","255085","Untrustworthy,Trustworthy","image-keyboard-response","76","68402","0.0-6.0-1.35","","121","","trustrating_stim/white_00658_941121_fb_edt.bmp","5","","","","","","","","",""
"","","","ratingFB","dfghdfgh","bdp_trlrn","Tue Oct 05 2021 13:21:44 GMT-0400 (Eastern Daylight Time)","255085","Untrustworthy,Trustworthy","image-keyboard-response","77","68602","0.0-6.0-2.35","","null","","trustrating_stim/white_00658_941121_fb_edt.bmp","null","","","","","","","","",""
"","","","rating","dfghdfgh","bdp_trlrn","Tue Oct 05 2021 13:21:44 GMT-0400 (Eastern Daylight Time)","255085","Untrustworthy,Trustworthy","image-keyboard-response","78","68819","0.0-6.0-1.36","","117","","trustrating_stim/white_mw016.bmp","5","","","","","","","","",""
"","","","ratingFB","dfghdfgh","bdp_trlrn","Tue Oct 05 2021 13:21:44 GMT-0400 (Eastern Daylight Time)","255085","Untrustworthy,Trustworthy","image-keyboard-response","79","69021","0.0-6.0-2.36","","null","","trustrating_stim/white_mw016.bmp","null","","","","","","","","",""
"","","","rating","dfghdfgh","bdp_trlrn","Tue Oct 05 2021 13:21:44 GMT-0400 (Eastern Daylight Time)","255085","Untrustworthy,Trustworthy","image-keyboard-response","80","69240","0.0-6.0-1.37","","119","","trustrating_stim/white_mw013.bmp","5","","","","","","","","",""
"","","","ratingFB","dfghdfgh","bdp_trlrn","Tue Oct 05 2021 13:21:44 GMT-0400 (Eastern Daylight Time)","255085","Untrustworthy,Trustworthy","image-keyboard-response","81","69440","0.0-6.0-2.37","","null","","trustrating_stim/white_mw013.bmp","null","","","","","","","","",""
"","","","rating","dfghdfgh","bdp_trlrn","Tue Oct 05 2021 13:21:44 GMT-0400 (Eastern Daylight Time)","255085","Untrustworthy,Trustworthy","image-keyboard-response","82","69703","0.0-6.0-1.38","","163","","trustrating_stim/white_mw097.bmp","5","","","","","","","","",""
"","","","ratingFB","dfghdfgh","bdp_trlrn","Tue Oct 05 2021 13:21:44 GMT-0400 (Eastern Daylight Time)","255085","Untrustworthy,Trustworthy","image-keyboard-response","83","69904","0.0-6.0-2.38","","null","","trustrating_stim/white_mw097.bmp","null","","","","","","","","",""
"","","","rating","dfghdfgh","bdp_trlrn","Tue Oct 05 2021 13:21:44 GMT-0400 (Eastern Daylight Time)","255085","Untrustworthy,Trustworthy","image-keyboard-response","84","70156","0.0-6.0-1.39","","151","","trustrating_stim/white_mw072.bmp","5","","","","","","","","",""
"","","","ratingFB","dfghdfgh","bdp_trlrn","Tue Oct 05 2021 13:21:44 GMT-0400 (Eastern Daylight Time)","255085","Untrustworthy,Trustworthy","image-keyboard-response","85","70357","0.0-6.0-2.39","","null","","trustrating_stim/white_mw072.bmp","null","","","","","","","","",""
"","","","","dfghdfgh","bdp_trlrn","Tue Oct 05 2021 13:21:44 GMT-0400 (Eastern Daylight Time)","255085","Untrustworthy,Trustworthy","instructions","86","71263","0.0-7.0","[{""page_index"":0,""viewing_time"":806}]","806","","","","","","","","","","","",""
"","","","","dfghdfgh","bdp_trlrn","Tue Oct 05 2021 13:21:44 GMT-0400 (Eastern Daylight Time)","255085","Untrustworthy,Trustworthy","instructions","87","85853","0.0-8.0","[{""page_index"":0,""viewing_time"":1473},{""page_index"":1,""viewing_time"":1360},{""page_index"":2,""viewing_time"":2825},{""page_index"":3,""viewing_time"":1193},{""page_index"":4,""viewing_time"":1261},{""page_index"":5,""viewing_time"":1062},{""page_index"":6,""viewing_time"":5313}]","14487","","","","","","","","","","","",""
"","","","","dfghdfgh","bdp_trlrn","Tue Oct 05 2021 13:21:44 GMT-0400 (Eastern Daylight Time)","255085","Untrustworthy,Trustworthy","html-keyboard-response","88","88099","0.0-9.0","","2245","","<div class='header' style='text-align:left; position: absolute; top: 5%; left: 5%;'><small>Task 3 of 4</small></div><div style='text-align:left; position: absolute; top: 10%; left: 20%; width: 60%'><p><strong>1) What is the minimum number of points you can choose to send to your partner?</strong></p><p>a) 0</p><p>b) 1</p><p>c) 5</p>","A","","","","","","","","",""
"","","","","dfghdfgh","bdp_trlrn","Tue Oct 05 2021 13:21:44 GMT-0400 (Eastern Daylight Time)","255085","Untrustworthy,Trustworthy","html-keyboard-response","89","88999","0.0-10.0","","800","","<div class='header' style='text-align:left; position: absolute; top: 5%; left: 5%;'><small>Task 3 of 4</small></div><div style='text-align:left; position: absolute; top: 10%; left: 20%; width: 60%'><p><strong>1) What is the minimum number of points you can choose to send to your partner?</strong></p><p style='color:#FF0000'>a) 0</p><p>b) 1</p><p>c) 5</p><h3 style='color:#FF0000'>Incorrect!</h3><h3 class='center-content'>The correct response is b).</h3><h3 class='center-content'>The minimum number of points you can choose to send to your partner is 1 point.</h3><p><em>Press SPACEBAR to continue</em></p></div>"," ","","","","","","","","",""
"","","","","dfghdfgh","bdp_trlrn","Tue Oct 05 2021 13:21:44 GMT-0400 (Eastern Daylight Time)","255085","Untrustworthy,Trustworthy","html-keyboard-response","90","89341","0.0-11.0","","242","","<div class='header' style='text-align:left; position: absolute; top: 5%; left: 5%;'><small>Task 3 of 4</small></div><div style='text-align:left; position: absolute; top: 10%; left: 20%; width: 60%'><p><strong>2) What is the maximum number of points you can choose to send to your partner?</strong></p><p>a) 8</p><p>b) 5</p><p>c) 3</p>","A","","","","","","","","",""
"","","","","dfghdfgh","bdp_trlrn","Tue Oct 05 2021 13:21:44 GMT-0400 (Eastern Daylight Time)","255085","Untrustworthy,Trustworthy","html-keyboard-response","91","89720","0.0-12.0","","279","","<div class='header' style='text-align:left; position: absolute; top: 5%; left: 5%;'><small>Task 3 of 4</small></div><div style='text-align:left; position: absolute; top: 10%; left: 20%; width: 60%'><p><strong>2) What is the maximum number of points you can choose to send to your partner?</strong></p><p style='color:#FF0000'>a) 8</p><p>b) 5</p><p>c) 3</p><h3 style='color:#FF0000'>Incorrect!</h3><h3 class='center-content'>The correct response is b).</h3><h3 class='center-content'>The maximum number of points you can choose to send to your partner is 5 points.</h3><p><em>Press SPACEBAR to continue</em></p></div>"," ","","","","","","","","",""
"","","","","dfghdfgh","bdp_trlrn","Tue Oct 05 2021 13:21:44 GMT-0400 (Eastern Daylight Time)","255085","Untrustworthy,Trustworthy","html-keyboard-response","92","90062","0.0-13.0","","240","","<div class='header' style='text-align:left; position: absolute; top: 5%; left: 5%;'><small>Task 3 of 4</small></div><div style='text-align:left; position: absolute; top: 10%; left: 20%; width: 60%'><p><strong>3) What happens to the amount of points you send to your partner?</strong></p><p>a) Nothing</p><p>b) It doubles</p><p>c) It quadruples</p>","A","","","","","","","","",""
"","","","","dfghdfgh","bdp_trlrn","Tue Oct 05 2021 13:21:44 GMT-0400 (Eastern Daylight Time)","255085","Untrustworthy,Trustworthy","html-keyboard-response","93","90484","0.0-14.0","","320","","<div class='header' style='text-align:left; position: absolute; top: 5%; left: 5%;'><small>Task 3 of 4</small></div><div style='text-align:left; position: absolute; top: 10%; left: 20%; width: 60%'><p><strong>3) What happens to the amount of points you send to your partner?</strong></p><p style='color:#FF0000'>a) Nothing</p><p>b) It doubles</p><p>c) It quadruples</p><h3 style='color:#FF0000'>Incorrect!</h3><h3 class='center-content'>The correct response is c).</h3><h3 class='center-content'>The amount of points you send to your partner quadruples.</h3><p><em>Press SPACEBAR to continue</em></p></div>"," ","","","","","","","","",""
"","","","","dfghdfgh","bdp_trlrn","Tue Oct 05 2021 13:21:44 GMT-0400 (Eastern Daylight Time)","255085","Untrustworthy,Trustworthy","html-keyboard-response","94","90812","0.0-15.0","","227","","<div class='header' style='text-align:left; position: absolute; top: 5%; left: 5%;'><small>Task 3 of 4</small></div><div style='text-align:left; position: absolute; top: 10%; left: 20%; width: 60%'><p><strong>4) If you decide to share 4 out of 5 points with your partner, and he decided to share half of what he received, how many points would you end up with in this round?</strong></p><p>a) 16</p><p>b) 0</p><p>c) 9</p>","A","","","","","","","","",""
"","","","","dfghdfgh","bdp_trlrn","Tue Oct 05 2021 13:21:44 GMT-0400 (Eastern Daylight Time)","255085","Untrustworthy,Trustworthy","html-keyboard-response","95","91228","0.0-16.0","","314","","<div class='header' style='text-align:left; position: absolute; top: 5%; left: 5%;'><small>Task 3 of 4</small></div><div style='text-align:left; position: absolute; top: 10%; left: 20%; width: 60%'><p><strong>4) If you decide to share 4 points with your partner, and he decided to share half of what he received, how many points would you end up with in this round?</strong></p><p style='color:#FF0000'>a) 16</p><p>b) 0</p><p>c) 9</p><h3 style='color:#FF0000'>Incorrect!</h3><h3 class='center-content'>The correct response is c).</h3><h3 class='center-content'>If you share 4 out of 5 points with your partner and he decided to share half with you, you would receive 8 points back (i.e. (4 x 4)/2 = 8), totaling to 9 points altogether.</h3><p><em>Press SPACEBAR to continue</em></p></div>"," ","","","","","","","","",""
"","","","","dfghdfgh","bdp_trlrn","Tue Oct 05 2021 13:21:44 GMT-0400 (Eastern Daylight Time)","255085","Untrustworthy,Trustworthy","instructions","96","93193","0.0-17.0","[{""page_index"":0,""viewing_time"":1862}]","1863","","","","","","","","","","","",""
"","","","decision","dfghdfgh","bdp_trlrn","Tue Oct 05 2021 13:21:44 GMT-0400 (Eastern Daylight Time)","255085","Untrustworthy,Trustworthy","html-keyboard-response","97","94424","0.0-18.0-1.0","","1130","","<div class='trialDiv'><img src='trustrating_stim/white_mw099.bmp'><br><font class='baseline'><strong>Jonathan</strong><p>Choose number of points to send.</font><div class='respPicDiv'><img src='img/responseButtonOffersNo0L.png' class='respPic'></div></div>","1","1","Jonathan","trustrating_stim/white_mw099.bmp","Kept","0.2,0.6","10","0.2","5","1"
"","","","decisionFB","dfghdfgh","bdp_trlrn","Tue Oct 05 2021 13:21:44 GMT-0400 (Eastern Daylight Time)","255085","Untrustworthy,Trustworthy","html-keyboard-response","98","94677","0.0-18.0-2.0","","null","","<div class='trialDiv'><img src='trustrating_stim/white_mw099.bmp'><br><font class='baseline'><strong>Jonathan</strong><p>Choose number of points to send.</font><div class='respPicDiv'><img src='img/responseButtonOffersNo0L1.png' class='respPic'></div></div>","null","1","Jonathan","trustrating_stim/white_mw099.bmp","Kept","0.2,0.6","10","0.2","4","1"
"","","","feedback","dfghdfgh","bdp_trlrn","Tue Oct 05 2021 13:21:44 GMT-0400 (Eastern Daylight Time)","255085","Untrustworthy,Trustworthy","html-keyboard-response","99","95678","0.0-18.0-3.0","","null","","<div class='trialDiv'><img src='trustrating_stim/white_mw099.bmp'><br><font class='baseline'><strong>Jonathan</strong><p>Received: <strong>4</strong></font> &nbsp; &nbsp; &nbsp; &nbsp; &nbsp; &nbsp;<font class='negOutcome'>Shared back: <strong>0</strong></font></font><div class='respPicDiv'><img src='img/responseButtonOffersNo0_wht.png' class='respPic'></div></div>","null","1","Jonathan","trustrating_stim/white_mw099.bmp","Kept","0.2,0.6","10","0.2","4","1"
"","","","decision","dfghdfgh","bdp_trlrn","Tue Oct 05 2021 13:21:44 GMT-0400 (Eastern Daylight Time)","255085","Untrustworthy,Trustworthy","html-keyboard-response","100","96030","0.0-18.0-1.1","","352","","<div class='trialDiv'><img src='trustrating_stim/white_mw046.bmp'><br><font class='baseline'><strong>Joseph</strong><p>Choose number of points to send.</font><div class='respPicDiv'><img src='img/responseButtonOffersNo0L.png' class='respPic'></div></div>","1","1","Joseph","trustrating_stim/white_mw046.bmp","Kept","0.4,0.8","11","0.4","9","2"
"","","","decisionFB","dfghdfgh","bdp_trlrn","Tue Oct 05 2021 13:21:44 GMT-0400 (Eastern Daylight Time)","255085","Untrustworthy,Trustworthy","html-keyboard-response","101","96282","0.0-18.0-2.1","","null","","<div class='trialDiv'><img src='trustrating_stim/white_mw046.bmp'><br><font class='baseline'><strong>Joseph</strong><p>Choose number of points to send.</font><div class='respPicDiv'><img src='img/responseButtonOffersNo0L1.png' class='respPic'></div></div>","null","1","Joseph","trustrating_stim/white_mw046.bmp","Kept","0.4,0.8","11","0.4","8","2"
"","","","feedback","dfghdfgh","bdp_trlrn","Tue Oct 05 2021 13:21:44 GMT-0400 (Eastern Daylight Time)","255085","Untrustworthy,Trustworthy","html-keyboard-response","102","97283","0.0-18.0-3.1","","null","","<div class='trialDiv'><img src='trustrating_stim/white_mw046.bmp'><br><font class='baseline'><strong>Joseph</strong><p>Received: <strong>4</strong></font> &nbsp; &nbsp; &nbsp; &nbsp; &nbsp; &nbsp;<font class='negOutcome'>Shared back: <strong>0</strong></font></font><div class='respPicDiv'><img src='img/responseButtonOffersNo0_wht.png' class='respPic'></div></div>","null","1","Joseph","trustrating_stim/white_mw046.bmp","Kept","0.4,0.8","11","0.4","8","2"
"","","","decision","dfghdfgh","bdp_trlrn","Tue Oct 05 2021 13:21:44 GMT-0400 (Eastern Daylight Time)","255085","Untrustworthy,Trustworthy","html-keyboard-response","103","97484","0.0-18.0-1.2","","200","","<div class='trialDiv'><img src='trustrating_stim/white_mw035.bmp'><br><font class='baseline'><strong>Sean</strong><p>Choose number of points to send.</font><div class='respPicDiv'><img src='img/responseButtonOffersNo0L.png' class='respPic'></div></div>","5","1","Sean","trustrating_stim/white_mw035.bmp","Kept","0.6,0.2","14","0.6","13","3"
"","","","decisionFB","dfghdfgh","bdp_trlrn","Tue Oct 05 2021 13:21:44 GMT-0400 (Eastern Daylight Time)","255085","Untrustworthy,Trustworthy","html-keyboard-response","104","97734","0.0-18.0-2.2","","null","","<div class='trialDiv'><img src='trustrating_stim/white_mw035.bmp'><br><font class='baseline'><strong>Sean</strong><p>Choose number of points to send.</font><div class='respPicDiv'><img src='img/responseButtonOffersNo0L5.png' class='respPic'></div></div>","null","1","Sean","trustrating_stim/white_mw035.bmp","Kept","0.6,0.2","14","0.6","8","3"
"","","","feedback","dfghdfgh","bdp_trlrn","Tue Oct 05 2021 13:21:44 GMT-0400 (Eastern Daylight Time)","255085","Untrustworthy,Trustworthy","html-keyboard-response","105","98735","0.0-18.0-3.2","","null","","<div class='trialDiv'><img src='trustrating_stim/white_mw035.bmp'><br><font class='baseline'><strong>Sean</strong><p>Received: <strong>20</strong></font> &nbsp; &nbsp; &nbsp; &nbsp; &nbsp; &nbsp;<font class='negOutcome'>Shared back: <strong>0</strong></font></font><div class='respPicDiv'><img src='img/responseButtonOffersNo0_wht.png' class='respPic'></div></div>","null","1","Sean","trustrating_stim/white_mw035.bmp","Kept","0.6,0.2","14","0.6","8","3"
"","","","decision","dfghdfgh","bdp_trlrn","Tue Oct 05 2021 13:21:44 GMT-0400 (Eastern Daylight Time)","255085","Untrustworthy,Trustworthy","html-keyboard-response","106","98984","0.0-18.0-1.3","","248","","<div class='trialDiv'><img src='trustrating_stim/white_mw084.bmp'><br><font class='baseline'><strong>Richard</strong><p>Choose number of points to send.</font><div class='respPicDiv'><img src='img/responseButtonOffersNo0L.png' class='respPic'></div></div>","5","1","Richard","trustrating_stim/white_mw084.bmp","Shared","0.8,0.4","11","0.8","13","4"
"","","","decisionFB","dfghdfgh","bdp_trlrn","Tue Oct 05 2021 13:21:44 GMT-0400 (Eastern Daylight Time)","255085","Untrustworthy,Trustworthy","html-keyboard-response","107","99235","0.0-18.0-2.3","","null","","<div class='trialDiv'><img src='trustrating_stim/white_mw084.bmp'><br><font class='baseline'><strong>Richard</strong><p>Choose number of points to send.</font><div class='respPicDiv'><img src='img/responseButtonOffersNo0L5.png' class='respPic'></div></div>","null","1","Richard","trustrating_stim/white_mw084.bmp","Shared","0.8,0.4","11","0.8","8","4"
"","","","feedback","dfghdfgh","bdp_trlrn","Tue Oct 05 2021 13:21:44 GMT-0400 (Eastern Daylight Time)","255085","Untrustworthy,Trustworthy","html-keyboard-response","108","100236","0.0-18.0-3.3","","null","","<div class='trialDiv'><img src='trustrating_stim/white_mw084.bmp'><br><font class='baseline'><strong>Richard</strong><p>Received: <strong>20</strong></font> &nbsp; &nbsp; &nbsp; &nbsp; &nbsp; &nbsp;<font class='posOutcome'>Shared back: <strong>10</strong></font></font><div class='respPicDiv'><img src='img/responseButtonOffersNo0_wht.png' class='respPic'></div></div>","null","1","Richard","trustrating_stim/white_mw084.bmp","Shared","0.8,0.4","11","0.8","18","4"
"","","","decision","dfghdfgh","bdp_trlrn","Tue Oct 05 2021 13:21:44 GMT-0400 (Eastern Daylight Time)","255085","Untrustworthy,Trustworthy","html-keyboard-response","109","100313","0.0-18.0-1.4","","77","","<div class='trialDiv'><img src='trustrating_stim/white_mw046.bmp'><br><font class='baseline'><strong>Joseph</strong><p>Choose number of points to send.</font><div class='respPicDiv'><img src='img/responseButtonOffersNo0L.png' class='respPic'></div></div>","5","2","Joseph","trustrating_stim/white_mw046.bmp","Shared","0.4,0.8","11","0.4","23","5"
"","","","decisionFB","dfghdfgh","bdp_trlrn","Tue Oct 05 2021 13:21:44 GMT-0400 (Eastern Daylight Time)","255085","Untrustworthy,Trustworthy","html-keyboard-response","110","100564","0.0-18.0-2.4","","null","","<div class='trialDiv'><img src='trustrating_stim/white_mw046.bmp'><br><font class='baseline'><strong>Joseph</strong><p>Choose number of points to send.</font><div class='respPicDiv'><img src='img/responseButtonOffersNo0L5.png' class='respPic'></div></div>","null","2","Joseph","trustrating_stim/white_mw046.bmp","Shared","0.4,0.8","11","0.4","18","5"
"","","","feedback","dfghdfgh","bdp_trlrn","Tue Oct 05 2021 13:21:44 GMT-0400 (Eastern Daylight Time)","255085","Untrustworthy,Trustworthy","html-keyboard-response","111","101566","0.0-18.0-3.4","","null","","<div class='trialDiv'><img src='trustrating_stim/white_mw046.bmp'><br><font class='baseline'><strong>Joseph</strong><p>Received: <strong>20</strong></font> &nbsp; &nbsp; &nbsp; &nbsp; &nbsp; &nbsp;<font class='posOutcome'>Shared back: <strong>10</strong></font></font><div class='respPicDiv'><img src='img/responseButtonOffersNo0_wht.png' class='respPic'></div></div>","null","2","Joseph","trustrating_stim/white_mw046.bmp","Shared","0.4,0.8","11","0.4","28","5"
"","","","decision","dfghdfgh","bdp_trlrn","Tue Oct 05 2021 13:21:44 GMT-0400 (Eastern Daylight Time)","255085","Untrustworthy,Trustworthy","html-keyboard-response","112","101571","0.0-18.0-1.5","","4","","<div class='trialDiv'><img src='trustrating_stim/white_mw099.bmp'><br><font class='baseline'><strong>Jonathan</strong><p>Choose number of points to send.</font><div class='respPicDiv'><img src='img/responseButtonOffersNo0L.png' class='respPic'></div></div>","5","2","Jonathan","trustrating_stim/white_mw099.bmp","Shared","0.2,0.6","10","0.2","33","6"
"","","","decisionFB","dfghdfgh","bdp_trlrn","Tue Oct 05 2021 13:21:44 GMT-0400 (Eastern Daylight Time)","255085","Untrustworthy,Trustworthy","html-keyboard-response","113","101822","0.0-18.0-2.5","","null","","<div class='trialDiv'><img src='trustrating_stim/white_mw099.bmp'><br><font class='baseline'><strong>Jonathan</strong><p>Choose number of points to send.</font><div class='respPicDiv'><img src='img/responseButtonOffersNo0L5.png' class='respPic'></div></div>","null","2","Jonathan","trustrating_stim/white_mw099.bmp","Shared","0.2,0.6","10","0.2","28","6"
"","","","feedback","dfghdfgh","bdp_trlrn","Tue Oct 05 2021 13:21:44 GMT-0400 (Eastern Daylight Time)","255085","Untrustworthy,Trustworthy","html-keyboard-response","114","102824","0.0-18.0-3.5","","null","","<div class='trialDiv'><img src='trustrating_stim/white_mw099.bmp'><br><font class='baseline'><strong>Jonathan</strong><p>Received: <strong>20</strong></font> &nbsp; &nbsp; &nbsp; &nbsp; &nbsp; &nbsp;<font class='posOutcome'>Shared back: <strong>10</strong></font></font><div class='respPicDiv'><img src='img/responseButtonOffersNo0_wht.png' class='respPic'></div></div>","null","2","Jonathan","trustrating_stim/white_mw099.bmp","Shared","0.2,0.6","10","0.2","38","6"
"","","","decision","dfghdfgh","bdp_trlrn","Tue Oct 05 2021 13:21:44 GMT-0400 (Eastern Daylight Time)","255085","Untrustworthy,Trustworthy","html-keyboard-response","115","102951","0.0-18.0-1.6","","127","","<div class='trialDiv'><img src='trustrating_stim/white_mw084.bmp'><br><font class='baseline'><strong>Richard</strong><p>Choose number of points to send.</font><div class='respPicDiv'><img src='img/responseButtonOffersNo0L.png' class='respPic'></div></div>","5","2","Richard","trustrating_stim/white_mw084.bmp","Shared","0.8,0.4","11","0.8","43","7"
"","","","decisionFB","dfghdfgh","bdp_trlrn","Tue Oct 05 2021 13:21:44 GMT-0400 (Eastern Daylight Time)","255085","Untrustworthy,Trustworthy","html-keyboard-response","116","103201","0.0-18.0-2.6","","null","","<div class='trialDiv'><img src='trustrating_stim/white_mw084.bmp'><br><font class='baseline'><strong>Richard</strong><p>Choose number of points to send.</font><div class='respPicDiv'><img src='img/responseButtonOffersNo0L5.png' class='respPic'></div></div>","null","2","Richard","trustrating_stim/white_mw084.bmp","Shared","0.8,0.4","11","0.8","38","7"
"","","","feedback","dfghdfgh","bdp_trlrn","Tue Oct 05 2021 13:21:44 GMT-0400 (Eastern Daylight Time)","255085","Untrustworthy,Trustworthy","html-keyboard-response","117","104201","0.0-18.0-3.6","","null","","<div class='trialDiv'><img src='trustrating_stim/white_mw084.bmp'><br><font class='baseline'><strong>Richard</strong><p>Received: <strong>20</strong></font> &nbsp; &nbsp; &nbsp; &nbsp; &nbsp; &nbsp;<font class='posOutcome'>Shared back: <strong>10</strong></font></font><div class='respPicDiv'><img src='img/responseButtonOffersNo0_wht.png' class='respPic'></div></div>","null","2","Richard","trustrating_stim/white_mw084.bmp","Shared","0.8,0.4","11","0.8","48","7"
"","","","decision","dfghdfgh","bdp_trlrn","Tue Oct 05 2021 13:21:44 GMT-0400 (Eastern Daylight Time)","255085","Untrustworthy,Trustworthy","html-keyboard-response","118","104376","0.0-18.0-1.7","","174","","<div class='trialDiv'><img src='trustrating_stim/white_mw035.bmp'><br><font class='baseline'><strong>Sean</strong><p>Choose number of points to send.</font><div class='respPicDiv'><img src='img/responseButtonOffersNo0L.png' class='respPic'></div></div>","5","2","Sean","trustrating_stim/white_mw035.bmp","Shared","0.6,0.2","14","0.6","53","8"
"","","","decisionFB","dfghdfgh","bdp_trlrn","Tue Oct 05 2021 13:21:44 GMT-0400 (Eastern Daylight Time)","255085","Untrustworthy,Trustworthy","html-keyboard-response","119","104628","0.0-18.0-2.7","","null","","<div class='trialDiv'><img src='trustrating_stim/white_mw035.bmp'><br><font class='baseline'><strong>Sean</strong><p>Choose number of points to send.</font><div class='respPicDiv'><img src='img/responseButtonOffersNo0L5.png' class='respPic'></div></div>","null","2","Sean","trustrating_stim/white_mw035.bmp","Shared","0.6,0.2","14","0.6","48","8"
"","","","feedback","dfghdfgh","bdp_trlrn","Tue Oct 05 2021 13:21:44 GMT-0400 (Eastern Daylight Time)","255085","Untrustworthy,Trustworthy","html-keyboard-response","120","105629","0.0-18.0-3.7","","null","","<div class='trialDiv'><img src='trustrating_stim/white_mw035.bmp'><br><font class='baseline'><strong>Sean</strong><p>Received: <strong>20</strong></font> &nbsp; &nbsp; &nbsp; &nbsp; &nbsp; &nbsp;<font class='posOutcome'>Shared back: <strong>10</strong></font></font><div class='respPicDiv'><img src='img/responseButtonOffersNo0_wht.png' class='respPic'></div></div>","null","2","Sean","trustrating_stim/white_mw035.bmp","Shared","0.6,0.2","14","0.6","58","8"
"","","","decision","dfghdfgh","bdp_trlrn","Tue Oct 05 2021 13:21:44 GMT-0400 (Eastern Daylight Time)","255085","Untrustworthy,Trustworthy","html-keyboard-response","121","105824","0.0-18.0-1.8","","195","","<div class='trialDiv'><img src='trustrating_stim/white_mw099.bmp'><br><font class='baseline'><strong>Jonathan</strong><p>Choose number of points to send.</font><div class='respPicDiv'><img src='img/responseButtonOffersNo0L.png' class='respPic'></div></div>","5","3","Jonathan","trustrating_stim/white_mw099.bmp","Kept","0.2,0.6","10","0.2","63","9"
"","","","decisionFB","dfghdfgh","bdp_trlrn","Tue Oct 05 2021 13:21:44 GMT-0400 (Eastern Daylight Time)","255085","Untrustworthy,Trustworthy","html-keyboard-response","122","106076","0.0-18.0-2.8","","null","","<div class='trialDiv'><img src='trustrating_stim/white_mw099.bmp'><br><font class='baseline'><strong>Jonathan</strong><p>Choose number of points to send.</font><div class='respPicDiv'><img src='img/responseButtonOffersNo0L5.png' class='respPic'></div></div>","null","3","Jonathan","trustrating_stim/white_mw099.bmp","Kept","0.2,0.6","10","0.2","58","9"
"","","","feedback","dfghdfgh","bdp_trlrn","Tue Oct 05 2021 13:21:44 GMT-0400 (Eastern Daylight Time)","255085","Untrustworthy,Trustworthy","html-keyboard-response","123","107077","0.0-18.0-3.8","","null","","<div class='trialDiv'><img src='trustrating_stim/white_mw099.bmp'><br><font class='baseline'><strong>Jonathan</strong><p>Received: <strong>20</strong></font> &nbsp; &nbsp; &nbsp; &nbsp; &nbsp; &nbsp;<font class='negOutcome'>Shared back: <strong>0</strong></font></font><div class='respPicDiv'><img src='img/responseButtonOffersNo0_wht.png' class='respPic'></div></div>","null","3","Jonathan","trustrating_stim/white_mw099.bmp","Kept","0.2,0.6","10","0.2","58","9"
"","","","decision","dfghdfgh","bdp_trlrn","Tue Oct 05 2021 13:21:44 GMT-0400 (Eastern Daylight Time)","255085","Untrustworthy,Trustworthy","html-keyboard-response","124","107102","0.0-18.0-1.9","","25","","<div class='trialDiv'><img src='trustrating_stim/white_mw046.bmp'><br><font class='baseline'><strong>Joseph</strong><p>Choose number of points to send.</font><div class='respPicDiv'><img src='img/responseButtonOffersNo0L.png' class='respPic'></div></div>","5","3","Joseph","trustrating_stim/white_mw046.bmp","Kept","0.4,0.8","11","0.4","63","10"
"","","","decisionFB","dfghdfgh","bdp_trlrn","Tue Oct 05 2021 13:21:44 GMT-0400 (Eastern Daylight Time)","255085","Untrustworthy,Trustworthy","html-keyboard-response","125","107353","0.0-18.0-2.9","","null","","<div class='trialDiv'><img src='trustrating_stim/white_mw046.bmp'><br><font class='baseline'><strong>Joseph</strong><p>Choose number of points to send.</font><div class='respPicDiv'><img src='img/responseButtonOffersNo0L5.png' class='respPic'></div></div>","null","3","Joseph","trustrating_stim/white_mw046.bmp","Kept","0.4,0.8","11","0.4","58","10"
"","","","feedback","dfghdfgh","bdp_trlrn","Tue Oct 05 2021 13:21:44 GMT-0400 (Eastern Daylight Time)","255085","Untrustworthy,Trustworthy","html-keyboard-response","126","108355","0.0-18.0-3.9","","null","","<div class='trialDiv'><img src='trustrating_stim/white_mw046.bmp'><br><font class='baseline'><strong>Joseph</strong><p>Received: <strong>20</strong></font> &nbsp; &nbsp; &nbsp; &nbsp; &nbsp; &nbsp;<font class='negOutcome'>Shared back: <strong>0</strong></font></font><div class='respPicDiv'><img src='img/responseButtonOffersNo0_wht.png' class='respPic'></div></div>","null","3","Joseph","trustrating_stim/white_mw046.bmp","Kept","0.4,0.8","11","0.4","58","10"
"","","","decision","dfghdfgh","bdp_trlrn","Tue Oct 05 2021 13:21:44 GMT-0400 (Eastern Daylight Time)","255085","Untrustworthy,Trustworthy","html-keyboard-response","127","108398","0.0-18.0-1.10","","42","","<div class='trialDiv'><img src='trustrating_stim/white_mw084.bmp'><br><font class='baseline'><strong>Richard</strong><p>Choose number of points to send.</font><div class='respPicDiv'><img src='img/responseButtonOffersNo0L.png' class='respPic'></div></div>","5","3","Richard","trustrating_stim/white_mw084.bmp","Shared","0.8,0.4","11","0.8","63","11"
"","","","decisionFB","dfghdfgh","bdp_trlrn","Tue Oct 05 2021 13:21:44 GMT-0400 (Eastern Daylight Time)","255085","Untrustworthy,Trustworthy","html-keyboard-response","128","108650","0.0-18.0-2.10","","null","","<div class='trialDiv'><img src='trustrating_stim/white_mw084.bmp'><br><font class='baseline'><strong>Richard</strong><p>Choose number of points to send.</font><div class='respPicDiv'><img src='img/responseButtonOffersNo0L5.png' class='respPic'></div></div>","null","3","Richard","trustrating_stim/white_mw084.bmp","Shared","0.8,0.4","11","0.8","58","11"
"","","","feedback","dfghdfgh","bdp_trlrn","Tue Oct 05 2021 13:21:44 GMT-0400 (Eastern Daylight Time)","255085","Untrustworthy,Trustworthy","html-keyboard-response","129","109651","0.0-18.0-3.10","","null","","<div class='trialDiv'><img src='trustrating_stim/white_mw084.bmp'><br><font class='baseline'><strong>Richard</strong><p>Received: <strong>20</strong></font> &nbsp; &nbsp; &nbsp; &nbsp; &nbsp; &nbsp;<font class='posOutcome'>Shared back: <strong>10</strong></font></font><div class='respPicDiv'><img src='img/responseButtonOffersNo0_wht.png' class='respPic'></div></div>","null","3","Richard","trustrating_stim/white_mw084.bmp","Shared","0.8,0.4","11","0.8","68","11"
"","","","decision","dfghdfgh","bdp_trlrn","Tue Oct 05 2021 13:21:44 GMT-0400 (Eastern Daylight Time)","255085","Untrustworthy,Trustworthy","html-keyboard-response","130","109689","0.0-18.0-1.11","","38","","<div class='trialDiv'><img src='trustrating_stim/white_mw035.bmp'><br><font class='baseline'><strong>Sean</strong><p>Choose number of points to send.</font><div class='respPicDiv'><img src='img/responseButtonOffersNo0L.png' class='respPic'></div></div>","5","3","Sean","trustrating_stim/white_mw035.bmp","Kept","0.6,0.2","14","0.6","73","12"
"","","","decisionFB","dfghdfgh","bdp_trlrn","Tue Oct 05 2021 13:21:44 GMT-0400 (Eastern Daylight Time)","255085","Untrustworthy,Trustworthy","html-keyboard-response","131","109941","0.0-18.0-2.11","","null","","<div class='trialDiv'><img src='trustrating_stim/white_mw035.bmp'><br><font class='baseline'><strong>Sean</strong><p>Choose number of points to send.</font><div class='respPicDiv'><img src='img/responseButtonOffersNo0L5.png' class='respPic'></div></div>","null","3","Sean","trustrating_stim/white_mw035.bmp","Kept","0.6,0.2","14","0.6","68","12"
"","","","feedback","dfghdfgh","bdp_trlrn","Tue Oct 05 2021 13:21:44 GMT-0400 (Eastern Daylight Time)","255085","Untrustworthy,Trustworthy","html-keyboard-response","132","110941","0.0-18.0-3.11","","null","","<div class='trialDiv'><img src='trustrating_stim/white_mw035.bmp'><br><font class='baseline'><strong>Sean</strong><p>Received: <strong>20</strong></font> &nbsp; &nbsp; &nbsp; &nbsp; &nbsp; &nbsp;<font class='negOutcome'>Shared back: <strong>0</strong></font></font><div class='respPicDiv'><img src='img/responseButtonOffersNo0_wht.png' class='respPic'></div></div>","null","3","Sean","trustrating_stim/white_mw035.bmp","Kept","0.6,0.2","14","0.6","68","12"
"","","","decision","dfghdfgh","bdp_trlrn","Tue Oct 05 2021 13:21:44 GMT-0400 (Eastern Daylight Time)","255085","Untrustworthy,Trustworthy","html-keyboard-response","133","111020","0.0-18.0-1.12","","78","","<div class='trialDiv'><img src='trustrating_stim/white_mw099.bmp'><br><font class='baseline'><strong>Jonathan</strong><p>Choose number of points to send.</font><div class='respPicDiv'><img src='img/responseButtonOffersNo0L.png' class='respPic'></div></div>","5","4","Jonathan","trustrating_stim/white_mw099.bmp","Kept","0.2,0.6","10","0.2","73","13"
"","","","decisionFB","dfghdfgh","bdp_trlrn","Tue Oct 05 2021 13:21:44 GMT-0400 (Eastern Daylight Time)","255085","Untrustworthy,Trustworthy","html-keyboard-response","134","111271","0.0-18.0-2.12","","null","","<div class='trialDiv'><img src='trustrating_stim/white_mw099.bmp'><br><font class='baseline'><strong>Jonathan</strong><p>Choose number of points to send.</font><div class='respPicDiv'><img src='img/responseButtonOffersNo0L5.png' class='respPic'></div></div>","null","4","Jonathan","trustrating_stim/white_mw099.bmp","Kept","0.2,0.6","10","0.2","68","13"
"","","","feedback","dfghdfgh","bdp_trlrn","Tue Oct 05 2021 13:21:44 GMT-0400 (Eastern Daylight Time)","255085","Untrustworthy,Trustworthy","html-keyboard-response","135","112273","0.0-18.0-3.12","","null","","<div class='trialDiv'><img src='trustrating_stim/white_mw099.bmp'><br><font class='baseline'><strong>Jonathan</strong><p>Received: <strong>20</strong></font> &nbsp; &nbsp; &nbsp; &nbsp; &nbsp; &nbsp;<font class='negOutcome'>Shared back: <strong>0</strong></font></font><div class='respPicDiv'><img src='img/responseButtonOffersNo0_wht.png' class='respPic'></div></div>","null","4","Jonathan","trustrating_stim/white_mw099.bmp","Kept","0.2,0.6","10","0.2","68","13"
"","","","decision","dfghdfgh","bdp_trlrn","Tue Oct 05 2021 13:21:44 GMT-0400 (Eastern Daylight Time)","255085","Untrustworthy,Trustworthy","html-keyboard-response","136","112456","0.0-18.0-1.13","","183","","<div class='trialDiv'><img src='trustrating_stim/white_mw046.bmp'><br><font class='baseline'><strong>Joseph</strong><p>Choose number of points to send.</font><div class='respPicDiv'><img src='img/responseButtonOffersNo0L.png' class='respPic'></div></div>","5","4","Joseph","trustrating_stim/white_mw046.bmp","Shared","0.4,0.8","11","0.4","73","14"
"","","","decisionFB","dfghdfgh","bdp_trlrn","Tue Oct 05 2021 13:21:44 GMT-0400 (Eastern Daylight Time)","255085","Untrustworthy,Trustworthy","html-keyboard-response","137","112708","0.0-18.0-2.13","","null","","<div class='trialDiv'><img src='trustrating_stim/white_mw046.bmp'><br><font class='baseline'><strong>Joseph</strong><p>Choose number of points to send.</font><div class='respPicDiv'><img src='img/responseButtonOffersNo0L5.png' class='respPic'></div></div>","null","4","Joseph","trustrating_stim/white_mw046.bmp","Shared","0.4,0.8","11","0.4","68","14"
"","","","feedback","dfghdfgh","bdp_trlrn","Tue Oct 05 2021 13:21:44 GMT-0400 (Eastern Daylight Time)","255085","Untrustworthy,Trustworthy","html-keyboard-response","138","113709","0.0-18.0-3.13","","null","","<div class='trialDiv'><img src='trustrating_stim/white_mw046.bmp'><br><font class='baseline'><strong>Joseph</strong><p>Received: <strong>20</strong></font> &nbsp; &nbsp; &nbsp; &nbsp; &nbsp; &nbsp;<font class='posOutcome'>Shared back: <strong>10</strong></font></font><div class='respPicDiv'><img src='img/responseButtonOffersNo0_wht.png' class='respPic'></div></div>","null","4","Joseph","trustrating_stim/white_mw046.bmp","Shared","0.4,0.8","11","0.4","78","14"
"","","","decision","dfghdfgh","bdp_trlrn","Tue Oct 05 2021 13:21:44 GMT-0400 (Eastern Daylight Time)","255085","Untrustworthy,Trustworthy","html-keyboard-response","139","113723","0.0-18.0-1.14","","14","","<div class='trialDiv'><img src='trustrating_stim/white_mw084.bmp'><br><font class='baseline'><strong>Richard</strong><p>Choose number of points to send.</font><div class='respPicDiv'><img src='img/responseButtonOffersNo0L.png' class='respPic'></div></div>","5","4","Richard","trustrating_stim/white_mw084.bmp","Shared","0.8,0.4","11","0.8","83","15"
"","","","decisionFB","dfghdfgh","bdp_trlrn","Tue Oct 05 2021 13:21:44 GMT-0400 (Eastern Daylight Time)","255085","Untrustworthy,Trustworthy","html-keyboard-response","140","113975","0.0-18.0-2.14","","null","","<div class='trialDiv'><img src='trustrating_stim/white_mw084.bmp'><br><font class='baseline'><strong>Richard</strong><p>Choose number of points to send.</font><div class='respPicDiv'><img src='img/responseButtonOffersNo0L5.png' class='respPic'></div></div>","null","4","Richard","trustrating_stim/white_mw084.bmp","Shared","0.8,0.4","11","0.8","78","15"
"","","","feedback","dfghdfgh","bdp_trlrn","Tue Oct 05 2021 13:21:44 GMT-0400 (Eastern Daylight Time)","255085","Untrustworthy,Trustworthy","html-keyboard-response","141","114976","0.0-18.0-3.14","","null","","<div class='trialDiv'><img src='trustrating_stim/white_mw084.bmp'><br><font class='baseline'><strong>Richard</strong><p>Received: <strong>20</strong></font> &nbsp; &nbsp; &nbsp; &nbsp; &nbsp; &nbsp;<font class='posOutcome'>Shared back: <strong>10</strong></font></font><div class='respPicDiv'><img src='img/responseButtonOffersNo0_wht.png' class='respPic'></div></div>","null","4","Richard","trustrating_stim/white_mw084.bmp","Shared","0.8,0.4","11","0.8","88","15"
"","","","decision","dfghdfgh","bdp_trlrn","Tue Oct 05 2021 13:21:44 GMT-0400 (Eastern Daylight Time)","255085","Untrustworthy,Trustworthy","html-keyboard-response","142","115067","0.0-18.0-1.15","","91","","<div class='trialDiv'><img src='trustrating_stim/white_mw035.bmp'><br><font class='baseline'><strong>Sean</strong><p>Choose number of points to send.</font><div class='respPicDiv'><img src='img/responseButtonOffersNo0L.png' class='respPic'></div></div>","5","4","Sean","trustrating_stim/white_mw035.bmp","Kept","0.6,0.2","14","0.6","93","16"
"","","","decisionFB","dfghdfgh","bdp_trlrn","Tue Oct 05 2021 13:21:44 GMT-0400 (Eastern Daylight Time)","255085","Untrustworthy,Trustworthy","html-keyboard-response","143","115318","0.0-18.0-2.15","","null","","<div class='trialDiv'><img src='trustrating_stim/white_mw035.bmp'><br><font class='baseline'><strong>Sean</strong><p>Choose number of points to send.</font><div class='respPicDiv'><img src='img/responseButtonOffersNo0L5.png' class='respPic'></div></div>","null","4","Sean","trustrating_stim/white_mw035.bmp","Kept","0.6,0.2","14","0.6","88","16"
"","","","feedback","dfghdfgh","bdp_trlrn","Tue Oct 05 2021 13:21:44 GMT-0400 (Eastern Daylight Time)","255085","Untrustworthy,Trustworthy","html-keyboard-response","144","116320","0.0-18.0-3.15","","null","","<div class='trialDiv'><img src='trustrating_stim/white_mw035.bmp'><br><font class='baseline'><strong>Sean</strong><p>Received: <strong>20</strong></font> &nbsp; &nbsp; &nbsp; &nbsp; &nbsp; &nbsp;<font class='negOutcome'>Shared back: <strong>0</strong></font></font><div class='respPicDiv'><img src='img/responseButtonOffersNo0_wht.png' class='respPic'></div></div>","null","4","Sean","trustrating_stim/white_mw035.bmp","Kept","0.6,0.2","14","0.6","88","16"
"","","","decision","dfghdfgh","bdp_trlrn","Tue Oct 05 2021 13:21:44 GMT-0400 (Eastern Daylight Time)","255085","Untrustworthy,Trustworthy","html-keyboard-response","145","116381","0.0-18.0-1.16","","61","","<div class='trialDiv'><img src='trustrating_stim/white_mw046.bmp'><br><font class='baseline'><strong>Joseph</strong><p>Choose number of points to send.</font><div class='respPicDiv'><img src='img/responseButtonOffersNo0L.png' class='respPic'></div></div>","5","5","Joseph","trustrating_stim/white_mw046.bmp","Shared","0.4,0.8","11","0.4","93","17"
"","","","decisionFB","dfghdfgh","bdp_trlrn","Tue Oct 05 2021 13:21:44 GMT-0400 (Eastern Daylight Time)","255085","Untrustworthy,Trustworthy","html-keyboard-response","146","116631","0.0-18.0-2.16","","null","","<div class='trialDiv'><img src='trustrating_stim/white_mw046.bmp'><br><font class='baseline'><strong>Joseph</strong><p>Choose number of points to send.</font><div class='respPicDiv'><img src='img/responseButtonOffersNo0L5.png' class='respPic'></div></div>","null","5","Joseph","trustrating_stim/white_mw046.bmp","Shared","0.4,0.8","11","0.4","88","17"
"","","","feedback","dfghdfgh","bdp_trlrn","Tue Oct 05 2021 13:21:44 GMT-0400 (Eastern Daylight Time)","255085","Untrustworthy,Trustworthy","html-keyboard-response","147","117634","0.0-18.0-3.16","","null","","<div class='trialDiv'><img src='trustrating_stim/white_mw046.bmp'><br><font class='baseline'><strong>Joseph</strong><p>Received: <strong>20</strong></font> &nbsp; &nbsp; &nbsp; &nbsp; &nbsp; &nbsp;<font class='posOutcome'>Shared back: <strong>10</strong></font></font><div class='respPicDiv'><img src='img/responseButtonOffersNo0_wht.png' class='respPic'></div></div>","null","5","Joseph","trustrating_stim/white_mw046.bmp","Shared","0.4,0.8","11","0.4","98","17"
"","","","decision","dfghdfgh","bdp_trlrn","Tue Oct 05 2021 13:21:44 GMT-0400 (Eastern Daylight Time)","255085","Untrustworthy,Trustworthy","html-keyboard-response","148","117715","0.0-18.0-1.17","","81","","<div class='trialDiv'><img src='trustrating_stim/white_mw084.bmp'><br><font class='baseline'><strong>Richard</strong><p>Choose number of points to send.</font><div class='respPicDiv'><img src='img/responseButtonOffersNo0L.png' class='respPic'></div></div>","5","5","Richard","trustrating_stim/white_mw084.bmp","Shared","0.8,0.4","11","0.8","103","18"
"","","","decisionFB","dfghdfgh","bdp_trlrn","Tue Oct 05 2021 13:21:44 GMT-0400 (Eastern Daylight Time)","255085","Untrustworthy,Trustworthy","html-keyboard-response","149","117966","0.0-18.0-2.17","","null","","<div class='trialDiv'><img src='trustrating_stim/white_mw084.bmp'><br><font class='baseline'><strong>Richard</strong><p>Choose number of points to send.</font><div class='respPicDiv'><img src='img/responseButtonOffersNo0L5.png' class='respPic'></div></div>","null","5","Richard","trustrating_stim/white_mw084.bmp","Shared","0.8,0.4","11","0.8","98","18"
"","","","feedback","dfghdfgh","bdp_trlrn","Tue Oct 05 2021 13:21:44 GMT-0400 (Eastern Daylight Time)","255085","Untrustworthy,Trustworthy","html-keyboard-response","150","118969","0.0-18.0-3.17","","null","","<div class='trialDiv'><img src='trustrating_stim/white_mw084.bmp'><br><font class='baseline'><strong>Richard</strong><p>Received: <strong>20</strong></font> &nbsp; &nbsp; &nbsp; &nbsp; &nbsp; &nbsp;<font class='posOutcome'>Shared back: <strong>10</strong></font></font><div class='respPicDiv'><img src='img/responseButtonOffersNo0_wht.png' class='respPic'></div></div>","null","5","Richard","trustrating_stim/white_mw084.bmp","Shared","0.8,0.4","11","0.8","108","18"
"","","","decision","dfghdfgh","bdp_trlrn","Tue Oct 05 2021 13:21:44 GMT-0400 (Eastern Daylight Time)","255085","Untrustworthy,Trustworthy","html-keyboard-response","151","119021","0.0-18.0-1.18","","52","","<div class='trialDiv'><img src='trustrating_stim/white_mw099.bmp'><br><font class='baseline'><strong>Jonathan</strong><p>Choose number of points to send.</font><div class='respPicDiv'><img src='img/responseButtonOffersNo0L.png' class='respPic'></div></div>","5","5","Jonathan","trustrating_stim/white_mw099.bmp","Kept","0.2,0.6","10","0.2","113","19"
"","","","decisionFB","dfghdfgh","bdp_trlrn","Tue Oct 05 2021 13:21:44 GMT-0400 (Eastern Daylight Time)","255085","Untrustworthy,Trustworthy","html-keyboard-response","152","119273","0.0-18.0-2.18","","null","","<div class='trialDiv'><img src='trustrating_stim/white_mw099.bmp'><br><font class='baseline'><strong>Jonathan</strong><p>Choose number of points to send.</font><div class='respPicDiv'><img src='img/responseButtonOffersNo0L5.png' class='respPic'></div></div>","null","5","Jonathan","trustrating_stim/white_mw099.bmp","Kept","0.2,0.6","10","0.2","108","19"
"","","","feedback","dfghdfgh","bdp_trlrn","Tue Oct 05 2021 13:21:44 GMT-0400 (Eastern Daylight Time)","255085","Untrustworthy,Trustworthy","html-keyboard-response","153","120274","0.0-18.0-3.18","","null","","<div class='trialDiv'><img src='trustrating_stim/white_mw099.bmp'><br><font class='baseline'><strong>Jonathan</strong><p>Received: <strong>20</strong></font> &nbsp; &nbsp; &nbsp; &nbsp; &nbsp; &nbsp;<font class='negOutcome'>Shared back: <strong>0</strong></font></font><div class='respPicDiv'><img src='img/responseButtonOffersNo0_wht.png' class='respPic'></div></div>","null","5","Jonathan","trustrating_stim/white_mw099.bmp","Kept","0.2,0.6","10","0.2","108","19"
"","","","decision","dfghdfgh","bdp_trlrn","Tue Oct 05 2021 13:21:44 GMT-0400 (Eastern Daylight Time)","255085","Untrustworthy,Trustworthy","html-keyboard-response","154","120363","0.0-18.0-1.19","","89","","<div class='trialDiv'><img src='trustrating_stim/white_mw035.bmp'><br><font class='baseline'><strong>Sean</strong><p>Choose number of points to send.</font><div class='respPicDiv'><img src='img/responseButtonOffersNo0L.png' class='respPic'></div></div>","5","5","Sean","trustrating_stim/white_mw035.bmp","Kept","0.6,0.2","14","0.6","113","20"
"","","","decisionFB","dfghdfgh","bdp_trlrn","Tue Oct 05 2021 13:21:44 GMT-0400 (Eastern Daylight Time)","255085","Untrustworthy,Trustworthy","html-keyboard-response","155","120614","0.0-18.0-2.19","","null","","<div class='trialDiv'><img src='trustrating_stim/white_mw035.bmp'><br><font class='baseline'><strong>Sean</strong><p>Choose number of points to send.</font><div class='respPicDiv'><img src='img/responseButtonOffersNo0L5.png' class='respPic'></div></div>","null","5","Sean","trustrating_stim/white_mw035.bmp","Kept","0.6,0.2","14","0.6","108","20"
"","","","feedback","dfghdfgh","bdp_trlrn","Tue Oct 05 2021 13:21:44 GMT-0400 (Eastern Daylight Time)","255085","Untrustworthy,Trustworthy","html-keyboard-response","156","121614","0.0-18.0-3.19","","null","","<div class='trialDiv'><img src='trustrating_stim/white_mw035.bmp'><br><font class='baseline'><strong>Sean</strong><p>Received: <strong>20</strong></font> &nbsp; &nbsp; &nbsp; &nbsp; &nbsp; &nbsp;<font class='negOutcome'>Shared back: <strong>0</strong></font></font><div class='respPicDiv'><img src='img/responseButtonOffersNo0_wht.png' class='respPic'></div></div>","null","5","Sean","trustrating_stim/white_mw035.bmp","Kept","0.6,0.2","14","0.6","108","20"
"","","","decision","dfghdfgh","bdp_trlrn","Tue Oct 05 2021 13:21:44 GMT-0400 (Eastern Daylight Time)","255085","Untrustworthy,Trustworthy","html-keyboard-response","157","121662","0.0-18.0-1.20","","48","","<div class='trialDiv'><img src='trustrating_stim/white_mw084.bmp'><br><font class='baseline'><strong>Richard</strong><p>Choose number of points to send.</font><div class='respPicDiv'><img src='img/responseButtonOffersNo0L.png' class='respPic'></div></div>","5","6","Richard","trustrating_stim/white_mw084.bmp","Shared","0.8,0.4","11","0.8","113","21"
"","","","decisionFB","dfghdfgh","bdp_trlrn","Tue Oct 05 2021 13:21:44 GMT-0400 (Eastern Daylight Time)","255085","Untrustworthy,Trustworthy","html-keyboard-response","158","121912","0.0-18.0-2.20","","null","","<div class='trialDiv'><img src='trustrating_stim/white_mw084.bmp'><br><font class='baseline'><strong>Richard</strong><p>Choose number of points to send.</font><div class='respPicDiv'><img src='img/responseButtonOffersNo0L5.png' class='respPic'></div></div>","null","6","Richard","trustrating_stim/white_mw084.bmp","Shared","0.8,0.4","11","0.8","108","21"
"","","","feedback","dfghdfgh","bdp_trlrn","Tue Oct 05 2021 13:21:44 GMT-0400 (Eastern Daylight Time)","255085","Untrustworthy,Trustworthy","html-keyboard-response","159","122915","0.0-18.0-3.20","","null","","<div class='trialDiv'><img src='trustrating_stim/white_mw084.bmp'><br><font class='baseline'><strong>Richard</strong><p>Received: <strong>20</strong></font> &nbsp; &nbsp; &nbsp; &nbsp; &nbsp; &nbsp;<font class='posOutcome'>Shared back: <strong>10</strong></font></font><div class='respPicDiv'><img src='img/responseButtonOffersNo0_wht.png' class='respPic'></div></div>","null","6","Richard","trustrating_stim/white_mw084.bmp","Shared","0.8,0.4","11","0.8","118","21"
"","","","decision","dfghdfgh","bdp_trlrn","Tue Oct 05 2021 13:21:44 GMT-0400 (Eastern Daylight Time)","255085","Untrustworthy,Trustworthy","html-keyboard-response","160","122957","0.0-18.0-1.21","","42","","<div class='trialDiv'><img src='trustrating_stim/white_mw035.bmp'><br><font class='baseline'><strong>Sean</strong><p>Choose number of points to send.</font><div class='respPicDiv'><img src='img/responseButtonOffersNo0L.png' class='respPic'></div></div>","5","6","Sean","trustrating_stim/white_mw035.bmp","Kept","0.6,0.2","14","0.6","123","22"
"","","","decisionFB","dfghdfgh","bdp_trlrn","Tue Oct 05 2021 13:21:44 GMT-0400 (Eastern Daylight Time)","255085","Untrustworthy,Trustworthy","html-keyboard-response","161","123208","0.0-18.0-2.21","","null","","<div class='trialDiv'><img src='trustrating_stim/white_mw035.bmp'><br><font class='baseline'><strong>Sean</strong><p>Choose number of points to send.</font><div class='respPicDiv'><img src='img/responseButtonOffersNo0L5.png' class='respPic'></div></div>","null","6","Sean","trustrating_stim/white_mw035.bmp","Kept","0.6,0.2","14","0.6","118","22"
"","","","feedback","dfghdfgh","bdp_trlrn","Tue Oct 05 2021 13:21:44 GMT-0400 (Eastern Daylight Time)","255085","Untrustworthy,Trustworthy","html-keyboard-response","162","124208","0.0-18.0-3.21","","null","","<div class='trialDiv'><img src='trustrating_stim/white_mw035.bmp'><br><font class='baseline'><strong>Sean</strong><p>Received: <strong>20</strong></font> &nbsp; &nbsp; &nbsp; &nbsp; &nbsp; &nbsp;<font class='negOutcome'>Shared back: <strong>0</strong></font></font><div class='respPicDiv'><img src='img/responseButtonOffersNo0_wht.png' class='respPic'></div></div>","null","6","Sean","trustrating_stim/white_mw035.bmp","Kept","0.6,0.2","14","0.6","118","22"
"","","","decision","dfghdfgh","bdp_trlrn","Tue Oct 05 2021 13:21:44 GMT-0400 (Eastern Daylight Time)","255085","Untrustworthy,Trustworthy","html-keyboard-response","163","124247","0.0-18.0-1.22","","38","","<div class='trialDiv'><img src='trustrating_stim/white_mw099.bmp'><br><font class='baseline'><strong>Jonathan</strong><p>Choose number of points to send.</font><div class='respPicDiv'><img src='img/responseButtonOffersNo0L.png' class='respPic'></div></div>","5","6","Jonathan","trustrating_stim/white_mw099.bmp","Kept","0.2,0.6","10","0.2","123","23"
"","","","decisionFB","dfghdfgh","bdp_trlrn","Tue Oct 05 2021 13:21:44 GMT-0400 (Eastern Daylight Time)","255085","Untrustworthy,Trustworthy","html-keyboard-response","164","124498","0.0-18.0-2.22","","null","","<div class='trialDiv'><img src='trustrating_stim/white_mw099.bmp'><br><font class='baseline'><strong>Jonathan</strong><p>Choose number of points to send.</font><div class='respPicDiv'><img src='img/responseButtonOffersNo0L5.png' class='respPic'></div></div>","null","6","Jonathan","trustrating_stim/white_mw099.bmp","Kept","0.2,0.6","10","0.2","118","23"
"","","","feedback","dfghdfgh","bdp_trlrn","Tue Oct 05 2021 13:21:44 GMT-0400 (Eastern Daylight Time)","255085","Untrustworthy,Trustworthy","html-keyboard-response","165","125500","0.0-18.0-3.22","","null","","<div class='trialDiv'><img src='trustrating_stim/white_mw099.bmp'><br><font class='baseline'><strong>Jonathan</strong><p>Received: <strong>20</strong></font> &nbsp; &nbsp; &nbsp; &nbsp; &nbsp; &nbsp;<font class='negOutcome'>Shared back: <strong>0</strong></font></font><div class='respPicDiv'><img src='img/responseButtonOffersNo0_wht.png' class='respPic'></div></div>","null","6","Jonathan","trustrating_stim/white_mw099.bmp","Kept","0.2,0.6","10","0.2","118","23"
"","","","decision","dfghdfgh","bdp_trlrn","Tue Oct 05 2021 13:21:44 GMT-0400 (Eastern Daylight Time)","255085","Untrustworthy,Trustworthy","html-keyboard-response","166","125562","0.0-18.0-1.23","","61","","<div class='trialDiv'><img src='trustrating_stim/white_mw046.bmp'><br><font class='baseline'><strong>Joseph</strong><p>Choose number of points to send.</font><div class='respPicDiv'><img src='img/responseButtonOffersNo0L.png' class='respPic'></div></div>","5","6","Joseph","trustrating_stim/white_mw046.bmp","Kept","0.4,0.8","11","0.4","123","24"
"","","","decisionFB","dfghdfgh","bdp_trlrn","Tue Oct 05 2021 13:21:44 GMT-0400 (Eastern Daylight Time)","255085","Untrustworthy,Trustworthy","html-keyboard-response","167","125812","0.0-18.0-2.23","","null","","<div class='trialDiv'><img src='trustrating_stim/white_mw046.bmp'><br><font class='baseline'><strong>Joseph</strong><p>Choose number of points to send.</font><div class='respPicDiv'><img src='img/responseButtonOffersNo0L5.png' class='respPic'></div></div>","null","6","Joseph","trustrating_stim/white_mw046.bmp","Kept","0.4,0.8","11","0.4","118","24"
"","","","feedback","dfghdfgh","bdp_trlrn","Tue Oct 05 2021 13:21:44 GMT-0400 (Eastern Daylight Time)","255085","Untrustworthy,Trustworthy","html-keyboard-response","168","126815","0.0-18.0-3.23","","null","","<div class='trialDiv'><img src='trustrating_stim/white_mw046.bmp'><br><font class='baseline'><strong>Joseph</strong><p>Received: <strong>20</strong></font> &nbsp; &nbsp; &nbsp; &nbsp; &nbsp; &nbsp;<font class='negOutcome'>Shared back: <strong>0</strong></font></font><div class='respPicDiv'><img src='img/responseButtonOffersNo0_wht.png' class='respPic'></div></div>","null","6","Joseph","trustrating_stim/white_mw046.bmp","Kept","0.4,0.8","11","0.4","118","24"
"","","","decision","dfghdfgh","bdp_trlrn","Tue Oct 05 2021 13:21:44 GMT-0400 (Eastern Daylight Time)","255085","Untrustworthy,Trustworthy","html-keyboard-response","169","126901","0.0-18.0-1.24","","86","","<div class='trialDiv'><img src='trustrating_stim/white_mw099.bmp'><br><font class='baseline'><strong>Jonathan</strong><p>Choose number of points to send.</font><div class='respPicDiv'><img src='img/responseButtonOffersNo0L.png' class='respPic'></div></div>","5","7","Jonathan","trustrating_stim/white_mw099.bmp","Kept","0.2,0.6","10","0.2","123","25"
"","","","decisionFB","dfghdfgh","bdp_trlrn","Tue Oct 05 2021 13:21:44 GMT-0400 (Eastern Daylight Time)","255085","Untrustworthy,Trustworthy","html-keyboard-response","170","127153","0.0-18.0-2.24","","null","","<div class='trialDiv'><img src='trustrating_stim/white_mw099.bmp'><br><font class='baseline'><strong>Jonathan</strong><p>Choose number of points to send.</font><div class='respPicDiv'><img src='img/responseButtonOffersNo0L5.png' class='respPic'></div></div>","null","7","Jonathan","trustrating_stim/white_mw099.bmp","Kept","0.2,0.6","10","0.2","118","25"
"","","","feedback","dfghdfgh","bdp_trlrn","Tue Oct 05 2021 13:21:44 GMT-0400 (Eastern Daylight Time)","255085","Untrustworthy,Trustworthy","html-keyboard-response","171","128154","0.0-18.0-3.24","","null","","<div class='trialDiv'><img src='trustrating_stim/white_mw099.bmp'><br><font class='baseline'><strong>Jonathan</strong><p>Received: <strong>20</strong></font> &nbsp; &nbsp; &nbsp; &nbsp; &nbsp; &nbsp;<font class='negOutcome'>Shared back: <strong>0</strong></font></font><div class='respPicDiv'><img src='img/responseButtonOffersNo0_wht.png' class='respPic'></div></div>","null","7","Jonathan","trustrating_stim/white_mw099.bmp","Kept","0.2,0.6","10","0.2","118","25"
"","","","decision","dfghdfgh","bdp_trlrn","Tue Oct 05 2021 13:21:44 GMT-0400 (Eastern Daylight Time)","255085","Untrustworthy,Trustworthy","html-keyboard-response","172","128233","0.0-18.0-1.25","","79","","<div class='trialDiv'><img src='trustrating_stim/white_mw035.bmp'><br><font class='baseline'><strong>Sean</strong><p>Choose number of points to send.</font><div class='respPicDiv'><img src='img/responseButtonOffersNo0L.png' class='respPic'></div></div>","5","7","Sean","trustrating_stim/white_mw035.bmp","Kept","0.6,0.2","14","0.6","123","26"
"","","","decisionFB","dfghdfgh","bdp_trlrn","Tue Oct 05 2021 13:21:44 GMT-0400 (Eastern Daylight Time)","255085","Untrustworthy,Trustworthy","html-keyboard-response","173","128485","0.0-18.0-2.25","","null","","<div class='trialDiv'><img src='trustrating_stim/white_mw035.bmp'><br><font class='baseline'><strong>Sean</strong><p>Choose number of points to send.</font><div class='respPicDiv'><img src='img/responseButtonOffersNo0L5.png' class='respPic'></div></div>","null","7","Sean","trustrating_stim/white_mw035.bmp","Kept","0.6,0.2","14","0.6","118","26"
"","","","feedback","dfghdfgh","bdp_trlrn","Tue Oct 05 2021 13:21:44 GMT-0400 (Eastern Daylight Time)","255085","Untrustworthy,Trustworthy","html-keyboard-response","174","129485","0.0-18.0-3.25","","null","","<div class='trialDiv'><img src='trustrating_stim/white_mw035.bmp'><br><font class='baseline'><strong>Sean</strong><p>Received: <strong>20</strong></font> &nbsp; &nbsp; &nbsp; &nbsp; &nbsp; &nbsp;<font class='negOutcome'>Shared back: <strong>0</strong></font></font><div class='respPicDiv'><img src='img/responseButtonOffersNo0_wht.png' class='respPic'></div></div>","null","7","Sean","trustrating_stim/white_mw035.bmp","Kept","0.6,0.2","14","0.6","118","26"
"","","","decision","dfghdfgh","bdp_trlrn","Tue Oct 05 2021 13:21:44 GMT-0400 (Eastern Daylight Time)","255085","Untrustworthy,Trustworthy","html-keyboard-response","175","129597","0.0-18.0-1.26","","111","","<div class='trialDiv'><img src='trustrating_stim/white_mw046.bmp'><br><font class='baseline'><strong>Joseph</strong><p>Choose number of points to send.</font><div class='respPicDiv'><img src='img/responseButtonOffersNo0L.png' class='respPic'></div></div>","5","7","Joseph","trustrating_stim/white_mw046.bmp","Kept","0.4,0.8","11","0.4","123","27"
"","","","decisionFB","dfghdfgh","bdp_trlrn","Tue Oct 05 2021 13:21:44 GMT-0400 (Eastern Daylight Time)","255085","Untrustworthy,Trustworthy","html-keyboard-response","176","129848","0.0-18.0-2.26","","null","","<div class='trialDiv'><img src='trustrating_stim/white_mw046.bmp'><br><font class='baseline'><strong>Joseph</strong><p>Choose number of points to send.</font><div class='respPicDiv'><img src='img/responseButtonOffersNo0L5.png' class='respPic'></div></div>","null","7","Joseph","trustrating_stim/white_mw046.bmp","Kept","0.4,0.8","11","0.4","118","27"
"","","","feedback","dfghdfgh","bdp_trlrn","Tue Oct 05 2021 13:21:44 GMT-0400 (Eastern Daylight Time)","255085","Untrustworthy,Trustworthy","html-keyboard-response","177","130851","0.0-18.0-3.26","","null","","<div class='trialDiv'><img src='trustrating_stim/white_mw046.bmp'><br><font class='baseline'><strong>Joseph</strong><p>Received: <strong>20</strong></font> &nbsp; &nbsp; &nbsp; &nbsp; &nbsp; &nbsp;<font class='negOutcome'>Shared back: <strong>0</strong></font></font><div class='respPicDiv'><img src='img/responseButtonOffersNo0_wht.png' class='respPic'></div></div>","null","7","Joseph","trustrating_stim/white_mw046.bmp","Kept","0.4,0.8","11","0.4","118","27"
"","","","decision","dfghdfgh","bdp_trlrn","Tue Oct 05 2021 13:21:44 GMT-0400 (Eastern Daylight Time)","255085","Untrustworthy,Trustworthy","html-keyboard-response","178","130959","0.0-18.0-1.27","","108","","<div class='trialDiv'><img src='trustrating_stim/white_mw084.bmp'><br><font class='baseline'><strong>Richard</strong><p>Choose number of points to send.</font><div class='respPicDiv'><img src='img/responseButtonOffersNo0L.png' class='respPic'></div></div>","5","7","Richard","trustrating_stim/white_mw084.bmp","Shared","0.8,0.4","11","0.8","123","28"
"","","","decisionFB","dfghdfgh","bdp_trlrn","Tue Oct 05 2021 13:21:44 GMT-0400 (Eastern Daylight Time)","255085","Untrustworthy,Trustworthy","html-keyboard-response","179","131210","0.0-18.0-2.27","","null","","<div class='trialDiv'><img src='trustrating_stim/white_mw084.bmp'><br><font class='baseline'><strong>Richard</strong><p>Choose number of points to send.</font><div class='respPicDiv'><img src='img/responseButtonOffersNo0L5.png' class='respPic'></div></div>","null","7","Richard","trustrating_stim/white_mw084.bmp","Shared","0.8,0.4","11","0.8","118","28"
"","","","feedback","dfghdfgh","bdp_trlrn","Tue Oct 05 2021 13:21:44 GMT-0400 (Eastern Daylight Time)","255085","Untrustworthy,Trustworthy","html-keyboard-response","180","132210","0.0-18.0-3.27","","null","","<div class='trialDiv'><img src='trustrating_stim/white_mw084.bmp'><br><font class='baseline'><strong>Richard</strong><p>Received: <strong>20</strong></font> &nbsp; &nbsp; &nbsp; &nbsp; &nbsp; &nbsp;<font class='posOutcome'>Shared back: <strong>10</strong></font></font><div class='respPicDiv'><img src='img/responseButtonOffersNo0_wht.png' class='respPic'></div></div>","null","7","Richard","trustrating_stim/white_mw084.bmp","Shared","0.8,0.4","11","0.8","128","28"
"","","","decision","dfghdfgh","bdp_trlrn","Tue Oct 05 2021 13:21:44 GMT-0400 (Eastern Daylight Time)","255085","Untrustworthy,Trustworthy","html-keyboard-response","181","132367","0.0-18.0-1.28","","156","","<div class='trialDiv'><img src='trustrating_stim/white_mw099.bmp'><br><font class='baseline'><strong>Jonathan</strong><p>Choose number of points to send.</font><div class='respPicDiv'><img src='img/responseButtonOffersNo0L.png' class='respPic'></div></div>","5","8","Jonathan","trustrating_stim/white_mw099.bmp","Kept","0.2,0.6","10","0.2","133","29"
"","","","decisionFB","dfghdfgh","bdp_trlrn","Tue Oct 05 2021 13:21:44 GMT-0400 (Eastern Daylight Time)","255085","Untrustworthy,Trustworthy","html-keyboard-response","182","132619","0.0-18.0-2.28","","null","","<div class='trialDiv'><img src='trustrating_stim/white_mw099.bmp'><br><font class='baseline'><strong>Jonathan</strong><p>Choose number of points to send.</font><div class='respPicDiv'><img src='img/responseButtonOffersNo0L5.png' class='respPic'></div></div>","null","8","Jonathan","trustrating_stim/white_mw099.bmp","Kept","0.2,0.6","10","0.2","128","29"
"","","","feedback","dfghdfgh","bdp_trlrn","Tue Oct 05 2021 13:21:44 GMT-0400 (Eastern Daylight Time)","255085","Untrustworthy,Trustworthy","html-keyboard-response","183","133619","0.0-18.0-3.28","","null","","<div class='trialDiv'><img src='trustrating_stim/white_mw099.bmp'><br><font class='baseline'><strong>Jonathan</strong><p>Received: <strong>20</strong></font> &nbsp; &nbsp; &nbsp; &nbsp; &nbsp; &nbsp;<font class='negOutcome'>Shared back: <strong>0</strong></font></font><div class='respPicDiv'><img src='img/responseButtonOffersNo0_wht.png' class='respPic'></div></div>","null","8","Jonathan","trustrating_stim/white_mw099.bmp","Kept","0.2,0.6","10","0.2","128","29"
"","","","decision","dfghdfgh","bdp_trlrn","Tue Oct 05 2021 13:21:44 GMT-0400 (Eastern Daylight Time)","255085","Untrustworthy,Trustworthy","html-keyboard-response","184","133788","0.0-18.0-1.29","","169","","<div class='trialDiv'><img src='trustrating_stim/white_mw084.bmp'><br><font class='baseline'><strong>Richard</strong><p>Choose number of points to send.</font><div class='respPicDiv'><img src='img/responseButtonOffersNo0L.png' class='respPic'></div></div>","5","8","Richard","trustrating_stim/white_mw084.bmp","Shared","0.8,0.4","11","0.8","133","30"
"","","","decisionFB","dfghdfgh","bdp_trlrn","Tue Oct 05 2021 13:21:44 GMT-0400 (Eastern Daylight Time)","255085","Untrustworthy,Trustworthy","html-keyboard-response","185","134040","0.0-18.0-2.29","","null","","<div class='trialDiv'><img src='trustrating_stim/white_mw084.bmp'><br><font class='baseline'><strong>Richard</strong><p>Choose number of points to send.</font><div class='respPicDiv'><img src='img/responseButtonOffersNo0L5.png' class='respPic'></div></div>","null","8","Richard","trustrating_stim/white_mw084.bmp","Shared","0.8,0.4","11","0.8","128","30"
"","","","feedback","dfghdfgh","bdp_trlrn","Tue Oct 05 2021 13:21:44 GMT-0400 (Eastern Daylight Time)","255085","Untrustworthy,Trustworthy","html-keyboard-response","186","135041","0.0-18.0-3.29","","null","","<div class='trialDiv'><img src='trustrating_stim/white_mw084.bmp'><br><font class='baseline'><strong>Richard</strong><p>Received: <strong>20</strong></font> &nbsp; &nbsp; &nbsp; &nbsp; &nbsp; &nbsp;<font class='posOutcome'>Shared back: <strong>10</strong></font></font><div class='respPicDiv'><img src='img/responseButtonOffersNo0_wht.png' class='respPic'></div></div>","null","8","Richard","trustrating_stim/white_mw084.bmp","Shared","0.8,0.4","11","0.8","138","30"
"","","","decision","dfghdfgh","bdp_trlrn","Tue Oct 05 2021 13:21:44 GMT-0400 (Eastern Daylight Time)","255085","Untrustworthy,Trustworthy","html-keyboard-response","187","135185","0.0-18.0-1.30","","144","","<div class='trialDiv'><img src='trustrating_stim/white_mw046.bmp'><br><font class='baseline'><strong>Joseph</strong><p>Choose number of points to send.</font><div class='respPicDiv'><img src='img/responseButtonOffersNo0L.png' class='respPic'></div></div>","5","8","Joseph","trustrating_stim/white_mw046.bmp","Kept","0.4,0.8","11","0.4","143","31"
"","","","decisionFB","dfghdfgh","bdp_trlrn","Tue Oct 05 2021 13:21:44 GMT-0400 (Eastern Daylight Time)","255085","Untrustworthy,Trustworthy","html-keyboard-response","188","135437","0.0-18.0-2.30","","null","","<div class='trialDiv'><img src='trustrating_stim/white_mw046.bmp'><br><font class='baseline'><strong>Joseph</strong><p>Choose number of points to send.</font><div class='respPicDiv'><img src='img/responseButtonOffersNo0L5.png' class='respPic'></div></div>","null","8","Joseph","trustrating_stim/white_mw046.bmp","Kept","0.4,0.8","11","0.4","138","31"
"","","","feedback","dfghdfgh","bdp_trlrn","Tue Oct 05 2021 13:21:44 GMT-0400 (Eastern Daylight Time)","255085","Untrustworthy,Trustworthy","html-keyboard-response","189","136438","0.0-18.0-3.30","","null","","<div class='trialDiv'><img src='trustrating_stim/white_mw046.bmp'><br><font class='baseline'><strong>Joseph</strong><p>Received: <strong>20</strong></font> &nbsp; &nbsp; &nbsp; &nbsp; &nbsp; &nbsp;<font class='negOutcome'>Shared back: <strong>0</strong></font></font><div class='respPicDiv'><img src='img/responseButtonOffersNo0_wht.png' class='respPic'></div></div>","null","8","Joseph","trustrating_stim/white_mw046.bmp","Kept","0.4,0.8","11","0.4","138","31"
"","","","decision","dfghdfgh","bdp_trlrn","Tue Oct 05 2021 13:21:44 GMT-0400 (Eastern Daylight Time)","255085","Untrustworthy,Trustworthy","html-keyboard-response","190","136613","0.0-18.0-1.31","","175","","<div class='trialDiv'><img src='trustrating_stim/white_mw035.bmp'><br><font class='baseline'><strong>Sean</strong><p>Choose number of points to send.</font><div class='respPicDiv'><img src='img/responseButtonOffersNo0L.png' class='respPic'></div></div>","5","8","Sean","trustrating_stim/white_mw035.bmp","Shared","0.6,0.2","14","0.6","143","32"
"","","","decisionFB","dfghdfgh","bdp_trlrn","Tue Oct 05 2021 13:21:44 GMT-0400 (Eastern Daylight Time)","255085","Untrustworthy,Trustworthy","html-keyboard-response","191","136864","0.0-18.0-2.31","","null","","<div class='trialDiv'><img src='trustrating_stim/white_mw035.bmp'><br><font class='baseline'><strong>Sean</strong><p>Choose number of points to send.</font><div class='respPicDiv'><img src='img/responseButtonOffersNo0L5.png' class='respPic'></div></div>","null","8","Sean","trustrating_stim/white_mw035.bmp","Shared","0.6,0.2","14","0.6","138","32"
"","","","feedback","dfghdfgh","bdp_trlrn","Tue Oct 05 2021 13:21:44 GMT-0400 (Eastern Daylight Time)","255085","Untrustworthy,Trustworthy","html-keyboard-response","192","137865","0.0-18.0-3.31","","null","","<div class='trialDiv'><img src='trustrating_stim/white_mw035.bmp'><br><font class='baseline'><strong>Sean</strong><p>Received: <strong>20</strong></font> &nbsp; &nbsp; &nbsp; &nbsp; &nbsp; &nbsp;<font class='posOutcome'>Shared back: <strong>10</strong></font></font><div class='respPicDiv'><img src='img/responseButtonOffersNo0_wht.png' class='respPic'></div></div>","null","8","Sean","trustrating_stim/white_mw035.bmp","Shared","0.6,0.2","14","0.6","148","32"
"","","","decision","dfghdfgh","bdp_trlrn","Tue Oct 05 2021 13:21:44 GMT-0400 (Eastern Daylight Time)","255085","Untrustworthy,Trustworthy","html-keyboard-response","193","137923","0.0-18.0-1.32","","58","","<div class='trialDiv'><img src='trustrating_stim/white_mw099.bmp'><br><font class='baseline'><strong>Jonathan</strong><p>Choose number of points to send.</font><div class='respPicDiv'><img src='img/responseButtonOffersNo0L.png' class='respPic'></div></div>","5","9","Jonathan","trustrating_stim/white_mw099.bmp","Kept","0.2,0.6","10","0.2","153","33"
"","","","decisionFB","dfghdfgh","bdp_trlrn","Tue Oct 05 2021 13:21:44 GMT-0400 (Eastern Daylight Time)","255085","Untrustworthy,Trustworthy","html-keyboard-response","194","138174","0.0-18.0-2.32","","null","","<div class='trialDiv'><img src='trustrating_stim/white_mw099.bmp'><br><font class='baseline'><strong>Jonathan</strong><p>Choose number of points to send.</font><div class='respPicDiv'><img src='img/responseButtonOffersNo0L5.png' class='respPic'></div></div>","null","9","Jonathan","trustrating_stim/white_mw099.bmp","Kept","0.2,0.6","10","0.2","148","33"
"","","","feedback","dfghdfgh","bdp_trlrn","Tue Oct 05 2021 13:21:44 GMT-0400 (Eastern Daylight Time)","255085","Untrustworthy,Trustworthy","html-keyboard-response","195","139176","0.0-18.0-3.32","","null","","<div class='trialDiv'><img src='trustrating_stim/white_mw099.bmp'><br><font class='baseline'><strong>Jonathan</strong><p>Received: <strong>20</strong></font> &nbsp; &nbsp; &nbsp; &nbsp; &nbsp; &nbsp;<font class='negOutcome'>Shared back: <strong>0</strong></font></font><div class='respPicDiv'><img src='img/responseButtonOffersNo0_wht.png' class='respPic'></div></div>","null","9","Jonathan","trustrating_stim/white_mw099.bmp","Kept","0.2,0.6","10","0.2","148","33"
"","","","decision","dfghdfgh","bdp_trlrn","Tue Oct 05 2021 13:21:44 GMT-0400 (Eastern Daylight Time)","255085","Untrustworthy,Trustworthy","html-keyboard-response","196","139352","0.0-18.0-1.33","","176","","<div class='trialDiv'><img src='trustrating_stim/white_mw046.bmp'><br><font class='baseline'><strong>Joseph</strong><p>Choose number of points to send.</font><div class='respPicDiv'><img src='img/responseButtonOffersNo0L.png' class='respPic'></div></div>","5","9","Joseph","trustrating_stim/white_mw046.bmp","Kept","0.4,0.8","11","0.4","153","34"
"","","","decisionFB","dfghdfgh","bdp_trlrn","Tue Oct 05 2021 13:21:44 GMT-0400 (Eastern Daylight Time)","255085","Untrustworthy,Trustworthy","html-keyboard-response","197","139603","0.0-18.0-2.33","","null","","<div class='trialDiv'><img src='trustrating_stim/white_mw046.bmp'><br><font class='baseline'><strong>Joseph</strong><p>Choose number of points to send.</font><div class='respPicDiv'><img src='img/responseButtonOffersNo0L5.png' class='respPic'></div></div>","null","9","Joseph","trustrating_stim/white_mw046.bmp","Kept","0.4,0.8","11","0.4","148","34"
"","","","feedback","dfghdfgh","bdp_trlrn","Tue Oct 05 2021 13:21:44 GMT-0400 (Eastern Daylight Time)","255085","Untrustworthy,Trustworthy","html-keyboard-response","198","140605","0.0-18.0-3.33","","null","","<div class='trialDiv'><img src='trustrating_stim/white_mw046.bmp'><br><font class='baseline'><strong>Joseph</strong><p>Received: <strong>20</strong></font> &nbsp; &nbsp; &nbsp; &nbsp; &nbsp; &nbsp;<font class='negOutcome'>Shared back: <strong>0</strong></font></font><div class='respPicDiv'><img src='img/responseButtonOffersNo0_wht.png' class='respPic'></div></div>","null","9","Joseph","trustrating_stim/white_mw046.bmp","Kept","0.4,0.8","11","0.4","148","34"
"","","","decision","dfghdfgh","bdp_trlrn","Tue Oct 05 2021 13:21:44 GMT-0400 (Eastern Daylight Time)","255085","Untrustworthy,Trustworthy","html-keyboard-response","199","140615","0.0-18.0-1.34","","10","","<div class='trialDiv'><img src='trustrating_stim/white_mw035.bmp'><br><font class='baseline'><strong>Sean</strong><p>Choose number of points to send.</font><div class='respPicDiv'><img src='img/responseButtonOffersNo0L.png' class='respPic'></div></div>","5","9","Sean","trustrating_stim/white_mw035.bmp","Kept","0.6,0.2","14","0.6","153","35"
"","","","decisionFB","dfghdfgh","bdp_trlrn","Tue Oct 05 2021 13:21:44 GMT-0400 (Eastern Daylight Time)","255085","Untrustworthy,Trustworthy","html-keyboard-response","200","140867","0.0-18.0-2.34","","null","","<div class='trialDiv'><img src='trustrating_stim/white_mw035.bmp'><br><font class='baseline'><strong>Sean</strong><p>Choose number of points to send.</font><div class='respPicDiv'><img src='img/responseButtonOffersNo0L5.png' class='respPic'></div></div>","null","9","Sean","trustrating_stim/white_mw035.bmp","Kept","0.6,0.2","14","0.6","148","35"
"","","","feedback","dfghdfgh","bdp_trlrn","Tue Oct 05 2021 13:21:44 GMT-0400 (Eastern Daylight Time)","255085","Untrustworthy,Trustworthy","html-keyboard-response","201","141867","0.0-18.0-3.34","","null","","<div class='trialDiv'><img src='trustrating_stim/white_mw035.bmp'><br><font class='baseline'><strong>Sean</strong><p>Received: <strong>20</strong></font> &nbsp; &nbsp; &nbsp; &nbsp; &nbsp; &nbsp;<font class='negOutcome'>Shared back: <strong>0</strong></font></font><div class='respPicDiv'><img src='img/responseButtonOffersNo0_wht.png' class='respPic'></div></div>","null","9","Sean","trustrating_stim/white_mw035.bmp","Kept","0.6,0.2","14","0.6","148","35"
"","","","decision","dfghdfgh","bdp_trlrn","Tue Oct 05 2021 13:21:44 GMT-0400 (Eastern Daylight Time)","255085","Untrustworthy,Trustworthy","html-keyboard-response","202","141929","0.0-18.0-1.35","","61","","<div class='trialDiv'><img src='trustrating_stim/white_mw084.bmp'><br><font class='baseline'><strong>Richard</strong><p>Choose number of points to send.</font><div class='respPicDiv'><img src='img/responseButtonOffersNo0L.png' class='respPic'></div></div>","5","9","Richard","trustrating_stim/white_mw084.bmp","Kept","0.8,0.4","11","0.8","153","36"
"","","","decisionFB","dfghdfgh","bdp_trlrn","Tue Oct 05 2021 13:21:44 GMT-0400 (Eastern Daylight Time)","255085","Untrustworthy,Trustworthy","html-keyboard-response","203","142181","0.0-18.0-2.35","","null","","<div class='trialDiv'><img src='trustrating_stim/white_mw084.bmp'><br><font class='baseline'><strong>Richard</strong><p>Choose number of points to send.</font><div class='respPicDiv'><img src='img/responseButtonOffersNo0L5.png' class='respPic'></div></div>","null","9","Richard","trustrating_stim/white_mw084.bmp","Kept","0.8,0.4","11","0.8","148","36"
"","","","feedback","dfghdfgh","bdp_trlrn","Tue Oct 05 2021 13:21:44 GMT-0400 (Eastern Daylight Time)","255085","Untrustworthy,Trustworthy","html-keyboard-response","204","143183","0.0-18.0-3.35","","null","","<div class='trialDiv'><img src='trustrating_stim/white_mw084.bmp'><br><font class='baseline'><strong>Richard</strong><p>Received: <strong>20</strong></font> &nbsp; &nbsp; &nbsp; &nbsp; &nbsp; &nbsp;<font class='negOutcome'>Shared back: <strong>0</strong></font></font><div class='respPicDiv'><img src='img/responseButtonOffersNo0_wht.png' class='respPic'></div></div>","null","9","Richard","trustrating_stim/white_mw084.bmp","Kept","0.8,0.4","11","0.8","148","36"
"","","","decision","dfghdfgh","bdp_trlrn","Tue Oct 05 2021 13:21:44 GMT-0400 (Eastern Daylight Time)","255085","Untrustworthy,Trustworthy","html-keyboard-response","205","143203","0.0-18.0-1.36","","20","","<div class='trialDiv'><img src='trustrating_stim/white_mw046.bmp'><br><font class='baseline'><strong>Joseph</strong><p>Choose number of points to send.</font><div class='respPicDiv'><img src='img/responseButtonOffersNo0L.png' class='respPic'></div></div>","5","10","Joseph","trustrating_stim/white_mw046.bmp","Kept","0.4,0.8","11","0.4","153","37"
"","","","decisionFB","dfghdfgh","bdp_trlrn","Tue Oct 05 2021 13:21:44 GMT-0400 (Eastern Daylight Time)","255085","Untrustworthy,Trustworthy","html-keyboard-response","206","143454","0.0-18.0-2.36","","null","","<div class='trialDiv'><img src='trustrating_stim/white_mw046.bmp'><br><font class='baseline'><strong>Joseph</strong><p>Choose number of points to send.</font><div class='respPicDiv'><img src='img/responseButtonOffersNo0L5.png' class='respPic'></div></div>","null","10","Joseph","trustrating_stim/white_mw046.bmp","Kept","0.4,0.8","11","0.4","148","37"
"","","","feedback","dfghdfgh","bdp_trlrn","Tue Oct 05 2021 13:21:44 GMT-0400 (Eastern Daylight Time)","255085","Untrustworthy,Trustworthy","html-keyboard-response","207","144455","0.0-18.0-3.36","","null","","<div class='trialDiv'><img src='trustrating_stim/white_mw046.bmp'><br><font class='baseline'><strong>Joseph</strong><p>Received: <strong>20</strong></font> &nbsp; &nbsp; &nbsp; &nbsp; &nbsp; &nbsp;<font class='negOutcome'>Shared back: <strong>0</strong></font></font><div class='respPicDiv'><img src='img/responseButtonOffersNo0_wht.png' class='respPic'></div></div>","null","10","Joseph","trustrating_stim/white_mw046.bmp","Kept","0.4,0.8","11","0.4","148","37"
"","","","decision","dfghdfgh","bdp_trlrn","Tue Oct 05 2021 13:21:44 GMT-0400 (Eastern Daylight Time)","255085","Untrustworthy,Trustworthy","html-keyboard-response","208","144527","0.0-18.0-1.37","","71","","<div class='trialDiv'><img src='trustrating_stim/white_mw084.bmp'><br><font class='baseline'><strong>Richard</strong><p>Choose number of points to send.</font><div class='respPicDiv'><img src='img/responseButtonOffersNo0L.png' class='respPic'></div></div>","5","10","Richard","trustrating_stim/white_mw084.bmp","Shared","0.8,0.4","11","0.8","153","38"
"","","","decisionFB","dfghdfgh","bdp_trlrn","Tue Oct 05 2021 13:21:44 GMT-0400 (Eastern Daylight Time)","255085","Untrustworthy,Trustworthy","html-keyboard-response","209","144778","0.0-18.0-2.37","","null","","<div class='trialDiv'><img src='trustrating_stim/white_mw084.bmp'><br><font class='baseline'><strong>Richard</strong><p>Choose number of points to send.</font><div class='respPicDiv'><img src='img/responseButtonOffersNo0L5.png' class='respPic'></div></div>","null","10","Richard","trustrating_stim/white_mw084.bmp","Shared","0.8,0.4","11","0.8","148","38"
"","","","feedback","dfghdfgh","bdp_trlrn","Tue Oct 05 2021 13:21:44 GMT-0400 (Eastern Daylight Time)","255085","Untrustworthy,Trustworthy","html-keyboard-response","210","145779","0.0-18.0-3.37","","null","","<div class='trialDiv'><img src='trustrating_stim/white_mw084.bmp'><br><font class='baseline'><strong>Richard</strong><p>Received: <strong>20</strong></font> &nbsp; &nbsp; &nbsp; &nbsp; &nbsp; &nbsp;<font class='posOutcome'>Shared back: <strong>10</strong></font></font><div class='respPicDiv'><img src='img/responseButtonOffersNo0_wht.png' class='respPic'></div></div>","null","10","Richard","trustrating_stim/white_mw084.bmp","Shared","0.8,0.4","11","0.8","158","38"
"","","","decision","dfghdfgh","bdp_trlrn","Tue Oct 05 2021 13:21:44 GMT-0400 (Eastern Daylight Time)","255085","Untrustworthy,Trustworthy","html-keyboard-response","211","145898","0.0-18.0-1.38","","118","","<div class='trialDiv'><img src='trustrating_stim/white_mw099.bmp'><br><font class='baseline'><strong>Jonathan</strong><p>Choose number of points to send.</font><div class='respPicDiv'><img src='img/responseButtonOffersNo0L.png' class='respPic'></div></div>","5","10","Jonathan","trustrating_stim/white_mw099.bmp","Shared","0.2,0.6","10","0.2","163","39"
