"trial_type","trial_index","time_elapsed","internal_node_id","subject_id","task","startTime","totalTime","labels","view_history","rt","event","trial","time","trialtype","success","stimulus","key_press","aground","name","faceID","outcome","agenttype","agentswpt","agentcurrpshare","face","avgRating","point_total","round"
"pavlovia","0","3","0.0-0.0","60c837327440575481e333ce","bdp_trlrn","Tue Mar 14 2023 14:30:26 GMT-0400 (Eastern Daylight Time)","373950","Untrustworthy,Trustworthy","","","","","","","","","","","","","","","","","","","",""
"instructions","1","3866","0.0-1.0","60c837327440575481e333ce","bdp_trlrn","Tue Mar 14 2023 14:30:26 GMT-0400 (Eastern Daylight Time)","373950","Untrustworthy,Trustworthy","[{""page_index"":0,""viewing_time"":3862}]","3862","","","","","","","","","","","","","","","","","",""
"","","","","60c837327440575481e333ce","bdp_trlrn","Tue Mar 14 2023 14:30:26 GMT-0400 (Eastern Daylight Time)","373950","Untrustworthy,Trustworthy","","","fullscreenenter","2","5841","fullscreenenter","","","","","","","","","","","","","",""
"fullscreen","2","6770","0.0-2.0","60c837327440575481e333ce","bdp_trlrn","Tue Mar 14 2023 14:30:26 GMT-0400 (Eastern Daylight Time)","373950","Untrustworthy,Trustworthy","","","","","","","true","","","","","","","","","","","","",""
"instructions","3","9411","0.0-4.0","60c837327440575481e333ce","bdp_trlrn","Tue Mar 14 2023 14:30:26 GMT-0400 (Eastern Daylight Time)","373950","Untrustworthy,Trustworthy","[{""page_index"":0,""viewing_time"":1878},{""page_index"":1,""viewing_time"":760}]","2638","","","","","","","","","","","","","","","","","",""
"instructions","4","10241","0.0-5.0","60c837327440575481e333ce","bdp_trlrn","Tue Mar 14 2023 14:30:26 GMT-0400 (Eastern Daylight Time)","373950","Untrustworthy,Trustworthy","[{""page_index"":0,""viewing_time"":829}]","829","","","","","","","","","","","","","","","","","",""
"image-keyboard-response","5","10910","0.0-6.0-1.0","60c837327440575481e333ce","bdp_trlrn","Tue Mar 14 2023 14:30:26 GMT-0400 (Eastern Daylight Time)","373950","Untrustworthy,Trustworthy","","566","","","","rating","","trustrating_stim/white_mw066.bmp","3","","","","","","","","","","",""
"image-keyboard-response","6","11118","0.0-6.0-2.0","60c837327440575481e333ce","bdp_trlrn","Tue Mar 14 2023 14:30:26 GMT-0400 (Eastern Daylight Time)","373950","Untrustworthy,Trustworthy","","null","","","","ratingFB","","trustrating_stim/white_mw066.bmp","null","","","","","","","","","","",""
"image-keyboard-response","7","11340","0.0-6.0-1.1","60c837327440575481e333ce","bdp_trlrn","Tue Mar 14 2023 14:30:26 GMT-0400 (Eastern Daylight Time)","373950","Untrustworthy,Trustworthy","","113","","","","rating","","trustrating_stim/white_mw033.bmp","6","","","","","","","","","","",""
"image-keyboard-response","8","11549","0.0-6.0-2.1","60c837327440575481e333ce","bdp_trlrn","Tue Mar 14 2023 14:30:26 GMT-0400 (Eastern Daylight Time)","373950","Untrustworthy,Trustworthy","","null","","","","ratingFB","","trustrating_stim/white_mw033.bmp","null","","","","","","","","","","",""
"image-keyboard-response","9","11760","0.0-6.0-1.2","60c837327440575481e333ce","bdp_trlrn","Tue Mar 14 2023 14:30:26 GMT-0400 (Eastern Daylight Time)","373950","Untrustworthy,Trustworthy","","102","","","","rating","","trustrating_stim/white_mw048.bmp","7","","","","","","","","","","",""
"image-keyboard-response","10","11966","0.0-6.0-2.2","60c837327440575481e333ce","bdp_trlrn","Tue Mar 14 2023 14:30:26 GMT-0400 (Eastern Daylight Time)","373950","Untrustworthy,Trustworthy","","null","","","","ratingFB","","trustrating_stim/white_mw048.bmp","null","","","","","","","","","","",""
"image-keyboard-response","11","12217","0.0-6.0-1.3","60c837327440575481e333ce","bdp_trlrn","Tue Mar 14 2023 14:30:26 GMT-0400 (Eastern Daylight Time)","373950","Untrustworthy,Trustworthy","","142","","","","rating","","trustrating_stim/white_mw063.bmp","8","","","","","","","","","","",""
"image-keyboard-response","12","12434","0.0-6.0-2.3","60c837327440575481e333ce","bdp_trlrn","Tue Mar 14 2023 14:30:26 GMT-0400 (Eastern Daylight Time)","373950","Untrustworthy,Trustworthy","","null","","","","ratingFB","","trustrating_stim/white_mw063.bmp","null","","","","","","","","","","",""
"image-keyboard-response","13","12635","0.0-6.0-1.4","60c837327440575481e333ce","bdp_trlrn","Tue Mar 14 2023 14:30:26 GMT-0400 (Eastern Daylight Time)","373950","Untrustworthy,Trustworthy","","93","","","","rating","","trustrating_stim/white_mw060.bmp","3","","","","","","","","","","",""
"image-keyboard-response","14","12837","0.0-6.0-2.4","60c837327440575481e333ce","bdp_trlrn","Tue Mar 14 2023 14:30:26 GMT-0400 (Eastern Daylight Time)","373950","Untrustworthy,Trustworthy","","null","","","","ratingFB","","trustrating_stim/white_mw060.bmp","null","","","","","","","","","","",""
"image-keyboard-response","15","13257","0.0-6.0-1.5","60c837327440575481e333ce","bdp_trlrn","Tue Mar 14 2023 14:30:26 GMT-0400 (Eastern Daylight Time)","373950","Untrustworthy,Trustworthy","","308","","","","rating","","trustrating_stim/white_mw097.bmp","6","","","","","","","","","","",""
"image-keyboard-response","16","13460","0.0-6.0-2.5","60c837327440575481e333ce","bdp_trlrn","Tue Mar 14 2023 14:30:26 GMT-0400 (Eastern Daylight Time)","373950","Untrustworthy,Trustworthy","","null","","","","ratingFB","","trustrating_stim/white_mw097.bmp","null","","","","","","","","","","",""
"image-keyboard-response","17","13886","0.0-6.0-1.6","60c837327440575481e333ce","bdp_trlrn","Tue Mar 14 2023 14:30:26 GMT-0400 (Eastern Daylight Time)","373950","Untrustworthy,Trustworthy","","315","","","","rating","","trustrating_stim/white_00807_941205_fb_edt.bmp","4","","","","","","","","","","",""
"image-keyboard-response","18","14097","0.0-6.0-2.6","60c837327440575481e333ce","bdp_trlrn","Tue Mar 14 2023 14:30:26 GMT-0400 (Eastern Daylight Time)","373950","Untrustworthy,Trustworthy","","null","","","","ratingFB","","trustrating_stim/white_00807_941205_fb_edt.bmp","null","","","","","","","","","","",""
"image-keyboard-response","19","14545","0.0-6.0-1.7","60c837327440575481e333ce","bdp_trlrn","Tue Mar 14 2023 14:30:26 GMT-0400 (Eastern Daylight Time)","373950","Untrustworthy,Trustworthy","","340","","","","rating","","trustrating_stim/white_mw046.bmp","5","","","","","","","","","","",""
"image-keyboard-response","20","14748","0.0-6.0-2.7","60c837327440575481e333ce","bdp_trlrn","Tue Mar 14 2023 14:30:26 GMT-0400 (Eastern Daylight Time)","373950","Untrustworthy,Trustworthy","","null","","","","ratingFB","","trustrating_stim/white_mw046.bmp","null","","","","","","","","","","",""
"image-keyboard-response","21","15101","0.0-6.0-1.8","60c837327440575481e333ce","bdp_trlrn","Tue Mar 14 2023 14:30:26 GMT-0400 (Eastern Daylight Time)","373950","Untrustworthy,Trustworthy","","243","","","","rating","","trustrating_stim/white_mw071.bmp","2","","","","","","","","","","",""
"image-keyboard-response","22","15309","0.0-6.0-2.8","60c837327440575481e333ce","bdp_trlrn","Tue Mar 14 2023 14:30:26 GMT-0400 (Eastern Daylight Time)","373950","Untrustworthy,Trustworthy","","null","","","","ratingFB","","trustrating_stim/white_mw071.bmp","null","","","","","","","","","","",""
"image-keyboard-response","23","15579","0.0-6.0-1.9","60c837327440575481e333ce","bdp_trlrn","Tue Mar 14 2023 14:30:26 GMT-0400 (Eastern Daylight Time)","373950","Untrustworthy,Trustworthy","","161","","","","rating","","trustrating_stim/white_00602_940928_fb_edt.bmp","7","","","","","","","","","","",""
"image-keyboard-response","24","15787","0.0-6.0-2.9","60c837327440575481e333ce","bdp_trlrn","Tue Mar 14 2023 14:30:26 GMT-0400 (Eastern Daylight Time)","373950","Untrustworthy,Trustworthy","","null","","","","ratingFB","","trustrating_stim/white_00602_940928_fb_edt.bmp","null","","","","","","","","","","",""
"image-keyboard-response","25","16051","0.0-6.0-1.10","60c837327440575481e333ce","bdp_trlrn","Tue Mar 14 2023 14:30:26 GMT-0400 (Eastern Daylight Time)","373950","Untrustworthy,Trustworthy","","153","","","","rating","","trustrating_stim/white_mw056.bmp","3","","","","","","","","","","",""
"image-keyboard-response","26","16264","0.0-6.0-2.10","60c837327440575481e333ce","bdp_trlrn","Tue Mar 14 2023 14:30:26 GMT-0400 (Eastern Daylight Time)","373950","Untrustworthy,Trustworthy","","null","","","","ratingFB","","trustrating_stim/white_mw056.bmp","null","","","","","","","","","","",""
"image-keyboard-response","27","16510","0.0-6.0-1.11","60c837327440575481e333ce","bdp_trlrn","Tue Mar 14 2023 14:30:26 GMT-0400 (Eastern Daylight Time)","373950","Untrustworthy,Trustworthy","","137","","","","rating","","trustrating_stim/white_00519_940519_fb_edt.bmp","6","","","","","","","","","","",""
"image-keyboard-response","28","16726","0.0-6.0-2.11","60c837327440575481e333ce","bdp_trlrn","Tue Mar 14 2023 14:30:26 GMT-0400 (Eastern Daylight Time)","373950","Untrustworthy,Trustworthy","","null","","","","ratingFB","","trustrating_stim/white_00519_940519_fb_edt.bmp","null","","","","","","","","","","",""
"image-keyboard-response","29","16836","0.0-6.0-1.12","60c837327440575481e333ce","bdp_trlrn","Tue Mar 14 2023 14:30:26 GMT-0400 (Eastern Daylight Time)","373950","Untrustworthy,Trustworthy","","1","","","","rating","","trustrating_stim/white_00109_931230_fa_edt.bmp","4","","","","","","","","","","",""
"image-keyboard-response","30","17051","0.0-6.0-2.12","60c837327440575481e333ce","bdp_trlrn","Tue Mar 14 2023 14:30:26 GMT-0400 (Eastern Daylight Time)","373950","Untrustworthy,Trustworthy","","null","","","","ratingFB","","trustrating_stim/white_00109_931230_fa_edt.bmp","null","","","","","","","","","","",""
"image-keyboard-response","31","17328","0.0-6.0-1.13","60c837327440575481e333ce","bdp_trlrn","Tue Mar 14 2023 14:30:26 GMT-0400 (Eastern Daylight Time)","373950","Untrustworthy,Trustworthy","","168","","","","rating","","trustrating_stim/white_00761_941201_fb_edt.bmp","7","","","","","","","","","","",""
"image-keyboard-response","32","17544","0.0-6.0-2.13","60c837327440575481e333ce","bdp_trlrn","Tue Mar 14 2023 14:30:26 GMT-0400 (Eastern Daylight Time)","373950","Untrustworthy,Trustworthy","","null","","","","ratingFB","","trustrating_stim/white_00761_941201_fb_edt.bmp","null","","","","","","","","","","",""
"image-keyboard-response","33","17795","0.0-6.0-1.14","60c837327440575481e333ce","bdp_trlrn","Tue Mar 14 2023 14:30:26 GMT-0400 (Eastern Daylight Time)","373950","Untrustworthy,Trustworthy","","144","","","","rating","","trustrating_stim/white_mw035.bmp","8","","","","","","","","","","",""
"image-keyboard-response","34","18006","0.0-6.0-2.14","60c837327440575481e333ce","bdp_trlrn","Tue Mar 14 2023 14:30:26 GMT-0400 (Eastern Daylight Time)","373950","Untrustworthy,Trustworthy","","null","","","","ratingFB","","trustrating_stim/white_mw035.bmp","null","","","","","","","","","","",""
"image-keyboard-response","35","18245","0.0-6.0-1.15","60c837327440575481e333ce","bdp_trlrn","Tue Mar 14 2023 14:30:26 GMT-0400 (Eastern Daylight Time)","373950","Untrustworthy,Trustworthy","","129","","","","rating","","trustrating_stim/white_00898_960530_fa_edt.bmp","3","","","","","","","","","","",""
"image-keyboard-response","36","18455","0.0-6.0-2.15","60c837327440575481e333ce","bdp_trlrn","Tue Mar 14 2023 14:30:26 GMT-0400 (Eastern Daylight Time)","373950","Untrustworthy,Trustworthy","","null","","","","ratingFB","","trustrating_stim/white_00898_960530_fa_edt.bmp","null","","","","","","","","","","",""
"image-keyboard-response","37","18767","0.0-6.0-1.16","60c837327440575481e333ce","bdp_trlrn","Tue Mar 14 2023 14:30:26 GMT-0400 (Eastern Daylight Time)","373950","Untrustworthy,Trustworthy","","202","","","","rating","","trustrating_stim/white_00299_940422_fa_edt.bmp","8","","","","","","","","","","",""
"image-keyboard-response","38","18968","0.0-6.0-2.16","60c837327440575481e333ce","bdp_trlrn","Tue Mar 14 2023 14:30:26 GMT-0400 (Eastern Daylight Time)","373950","Untrustworthy,Trustworthy","","null","","","","ratingFB","","trustrating_stim/white_00299_940422_fa_edt.bmp","null","","","","","","","","","","",""
"image-keyboard-response","39","19158","0.0-6.0-1.17","60c837327440575481e333ce","bdp_trlrn","Tue Mar 14 2023 14:30:26 GMT-0400 (Eastern Daylight Time)","373950","Untrustworthy,Trustworthy","","80","","","","rating","","trustrating_stim/white_mw084.bmp","2","","","","","","","","","","",""
"image-keyboard-response","40","19372","0.0-6.0-2.17","60c837327440575481e333ce","bdp_trlrn","Tue Mar 14 2023 14:30:26 GMT-0400 (Eastern Daylight Time)","373950","Untrustworthy,Trustworthy","","null","","","","ratingFB","","trustrating_stim/white_mw084.bmp","null","","","","","","","","","","",""
"image-keyboard-response","41","19679","0.0-6.0-1.18","60c837327440575481e333ce","bdp_trlrn","Tue Mar 14 2023 14:30:26 GMT-0400 (Eastern Daylight Time)","373950","Untrustworthy,Trustworthy","","200","","","","rating","","trustrating_stim/white_mw089.bmp","6","","","","","","","","","","",""
"image-keyboard-response","42","19881","0.0-6.0-2.18","60c837327440575481e333ce","bdp_trlrn","Tue Mar 14 2023 14:30:26 GMT-0400 (Eastern Daylight Time)","373950","Untrustworthy,Trustworthy","","null","","","","ratingFB","","trustrating_stim/white_mw089.bmp","null","","","","","","","","","","",""
"image-keyboard-response","43","20231","0.0-6.0-1.19","60c837327440575481e333ce","bdp_trlrn","Tue Mar 14 2023 14:30:26 GMT-0400 (Eastern Daylight Time)","373950","Untrustworthy,Trustworthy","","240","","","","rating","","trustrating_stim/white_mw053.bmp","3","","","","","","","","","","",""
"image-keyboard-response","44","20443","0.0-6.0-2.19","60c837327440575481e333ce","bdp_trlrn","Tue Mar 14 2023 14:30:26 GMT-0400 (Eastern Daylight Time)","373950","Untrustworthy,Trustworthy","","null","","","","ratingFB","","trustrating_stim/white_mw053.bmp","null","","","","","","","","","","",""
"image-keyboard-response","45","20674","0.0-6.0-1.20","60c837327440575481e333ce","bdp_trlrn","Tue Mar 14 2023 14:30:26 GMT-0400 (Eastern Daylight Time)","373950","Untrustworthy,Trustworthy","","121","","","","rating","","trustrating_stim/white_00129_931230_fb_edt.bmp","7","","","","","","","","","","",""
"image-keyboard-response","46","20878","0.0-6.0-2.20","60c837327440575481e333ce","bdp_trlrn","Tue Mar 14 2023 14:30:26 GMT-0400 (Eastern Daylight Time)","373950","Untrustworthy,Trustworthy","","null","","","","ratingFB","","trustrating_stim/white_00129_931230_fb_edt.bmp","null","","","","","","","","","","",""
"image-keyboard-response","47","21088","0.0-6.0-1.21","60c837327440575481e333ce","bdp_trlrn","Tue Mar 14 2023 14:30:26 GMT-0400 (Eastern Daylight Time)","373950","Untrustworthy,Trustworthy","","100","","","","rating","","trustrating_stim/white_mw099.bmp","2","","","","","","","","","","",""
"image-keyboard-response","48","21296","0.0-6.0-2.21","60c837327440575481e333ce","bdp_trlrn","Tue Mar 14 2023 14:30:26 GMT-0400 (Eastern Daylight Time)","373950","Untrustworthy,Trustworthy","","null","","","","ratingFB","","trustrating_stim/white_mw099.bmp","null","","","","","","","","","","",""
"image-keyboard-response","49","21539","0.0-6.0-1.22","60c837327440575481e333ce","bdp_trlrn","Tue Mar 14 2023 14:30:26 GMT-0400 (Eastern Daylight Time)","373950","Untrustworthy,Trustworthy","","131","","","","rating","","trustrating_stim/white_00577_940928_fa_edt.bmp","8","","","","","","","","","","",""
"image-keyboard-response","50","21750","0.0-6.0-2.22","60c837327440575481e333ce","bdp_trlrn","Tue Mar 14 2023 14:30:26 GMT-0400 (Eastern Daylight Time)","373950","Untrustworthy,Trustworthy","","null","","","","ratingFB","","trustrating_stim/white_00577_940928_fa_edt.bmp","null","","","","","","","","","","",""
"image-keyboard-response","51","22128","0.0-6.0-1.23","60c837327440575481e333ce","bdp_trlrn","Tue Mar 14 2023 14:30:26 GMT-0400 (Eastern Daylight Time)","373950","Untrustworthy,Trustworthy","","269","","","","rating","","trustrating_stim/white_00785_941205_fb_edt.bmp","4","","","","","","","","","","",""
"image-keyboard-response","52","22338","0.0-6.0-2.23","60c837327440575481e333ce","bdp_trlrn","Tue Mar 14 2023 14:30:26 GMT-0400 (Eastern Daylight Time)","373950","Untrustworthy,Trustworthy","","null","","","","ratingFB","","trustrating_stim/white_00785_941205_fb_edt.bmp","null","","","","","","","","","","",""
"image-keyboard-response","53","22931","0.0-6.0-1.24","60c837327440575481e333ce","bdp_trlrn","Tue Mar 14 2023 14:30:26 GMT-0400 (Eastern Daylight Time)","373950","Untrustworthy,Trustworthy","","484","","","","rating","","trustrating_stim/white_00340_940422_fa_edt.bmp","8","","","","","","","","","","",""
"image-keyboard-response","54","23145","0.0-6.0-2.24","60c837327440575481e333ce","bdp_trlrn","Tue Mar 14 2023 14:30:26 GMT-0400 (Eastern Daylight Time)","373950","Untrustworthy,Trustworthy","","null","","","","ratingFB","","trustrating_stim/white_00340_940422_fa_edt.bmp","null","","","","","","","","","","",""
"image-keyboard-response","55","23262","0.0-6.0-1.25","60c837327440575481e333ce","bdp_trlrn","Tue Mar 14 2023 14:30:26 GMT-0400 (Eastern Daylight Time)","373950","Untrustworthy,Trustworthy","","9","","","","rating","","trustrating_stim/white_00120_931230_fa_edt.bmp","3","","","","","","","","","","",""
"image-keyboard-response","56","23468","0.0-6.0-2.25","60c837327440575481e333ce","bdp_trlrn","Tue Mar 14 2023 14:30:26 GMT-0400 (Eastern Daylight Time)","373950","Untrustworthy,Trustworthy","","null","","","","ratingFB","","trustrating_stim/white_00120_931230_fa_edt.bmp","null","","","","","","","","","","",""
"image-keyboard-response","57","23706","0.0-6.0-1.26","60c837327440575481e333ce","bdp_trlrn","Tue Mar 14 2023 14:30:26 GMT-0400 (Eastern Daylight Time)","373950","Untrustworthy,Trustworthy","","128","","","","rating","","trustrating_stim/white_00659_941121_fa_edt.bmp","6","","","","","","","","","","",""
"image-keyboard-response","58","23918","0.0-6.0-2.26","60c837327440575481e333ce","bdp_trlrn","Tue Mar 14 2023 14:30:26 GMT-0400 (Eastern Daylight Time)","373950","Untrustworthy,Trustworthy","","null","","","","ratingFB","","trustrating_stim/white_00659_941121_fa_edt.bmp","null","","","","","","","","","","",""
"image-keyboard-response","59","24206","0.0-6.0-1.27","60c837327440575481e333ce","bdp_trlrn","Tue Mar 14 2023 14:30:26 GMT-0400 (Eastern Daylight Time)","373950","Untrustworthy,Trustworthy","","178","","","","rating","","trustrating_stim/white_00223_940128_fb_edt.bmp","4","","","","","","","","","","",""
"image-keyboard-response","60","24419","0.0-6.0-2.27","60c837327440575481e333ce","bdp_trlrn","Tue Mar 14 2023 14:30:26 GMT-0400 (Eastern Daylight Time)","373950","Untrustworthy,Trustworthy","","null","","","","ratingFB","","trustrating_stim/white_00223_940128_fb_edt.bmp","null","","","","","","","","","","",""
"image-keyboard-response","61","24639","0.0-6.0-1.28","60c837327440575481e333ce","bdp_trlrn","Tue Mar 14 2023 14:30:26 GMT-0400 (Eastern Daylight Time)","373950","Untrustworthy,Trustworthy","","110","","","","rating","","trustrating_stim/white_00757_941201_fa_edt.bmp","8","","","","","","","","","","",""
"image-keyboard-response","62","24852","0.0-6.0-2.28","60c837327440575481e333ce","bdp_trlrn","Tue Mar 14 2023 14:30:26 GMT-0400 (Eastern Daylight Time)","373950","Untrustworthy,Trustworthy","","null","","","","ratingFB","","trustrating_stim/white_00757_941201_fa_edt.bmp","null","","","","","","","","","","",""
"image-keyboard-response","63","25114","0.0-6.0-1.29","60c837327440575481e333ce","bdp_trlrn","Tue Mar 14 2023 14:30:26 GMT-0400 (Eastern Daylight Time)","373950","Untrustworthy,Trustworthy","","153","","","","rating","","trustrating_stim/white_mw049.bmp","9","","","","","","","","","","",""
"image-keyboard-response","64","25329","0.0-6.0-2.29","60c837327440575481e333ce","bdp_trlrn","Tue Mar 14 2023 14:30:26 GMT-0400 (Eastern Daylight Time)","373950","Untrustworthy,Trustworthy","","null","","","","ratingFB","","trustrating_stim/white_mw049.bmp","null","","","","","","","","","","",""
"image-keyboard-response","65","25732","0.0-6.0-1.30","60c837327440575481e333ce","bdp_trlrn","Tue Mar 14 2023 14:30:26 GMT-0400 (Eastern Daylight Time)","373950","Untrustworthy,Trustworthy","","293","","","","rating","","trustrating_stim/white_00129_931230_fb_edt.bmp","2","","","","","","","","","","",""
"image-keyboard-response","66","25945","0.0-6.0-2.30","60c837327440575481e333ce","bdp_trlrn","Tue Mar 14 2023 14:30:26 GMT-0400 (Eastern Daylight Time)","373950","Untrustworthy,Trustworthy","","null","","","","ratingFB","","trustrating_stim/white_00129_931230_fb_edt.bmp","null","","","","","","","","","","",""
"image-keyboard-response","67","26186","0.0-6.0-1.31","60c837327440575481e333ce","bdp_trlrn","Tue Mar 14 2023 14:30:26 GMT-0400 (Eastern Daylight Time)","373950","Untrustworthy,Trustworthy","","132","","","","rating","","trustrating_stim/white_00120_931230_fa_edt.bmp","7","","","","","","","","","","",""
"image-keyboard-response","68","26392","0.0-6.0-2.31","60c837327440575481e333ce","bdp_trlrn","Tue Mar 14 2023 14:30:26 GMT-0400 (Eastern Daylight Time)","373950","Untrustworthy,Trustworthy","","null","","","","ratingFB","","trustrating_stim/white_00120_931230_fa_edt.bmp","null","","","","","","","","","","",""
"image-keyboard-response","69","26595","0.0-6.0-1.32","60c837327440575481e333ce","bdp_trlrn","Tue Mar 14 2023 14:30:26 GMT-0400 (Eastern Daylight Time)","373950","Untrustworthy,Trustworthy","","94","","","","rating","","trustrating_stim/white_mw084.bmp","4","","","","","","","","","","",""
"image-keyboard-response","70","26812","0.0-6.0-2.32","60c837327440575481e333ce","bdp_trlrn","Tue Mar 14 2023 14:30:26 GMT-0400 (Eastern Daylight Time)","373950","Untrustworthy,Trustworthy","","null","","","","ratingFB","","trustrating_stim/white_mw084.bmp","null","","","","","","","","","","",""
"image-keyboard-response","71","27405","0.0-6.0-1.33","60c837327440575481e333ce","bdp_trlrn","Tue Mar 14 2023 14:30:26 GMT-0400 (Eastern Daylight Time)","373950","Untrustworthy,Trustworthy","","485","","","","rating","","trustrating_stim/white_00519_940519_fb_edt.bmp","3","","","","","","","","","","",""
"image-keyboard-response","72","27621","0.0-6.0-2.33","60c837327440575481e333ce","bdp_trlrn","Tue Mar 14 2023 14:30:26 GMT-0400 (Eastern Daylight Time)","373950","Untrustworthy,Trustworthy","","null","","","","ratingFB","","trustrating_stim/white_00519_940519_fb_edt.bmp","null","","","","","","","","","","",""
"image-keyboard-response","73","27957","0.0-6.0-1.34","60c837327440575481e333ce","bdp_trlrn","Tue Mar 14 2023 14:30:26 GMT-0400 (Eastern Daylight Time)","373950","Untrustworthy,Trustworthy","","227","","","","rating","","trustrating_stim/white_mw048.bmp","4","","","","","","","","","","",""
"image-keyboard-response","74","28163","0.0-6.0-2.34","60c837327440575481e333ce","bdp_trlrn","Tue Mar 14 2023 14:30:26 GMT-0400 (Eastern Daylight Time)","373950","Untrustworthy,Trustworthy","","null","","","","ratingFB","","trustrating_stim/white_mw048.bmp","null","","","","","","","","","","",""
"image-keyboard-response","75","29591","0.0-6.0-1.35","60c837327440575481e333ce","bdp_trlrn","Tue Mar 14 2023 14:30:26 GMT-0400 (Eastern Daylight Time)","373950","Untrustworthy,Trustworthy","","1317","","","","rating","","trustrating_stim/white_00340_940422_fa_edt.bmp","2","","","","","","","","","","",""
"image-keyboard-response","76","29796","0.0-6.0-2.35","60c837327440575481e333ce","bdp_trlrn","Tue Mar 14 2023 14:30:26 GMT-0400 (Eastern Daylight Time)","373950","Untrustworthy,Trustworthy","","null","","","","ratingFB","","trustrating_stim/white_00340_940422_fa_edt.bmp","null","","","","","","","","","","",""
"image-keyboard-response","77","30314","0.0-6.0-1.36","60c837327440575481e333ce","bdp_trlrn","Tue Mar 14 2023 14:30:26 GMT-0400 (Eastern Daylight Time)","373950","Untrustworthy,Trustworthy","","408","","","","rating","","trustrating_stim/white_mw035.bmp","3","","","","","","","","","","",""
"image-keyboard-response","78","30525","0.0-6.0-2.36","60c837327440575481e333ce","bdp_trlrn","Tue Mar 14 2023 14:30:26 GMT-0400 (Eastern Daylight Time)","373950","Untrustworthy,Trustworthy","","null","","","","ratingFB","","trustrating_stim/white_mw035.bmp","null","","","","","","","","","","",""
"image-keyboard-response","79","30878","0.0-6.0-1.37","60c837327440575481e333ce","bdp_trlrn","Tue Mar 14 2023 14:30:26 GMT-0400 (Eastern Daylight Time)","373950","Untrustworthy,Trustworthy","","246","","","","rating","","trustrating_stim/white_mw071.bmp","3","","","","","","","","","","",""
"image-keyboard-response","80","31081","0.0-6.0-2.37","60c837327440575481e333ce","bdp_trlrn","Tue Mar 14 2023 14:30:26 GMT-0400 (Eastern Daylight Time)","373950","Untrustworthy,Trustworthy","","null","","","","ratingFB","","trustrating_stim/white_mw071.bmp","null","","","","","","","","","","",""
"image-keyboard-response","81","31676","0.0-6.0-1.38","60c837327440575481e333ce","bdp_trlrn","Tue Mar 14 2023 14:30:26 GMT-0400 (Eastern Daylight Time)","373950","Untrustworthy,Trustworthy","","484","","","","rating","","trustrating_stim/white_mw060.bmp","6","","","","","","","","","","",""
"image-keyboard-response","82","31892","0.0-6.0-2.38","60c837327440575481e333ce","bdp_trlrn","Tue Mar 14 2023 14:30:26 GMT-0400 (Eastern Daylight Time)","373950","Untrustworthy,Trustworthy","","null","","","","ratingFB","","trustrating_stim/white_mw060.bmp","null","","","","","","","","","","",""
"image-keyboard-response","83","32345","0.0-6.0-1.39","60c837327440575481e333ce","bdp_trlrn","Tue Mar 14 2023 14:30:26 GMT-0400 (Eastern Daylight Time)","373950","Untrustworthy,Trustworthy","","345","","","","rating","","trustrating_stim/white_00898_960530_fa_edt.bmp","2","","","","","","","","","","",""
"image-keyboard-response","84","32553","0.0-6.0-2.39","60c837327440575481e333ce","bdp_trlrn","Tue Mar 14 2023 14:30:26 GMT-0400 (Eastern Daylight Time)","373950","Untrustworthy,Trustworthy","","null","","","","ratingFB","","trustrating_stim/white_00898_960530_fa_edt.bmp","null","","","","","","","","","","",""
"image-keyboard-response","85","32923","0.0-6.0-1.40","60c837327440575481e333ce","bdp_trlrn","Tue Mar 14 2023 14:30:26 GMT-0400 (Eastern Daylight Time)","373950","Untrustworthy,Trustworthy","","259","","","","rating","","trustrating_stim/white_00785_941205_fb_edt.bmp","3","","","","","","","","","","",""
"image-keyboard-response","86","33139","0.0-6.0-2.40","60c837327440575481e333ce","bdp_trlrn","Tue Mar 14 2023 14:30:26 GMT-0400 (Eastern Daylight Time)","373950","Untrustworthy,Trustworthy","","null","","","","ratingFB","","trustrating_stim/white_00785_941205_fb_edt.bmp","null","","","","","","","","","","",""
"image-keyboard-response","87","33505","0.0-6.0-1.41","60c837327440575481e333ce","bdp_trlrn","Tue Mar 14 2023 14:30:26 GMT-0400 (Eastern Daylight Time)","373950","Untrustworthy,Trustworthy","","257","","","","rating","","trustrating_stim/white_00757_941201_fa_edt.bmp","6","","","","","","","","","","",""
"image-keyboard-response","88","33707","0.0-6.0-2.41","60c837327440575481e333ce","bdp_trlrn","Tue Mar 14 2023 14:30:26 GMT-0400 (Eastern Daylight Time)","373950","Untrustworthy,Trustworthy","","null","","","","ratingFB","","trustrating_stim/white_00757_941201_fa_edt.bmp","null","","","","","","","","","","",""
"image-keyboard-response","89","34629","0.0-6.0-1.42","60c837327440575481e333ce","bdp_trlrn","Tue Mar 14 2023 14:30:26 GMT-0400 (Eastern Daylight Time)","373950","Untrustworthy,Trustworthy","","813","","","","rating","","trustrating_stim/white_00807_941205_fb_edt.bmp","4","","","","","","","","","","",""
"image-keyboard-response","90","34839","0.0-6.0-2.42","60c837327440575481e333ce","bdp_trlrn","Tue Mar 14 2023 14:30:26 GMT-0400 (Eastern Daylight Time)","373950","Untrustworthy,Trustworthy","","null","","","","ratingFB","","trustrating_stim/white_00807_941205_fb_edt.bmp","null","","","","","","","","","","",""
"image-keyboard-response","91","35325","0.0-6.0-1.43","60c837327440575481e333ce","bdp_trlrn","Tue Mar 14 2023 14:30:26 GMT-0400 (Eastern Daylight Time)","373950","Untrustworthy,Trustworthy","","377","","","","rating","","trustrating_stim/white_mw097.bmp","3","","","","","","","","","","",""
"image-keyboard-response","92","35537","0.0-6.0-2.43","60c837327440575481e333ce","bdp_trlrn","Tue Mar 14 2023 14:30:26 GMT-0400 (Eastern Daylight Time)","373950","Untrustworthy,Trustworthy","","null","","","","ratingFB","","trustrating_stim/white_mw097.bmp","null","","","","","","","","","","",""
"image-keyboard-response","93","35934","0.0-6.0-1.44","60c837327440575481e333ce","bdp_trlrn","Tue Mar 14 2023 14:30:26 GMT-0400 (Eastern Daylight Time)","373950","Untrustworthy,Trustworthy","","289","","","","rating","","trustrating_stim/white_mw033.bmp","2","","","","","","","","","","",""
"image-keyboard-response","94","36143","0.0-6.0-2.44","60c837327440575481e333ce","bdp_trlrn","Tue Mar 14 2023 14:30:26 GMT-0400 (Eastern Daylight Time)","373950","Untrustworthy,Trustworthy","","null","","","","ratingFB","","trustrating_stim/white_mw033.bmp","null","","","","","","","","","","",""
"image-keyboard-response","95","36490","0.0-6.0-1.45","60c837327440575481e333ce","bdp_trlrn","Tue Mar 14 2023 14:30:26 GMT-0400 (Eastern Daylight Time)","373950","Untrustworthy,Trustworthy","","235","","","","rating","","trustrating_stim/white_00602_940928_fb_edt.bmp","1","","","","","","","","","","",""
"image-keyboard-response","96","36706","0.0-6.0-2.45","60c837327440575481e333ce","bdp_trlrn","Tue Mar 14 2023 14:30:26 GMT-0400 (Eastern Daylight Time)","373950","Untrustworthy,Trustworthy","","null","","","","ratingFB","","trustrating_stim/white_00602_940928_fb_edt.bmp","null","","","","","","","","","","",""
"image-keyboard-response","97","36979","0.0-6.0-1.46","60c837327440575481e333ce","bdp_trlrn","Tue Mar 14 2023 14:30:26 GMT-0400 (Eastern Daylight Time)","373950","Untrustworthy,Trustworthy","","164","","","","rating","","trustrating_stim/white_00659_941121_fa_edt.bmp","3","","","","","","","","","","",""
"image-keyboard-response","98","37190","0.0-6.0-2.46","60c837327440575481e333ce","bdp_trlrn","Tue Mar 14 2023 14:30:26 GMT-0400 (Eastern Daylight Time)","373950","Untrustworthy,Trustworthy","","null","","","","ratingFB","","trustrating_stim/white_00659_941121_fa_edt.bmp","null","","","","","","","","","","",""
"image-keyboard-response","99","37451","0.0-6.0-1.47","60c837327440575481e333ce","bdp_trlrn","Tue Mar 14 2023 14:30:26 GMT-0400 (Eastern Daylight Time)","373950","Untrustworthy,Trustworthy","","152","","","","rating","","trustrating_stim/white_mw053.bmp","8","","","","","","","","","","",""
"image-keyboard-response","100","37655","0.0-6.0-2.47","60c837327440575481e333ce","bdp_trlrn","Tue Mar 14 2023 14:30:26 GMT-0400 (Eastern Daylight Time)","373950","Untrustworthy,Trustworthy","","null","","","","ratingFB","","trustrating_stim/white_mw053.bmp","null","","","","","","","","","","",""
"image-keyboard-response","101","37980","0.0-6.0-1.48","60c837327440575481e333ce","bdp_trlrn","Tue Mar 14 2023 14:30:26 GMT-0400 (Eastern Daylight Time)","373950","Untrustworthy,Trustworthy","","216","","","","rating","","trustrating_stim/white_mw089.bmp","3","","","","","","","","","","",""
"image-keyboard-response","102","38196","0.0-6.0-2.48","60c837327440575481e333ce","bdp_trlrn","Tue Mar 14 2023 14:30:26 GMT-0400 (Eastern Daylight Time)","373950","Untrustworthy,Trustworthy","","null","","","","ratingFB","","trustrating_stim/white_mw089.bmp","null","","","","","","","","","","",""
"image-keyboard-response","103","38426","0.0-6.0-1.49","60c837327440575481e333ce","bdp_trlrn","Tue Mar 14 2023 14:30:26 GMT-0400 (Eastern Daylight Time)","373950","Untrustworthy,Trustworthy","","119","","","","rating","","trustrating_stim/white_00299_940422_fa_edt.bmp","6","","","","","","","","","","",""
"image-keyboard-response","104","38629","0.0-6.0-2.49","60c837327440575481e333ce","bdp_trlrn","Tue Mar 14 2023 14:30:26 GMT-0400 (Eastern Daylight Time)","373950","Untrustworthy,Trustworthy","","null","","","","ratingFB","","trustrating_stim/white_00299_940422_fa_edt.bmp","null","","","","","","","","","","",""
"image-keyboard-response","105","38853","0.0-6.0-1.50","60c837327440575481e333ce","bdp_trlrn","Tue Mar 14 2023 14:30:26 GMT-0400 (Eastern Daylight Time)","373950","Untrustworthy,Trustworthy","","113","","","","rating","","trustrating_stim/white_00109_931230_fa_edt.bmp","4","","","","","","","","","","",""
"image-keyboard-response","106","39064","0.0-6.0-2.50","60c837327440575481e333ce","bdp_trlrn","Tue Mar 14 2023 14:30:26 GMT-0400 (Eastern Daylight Time)","373950","Untrustworthy,Trustworthy","","null","","","","ratingFB","","trustrating_stim/white_00109_931230_fa_edt.bmp","null","","","","","","","","","","",""
"image-keyboard-response","107","39643","0.0-6.0-1.51","60c837327440575481e333ce","bdp_trlrn","Tue Mar 14 2023 14:30:26 GMT-0400 (Eastern Daylight Time)","373950","Untrustworthy,Trustworthy","","468","","","","rating","","trustrating_stim/white_00577_940928_fa_edt.bmp","1","","","","","","","","","","",""
"image-keyboard-response","108","39852","0.0-6.0-2.51","60c837327440575481e333ce","bdp_trlrn","Tue Mar 14 2023 14:30:26 GMT-0400 (Eastern Daylight Time)","373950","Untrustworthy,Trustworthy","","null","","","","ratingFB","","trustrating_stim/white_00577_940928_fa_edt.bmp","null","","","","","","","","","","",""
"image-keyboard-response","109","40266","0.0-6.0-1.52","60c837327440575481e333ce","bdp_trlrn","Tue Mar 14 2023 14:30:26 GMT-0400 (Eastern Daylight Time)","373950","Untrustworthy,Trustworthy","","305","","","","rating","","trustrating_stim/white_00223_940128_fb_edt.bmp","3","","","","","","","","","","",""
"image-keyboard-response","110","40473","0.0-6.0-2.52","60c837327440575481e333ce","bdp_trlrn","Tue Mar 14 2023 14:30:26 GMT-0400 (Eastern Daylight Time)","373950","Untrustworthy,Trustworthy","","null","","","","ratingFB","","trustrating_stim/white_00223_940128_fb_edt.bmp","null","","","","","","","","","","",""
"image-keyboard-response","111","40647","0.0-6.0-1.53","60c837327440575481e333ce","bdp_trlrn","Tue Mar 14 2023 14:30:26 GMT-0400 (Eastern Daylight Time)","373950","Untrustworthy,Trustworthy","","64","","","","rating","","trustrating_stim/white_mw049.bmp","6","","","","","","","","","","",""
"image-keyboard-response","112","40858","0.0-6.0-2.53","60c837327440575481e333ce","bdp_trlrn","Tue Mar 14 2023 14:30:26 GMT-0400 (Eastern Daylight Time)","373950","Untrustworthy,Trustworthy","","null","","","","ratingFB","","trustrating_stim/white_mw049.bmp","null","","","","","","","","","","",""
"image-keyboard-response","113","41480","0.0-6.0-1.54","60c837327440575481e333ce","bdp_trlrn","Tue Mar 14 2023 14:30:26 GMT-0400 (Eastern Daylight Time)","373950","Untrustworthy,Trustworthy","","513","","","","rating","","trustrating_stim/white_mw099.bmp","7","","","","","","","","","","",""
"image-keyboard-response","114","41684","0.0-6.0-2.54","60c837327440575481e333ce","bdp_trlrn","Tue Mar 14 2023 14:30:26 GMT-0400 (Eastern Daylight Time)","373950","Untrustworthy,Trustworthy","","null","","","","ratingFB","","trustrating_stim/white_mw099.bmp","null","","","","","","","","","","",""
"image-keyboard-response","115","41819","0.0-6.0-1.55","60c837327440575481e333ce","bdp_trlrn","Tue Mar 14 2023 14:30:26 GMT-0400 (Eastern Daylight Time)","373950","Untrustworthy,Trustworthy","","26","","","","rating","","trustrating_stim/white_mw046.bmp","3","","","","","","","","","","",""
"image-keyboard-response","116","42026","0.0-6.0-2.55","60c837327440575481e333ce","bdp_trlrn","Tue Mar 14 2023 14:30:26 GMT-0400 (Eastern Daylight Time)","373950","Untrustworthy,Trustworthy","","null","","","","ratingFB","","trustrating_stim/white_mw046.bmp","null","","","","","","","","","","",""
"image-keyboard-response","117","42336","0.0-6.0-1.56","60c837327440575481e333ce","bdp_trlrn","Tue Mar 14 2023 14:30:26 GMT-0400 (Eastern Daylight Time)","373950","Untrustworthy,Trustworthy","","202","","","","rating","","trustrating_stim/white_mw066.bmp","8","","","","","","","","","","",""
"image-keyboard-response","118","42552","0.0-6.0-2.56","60c837327440575481e333ce","bdp_trlrn","Tue Mar 14 2023 14:30:26 GMT-0400 (Eastern Daylight Time)","373950","Untrustworthy,Trustworthy","","null","","","","ratingFB","","trustrating_stim/white_mw066.bmp","null","","","","","","","","","","",""
"image-keyboard-response","119","42747","0.0-6.0-1.57","60c837327440575481e333ce","bdp_trlrn","Tue Mar 14 2023 14:30:26 GMT-0400 (Eastern Daylight Time)","373950","Untrustworthy,Trustworthy","","86","","","","rating","","trustrating_stim/white_mw056.bmp","2","","","","","","","","","","",""
"image-keyboard-response","120","42955","0.0-6.0-2.57","60c837327440575481e333ce","bdp_trlrn","Tue Mar 14 2023 14:30:26 GMT-0400 (Eastern Daylight Time)","373950","Untrustworthy,Trustworthy","","null","","","","ratingFB","","trustrating_stim/white_mw056.bmp","null","","","","","","","","","","",""
"image-keyboard-response","121","43238","0.0-6.0-1.58","60c837327440575481e333ce","bdp_trlrn","Tue Mar 14 2023 14:30:26 GMT-0400 (Eastern Daylight Time)","373950","Untrustworthy,Trustworthy","","177","","","","rating","","trustrating_stim/white_mw063.bmp","7","","","","","","","","","","",""
"image-keyboard-response","122","43444","0.0-6.0-2.58","60c837327440575481e333ce","bdp_trlrn","Tue Mar 14 2023 14:30:26 GMT-0400 (Eastern Daylight Time)","373950","Untrustworthy,Trustworthy","","null","","","","ratingFB","","trustrating_stim/white_mw063.bmp","null","","","","","","","","","","",""
"image-keyboard-response","123","43581","0.0-6.0-1.59","60c837327440575481e333ce","bdp_trlrn","Tue Mar 14 2023 14:30:26 GMT-0400 (Eastern Daylight Time)","373950","Untrustworthy,Trustworthy","","27","","","","rating","","trustrating_stim/white_00761_941201_fb_edt.bmp","3","","","","","","","","","","",""
"image-keyboard-response","124","43785","0.0-6.0-2.59","60c837327440575481e333ce","bdp_trlrn","Tue Mar 14 2023 14:30:26 GMT-0400 (Eastern Daylight Time)","373950","Untrustworthy,Trustworthy","","null","","","","ratingFB","","trustrating_stim/white_00761_941201_fb_edt.bmp","null","","","","","","","","","","",""
"instructions","125","44776","0.0-7.0","60c837327440575481e333ce","bdp_trlrn","Tue Mar 14 2023 14:30:26 GMT-0400 (Eastern Daylight Time)","373950","Untrustworthy,Trustworthy","[{""page_index"":0,""viewing_time"":881}]","882","","","","","","","","","","","","","","","","","",""
"instructions","126","51475","0.0-8.0","60c837327440575481e333ce","bdp_trlrn","Tue Mar 14 2023 14:30:26 GMT-0400 (Eastern Daylight Time)","373950","Untrustworthy,Trustworthy","[{""page_index"":0,""viewing_time"":973},{""page_index"":1,""viewing_time"":660},{""page_index"":2,""viewing_time"":799},{""page_index"":3,""viewing_time"":765},{""page_index"":4,""viewing_time"":612},{""page_index"":5,""viewing_time"":975},{""page_index"":6,""viewing_time"":933},{""page_index"":7,""viewing_time"":871}]","6588","","","","","","","","","","","","","","","","","",""
"html-keyboard-response","127","55598","0.0-9.0","60c837327440575481e333ce","bdp_trlrn","Tue Mar 14 2023 14:30:26 GMT-0400 (Eastern Daylight Time)","373950","Untrustworthy,Trustworthy","","4121","","","","","","<div class='header' style='text-align:left; position: absolute; top: 5%; left: 5%;'><small>Task 3 of 5</small></div><div class='instruxDiv'><p><strong>1) What is the minimum number of points you can choose to send to your partner?</strong></p><p>a) 0</p><p>b) 1</p><p>c) 5</p>","C","","","","","","","","","","",""
"html-keyboard-response","128","57635","0.0-10.0","60c837327440575481e333ce","bdp_trlrn","Tue Mar 14 2023 14:30:26 GMT-0400 (Eastern Daylight Time)","373950","Untrustworthy,Trustworthy","","1932","","","","","","<div class='header' style='text-align:left; position: absolute; top: 5%; left: 5%;'><small>Task 3 of 5</small></div><div class='instruxDiv'><p><strong>1) What is the minimum number of points you can choose to send to your partner?</strong></p><p>a) 1</p><p>b) 1</p><p style='color:#FF0000'>c) 5</p><h3 style='color:#FF0000'>Incorrect!</h3><h3 class='center-content'>The correct response is b).</h3><h3 class='center-content'>The minimum number of points you can choose to send to your partner is 1 point.</h3><p><em>Press SPACEBAR to continue</em></p></div>"," ","","","","","","","","","","",""
"html-keyboard-response","129","59411","0.0-11.0","60c837327440575481e333ce","bdp_trlrn","Tue Mar 14 2023 14:30:26 GMT-0400 (Eastern Daylight Time)","373950","Untrustworthy,Trustworthy","","1663","","","","","","<div class='header' style='text-align:left; position: absolute; top: 5%; left: 5%;'><small>Task 3 of 5</small></div><div class='instruxDiv'><p><strong>2) What is the maximum number of points you can choose to send to your partner?</strong></p><p>a) 8</p><p>b) 5</p><p>c) 3</p>","B","","","","","","","","","","",""
"html-keyboard-response","130","60067","0.0-12.0","60c837327440575481e333ce","bdp_trlrn","Tue Mar 14 2023 14:30:26 GMT-0400 (Eastern Daylight Time)","373950","Untrustworthy,Trustworthy","","546","","","","","","<div class='header' style='text-align:left; position: absolute; top: 5%; left: 5%;'><small>Task 3 of 5</small></div><div class='instruxDiv'><p><strong>2) What is the maximum number of points you can choose to send to your partner?</strong></p><p>a) 8</p><p style='color:#00FF00'>b) 5</p><p>c) 3</p><h3 style='color:#00FF00'>Correct!</h3><h3 class='center-content'>The correct response is b).</h3><h3 class='center-content'>The maximum number of points you can choose to send to your partner is 5 points.</h3><p><em>Press SPACEBAR to continue</em></p></div>"," ","","","","","","","","","","",""
"html-keyboard-response","131","61553","0.0-13.0","60c837327440575481e333ce","bdp_trlrn","Tue Mar 14 2023 14:30:26 GMT-0400 (Eastern Daylight Time)","373950","Untrustworthy,Trustworthy","","1382","","","","","","<div class='header' style='text-align:left; position: absolute; top: 5%; left: 5%;'><small>Task 3 of 5</small></div><div class='instruxDiv'><p><strong>3) What happens to the amount of points you send to your partner?</strong></p><p>a) Nothing</p><p>b) It doubles</p><p>c) It quadruples</p>","B","","","","","","","","","","",""
"html-keyboard-response","132","63102","0.0-14.0","60c837327440575481e333ce","bdp_trlrn","Tue Mar 14 2023 14:30:26 GMT-0400 (Eastern Daylight Time)","373950","Untrustworthy,Trustworthy","","1443","","","","","","<div class='header' style='text-align:left; position: absolute; top: 5%; left: 5%;'><small>Task 3 of 5</small></div><div class='instruxDiv'><p><strong>3) What happens to the amount of points you send to your partner?</strong></p><p>a) Nothing</p><p style='color:#FF0000'>b) It doubles</p><p>c) It quadruples</p><h3 style='color:#FF0000'>Incorrect!</h3><h3 class='center-content'>The correct response is c).</h3><h3 class='center-content'>The amount of points you send to your partner quadruples.</h3><p><em>Press SPACEBAR to continue</em></p></div>"," ","","","","","","","","","","",""
"html-keyboard-response","133","67692","0.0-15.0","60c837327440575481e333ce","bdp_trlrn","Tue Mar 14 2023 14:30:26 GMT-0400 (Eastern Daylight Time)","373950","Untrustworthy,Trustworthy","","4488","","","","","","<div class='header' style='text-align:left; position: absolute; top: 5%; left: 5%;'><small>Task 3 of 5</small></div><div class='instruxDiv'><p><strong>4) If you decided to share 4 out of 5 points with your partner, and they decided to share half of the amount they received with you, how many points would you receive back from them on this round?</strong></p><p>a) 16</p><p>b) 0</p><p>c) 8</p>","C","","","","","","","","","","",""
"html-keyboard-response","134","68422","0.0-16.0","60c837327440575481e333ce","bdp_trlrn","Tue Mar 14 2023 14:30:26 GMT-0400 (Eastern Daylight Time)","373950","Untrustworthy,Trustworthy","","628","","","","","","<div class='header' style='text-align:left; position: absolute; top: 5%; left: 5%;'><small>Task 3 of 5</small></div><div class='instruxDiv'><p><strong>4) If you decided to share 4 out of 5 points with your partner, and they decided to share half of the amount they received with you, how many points would you receive back from them on this round?</strong></p><p>a) 16</p><p>b) 0</p><p style='color:#00FF00'>c) 8</p><h3 style='color:#00FF00'>Correct!</h3><h3 class='center-content'>The correct response is c).</h3><h3 class='center-content'>If you shared 4 out of 5 points with your partner and they decided to share half of the amount they received with you, you would receive 8 points back (i.e. (4 x 4)/2 = 8).</h3><p><em>Press SPACEBAR to continue</em></p></div>"," ","","","","","","","","","","",""
"html-keyboard-response","135","73550","0.0-17.0","60c837327440575481e333ce","bdp_trlrn","Tue Mar 14 2023 14:30:26 GMT-0400 (Eastern Daylight Time)","373950","Untrustworthy,Trustworthy","","null","","","","","","<div class='header' style='text-align:left; position: absolute; top: 5%; left: 5%;'><small>Task 3 of 5</small></div><div class='instruxDiv'><p>Thank you for completing the quiz<p>These are the actual partners you will be interacting with in the next block:<p><div class='tc' align='center'><img class='introPic' src='trustrating_stim/white_mw071.bmp'><br><strong>Jordan</strong></div><div class='bl' align='center'><img class='introPic' src='trustrating_stim/white_mw099.bmp'><br><strong>Nathan</strong></div><div class='br' align='center'><img class='introPic' src='trustrating_stim/white_mw049.bmp'><br><strong>Michael</strong></div></div><p>Across <strong>66 rounds</strong> you will interact with each partner <strong>22 times</strong> (in random order).<p style='align:center; color:white'><font <em>Press SPACEBAR to continue</em></p>","null","","","","","","","","","","",""
"instructions","136","80075","0.0-18.0","60c837327440575481e333ce","bdp_trlrn","Tue Mar 14 2023 14:30:26 GMT-0400 (Eastern Daylight Time)","373950","Untrustworthy,Trustworthy","[{""page_index"":0,""viewing_time"":5327},{""page_index"":1,""viewing_time"":1195}]","6524","","","","","","","","","","","","","","","","","",""
"html-keyboard-response","137","81363","0.0-19.0-1.0","60c837327440575481e333ce","bdp_trlrn","Tue Mar 14 2023 14:30:26 GMT-0400 (Eastern Daylight Time)","373950","Untrustworthy,Trustworthy","","1172","","","","decision","","<div class='trialDiv'><img src='trustrating_stim/white_mw071.bmp'><br><font class='baseline'><strong>Jordan</strong><p>Choose number of points to send.</font><div class='respPicDiv'><img src='img/responseButtonOffersNo0L.png' class='respPic'></div></div>","3","1","Jordan","0","Shared","0.8,0.2","10","0.8","trustrating_stim/white_mw071.bmp","2.5","5","1"
"html-keyboard-response","138","81628","0.0-19.0-2.0","60c837327440575481e333ce","bdp_trlrn","Tue Mar 14 2023 14:30:26 GMT-0400 (Eastern Daylight Time)","373950","Untrustworthy,Trustworthy","","null","","","","decisionFB","","<div class='trialDiv'><img src='trustrating_stim/white_mw071.bmp'><br><font class='baseline'><strong>Jordan</strong><p>Choose number of points to send.</font><div class='respPicDiv'><img src='img/responseButtonOffersNo0L3.png' class='respPic'></div></div>","null","1","Jordan","0","Shared","0.8,0.2","10","0.8","trustrating_stim/white_mw071.bmp","2.5","2","1"
"html-keyboard-response","139","82640","0.0-19.0-3.0","60c837327440575481e333ce","bdp_trlrn","Tue Mar 14 2023 14:30:26 GMT-0400 (Eastern Daylight Time)","373950","Untrustworthy,Trustworthy","","null","","","","feedback","","<div class='trialDiv'><img src='trustrating_stim/white_mw071.bmp'><br><font class='baseline'><strong>Jordan</strong><p>Received: <strong>12</strong></font> &nbsp; &nbsp; &nbsp; &nbsp; &nbsp; &nbsp;<font class='posOutcome'>Shared back: <strong>6</strong></font></font><div class='respPicDiv'><img src='img/responseButtonOffersNo0_wht.png' class='respPic'></div></div>","null","1","Jordan","0","Shared","0.8,0.2","10","0.8","trustrating_stim/white_mw071.bmp","2.5","8","1"
"html-keyboard-response","140","83039","0.0-19.0-1.1","60c837327440575481e333ce","bdp_trlrn","Tue Mar 14 2023 14:30:26 GMT-0400 (Eastern Daylight Time)","373950","Untrustworthy,Trustworthy","","397","","","","decision","","<div class='trialDiv'><img src='trustrating_stim/white_mw099.bmp'><br><font class='baseline'><strong>Nathan</strong><p>Choose number of points to send.</font><div class='respPicDiv'><img src='img/responseButtonOffersNo0L.png' class='respPic'></div></div>","2","1","Nathan","6","Shared","0.8,0.35","8","0.8","trustrating_stim/white_mw099.bmp","4.5","13","2"
"html-keyboard-response","141","83300","0.0-19.0-2.1","60c837327440575481e333ce","bdp_trlrn","Tue Mar 14 2023 14:30:26 GMT-0400 (Eastern Daylight Time)","373950","Untrustworthy,Trustworthy","","null","","","","decisionFB","","<div class='trialDiv'><img src='trustrating_stim/white_mw099.bmp'><br><font class='baseline'><strong>Nathan</strong><p>Choose number of points to send.</font><div class='respPicDiv'><img src='img/responseButtonOffersNo0L2.png' class='respPic'></div></div>","null","1","Nathan","6","Shared","0.8,0.35","8","0.8","trustrating_stim/white_mw099.bmp","4.5","11","2"
"html-keyboard-response","142","84307","0.0-19.0-3.1","60c837327440575481e333ce","bdp_trlrn","Tue Mar 14 2023 14:30:26 GMT-0400 (Eastern Daylight Time)","373950","Untrustworthy,Trustworthy","","null","","","","feedback","","<div class='trialDiv'><img src='trustrating_stim/white_mw099.bmp'><br><font class='baseline'><strong>Nathan</strong><p>Received: <strong>8</strong></font> &nbsp; &nbsp; &nbsp; &nbsp; &nbsp; &nbsp;<font class='posOutcome'>Shared back: <strong>4</strong></font></font><div class='respPicDiv'><img src='img/responseButtonOffersNo0_wht.png' class='respPic'></div></div>","null","1","Nathan","6","Shared","0.8,0.35","8","0.8","trustrating_stim/white_mw099.bmp","4.5","15","2"
"html-keyboard-response","143","85004","0.0-19.0-1.2","60c837327440575481e333ce","bdp_trlrn","Tue Mar 14 2023 14:30:26 GMT-0400 (Eastern Daylight Time)","373950","Untrustworthy,Trustworthy","","695","","","","decision","","<div class='trialDiv'><img src='trustrating_stim/white_mw049.bmp'><br><font class='baseline'><strong>Michael</strong><p>Choose number of points to send.</font><div class='respPicDiv'><img src='img/responseButtonOffersNo0L.png' class='respPic'></div></div>","5","1","Michael","10","Kept","0.2,0.65","8","0.2","trustrating_stim/white_mw049.bmp","7.5","20","3"
"html-keyboard-response","144","85256","0.0-19.0-2.2","60c837327440575481e333ce","bdp_trlrn","Tue Mar 14 2023 14:30:26 GMT-0400 (Eastern Daylight Time)","373950","Untrustworthy,Trustworthy","","null","","","","decisionFB","","<div class='trialDiv'><img src='trustrating_stim/white_mw049.bmp'><br><font class='baseline'><strong>Michael</strong><p>Choose number of points to send.</font><div class='respPicDiv'><img src='img/responseButtonOffersNo0L5.png' class='respPic'></div></div>","null","1","Michael","10","Kept","0.2,0.65","8","0.2","trustrating_stim/white_mw049.bmp","7.5","15","3"
"html-keyboard-response","145","86263","0.0-19.0-3.2","60c837327440575481e333ce","bdp_trlrn","Tue Mar 14 2023 14:30:26 GMT-0400 (Eastern Daylight Time)","373950","Untrustworthy,Trustworthy","","null","","","","feedback","","<div class='trialDiv'><img src='trustrating_stim/white_mw049.bmp'><br><font class='baseline'><strong>Michael</strong><p>Received: <strong>20</strong></font> &nbsp; &nbsp; &nbsp; &nbsp; &nbsp; &nbsp;<font class='negOutcome'>Shared back: <strong>0</strong></font></font><div class='respPicDiv'><img src='img/responseButtonOffersNo0_wht.png' class='respPic'></div></div>","null","1","Michael","10","Kept","0.2,0.65","8","0.2","trustrating_stim/white_mw049.bmp","7.5","15","3"
"html-keyboard-response","146","86327","0.0-19.0-1.3","60c837327440575481e333ce","bdp_trlrn","Tue Mar 14 2023 14:30:26 GMT-0400 (Eastern Daylight Time)","373950","Untrustworthy,Trustworthy","","63","","","","decision","","<div class='trialDiv'><img src='trustrating_stim/white_mw099.bmp'><br><font class='baseline'><strong>Nathan</strong><p>Choose number of points to send.</font><div class='respPicDiv'><img src='img/responseButtonOffersNo0L.png' class='respPic'></div></div>","3","2","Nathan","6","Shared","0.8,0.35","8","0.8","trustrating_stim/white_mw099.bmp","4.5","20","4"
"html-keyboard-response","147","86590","0.0-19.0-2.3","60c837327440575481e333ce","bdp_trlrn","Tue Mar 14 2023 14:30:26 GMT-0400 (Eastern Daylight Time)","373950","Untrustworthy,Trustworthy","","null","","","","decisionFB","","<div class='trialDiv'><img src='trustrating_stim/white_mw099.bmp'><br><font class='baseline'><strong>Nathan</strong><p>Choose number of points to send.</font><div class='respPicDiv'><img src='img/responseButtonOffersNo0L3.png' class='respPic'></div></div>","null","2","Nathan","6","Shared","0.8,0.35","8","0.8","trustrating_stim/white_mw099.bmp","4.5","17","4"
"html-keyboard-response","148","87600","0.0-19.0-3.3","60c837327440575481e333ce","bdp_trlrn","Tue Mar 14 2023 14:30:26 GMT-0400 (Eastern Daylight Time)","373950","Untrustworthy,Trustworthy","","null","","","","feedback","","<div class='trialDiv'><img src='trustrating_stim/white_mw099.bmp'><br><font class='baseline'><strong>Nathan</strong><p>Received: <strong>12</strong></font> &nbsp; &nbsp; &nbsp; &nbsp; &nbsp; &nbsp;<font class='posOutcome'>Shared back: <strong>6</strong></font></font><div class='respPicDiv'><img src='img/responseButtonOffersNo0_wht.png' class='respPic'></div></div>","null","2","Nathan","6","Shared","0.8,0.35","8","0.8","trustrating_stim/white_mw099.bmp","4.5","23","4"
"html-keyboard-response","149","87819","0.0-19.0-1.4","60c837327440575481e333ce","bdp_trlrn","Tue Mar 14 2023 14:30:26 GMT-0400 (Eastern Daylight Time)","373950","Untrustworthy,Trustworthy","","217","","","","decision","","<div class='trialDiv'><img src='trustrating_stim/white_mw049.bmp'><br><font class='baseline'><strong>Michael</strong><p>Choose number of points to send.</font><div class='respPicDiv'><img src='img/responseButtonOffersNo0L.png' class='respPic'></div></div>","2","2","Michael","10","Kept","0.2,0.65","8","0.2","trustrating_stim/white_mw049.bmp","7.5","28","5"
"html-keyboard-response","150","88076","0.0-19.0-2.4","60c837327440575481e333ce","bdp_trlrn","Tue Mar 14 2023 14:30:26 GMT-0400 (Eastern Daylight Time)","373950","Untrustworthy,Trustworthy","","null","","","","decisionFB","","<div class='trialDiv'><img src='trustrating_stim/white_mw049.bmp'><br><font class='baseline'><strong>Michael</strong><p>Choose number of points to send.</font><div class='respPicDiv'><img src='img/responseButtonOffersNo0L2.png' class='respPic'></div></div>","null","2","Michael","10","Kept","0.2,0.65","8","0.2","trustrating_stim/white_mw049.bmp","7.5","26","5"
"html-keyboard-response","151","89083","0.0-19.0-3.4","60c837327440575481e333ce","bdp_trlrn","Tue Mar 14 2023 14:30:26 GMT-0400 (Eastern Daylight Time)","373950","Untrustworthy,Trustworthy","","null","","","","feedback","","<div class='trialDiv'><img src='trustrating_stim/white_mw049.bmp'><br><font class='baseline'><strong>Michael</strong><p>Received: <strong>8</strong></font> &nbsp; &nbsp; &nbsp; &nbsp; &nbsp; &nbsp;<font class='negOutcome'>Shared back: <strong>0</strong></font></font><div class='respPicDiv'><img src='img/responseButtonOffersNo0_wht.png' class='respPic'></div></div>","null","2","Michael","10","Kept","0.2,0.65","8","0.2","trustrating_stim/white_mw049.bmp","7.5","26","5"
"html-keyboard-response","152","89880","0.0-19.0-1.5","60c837327440575481e333ce","bdp_trlrn","Tue Mar 14 2023 14:30:26 GMT-0400 (Eastern Daylight Time)","373950","Untrustworthy,Trustworthy","","794","","","","decision","","<div class='trialDiv'><img src='trustrating_stim/white_mw071.bmp'><br><font class='baseline'><strong>Jordan</strong><p>Choose number of points to send.</font><div class='respPicDiv'><img src='img/responseButtonOffersNo0L.png' class='respPic'></div></div>","4","2","Jordan","0","Shared","0.8,0.2","10","0.8","trustrating_stim/white_mw071.bmp","2.5","31","6"
"html-keyboard-response","153","90144","0.0-19.0-2.5","60c837327440575481e333ce","bdp_trlrn","Tue Mar 14 2023 14:30:26 GMT-0400 (Eastern Daylight Time)","373950","Untrustworthy,Trustworthy","","null","","","","decisionFB","","<div class='trialDiv'><img src='trustrating_stim/white_mw071.bmp'><br><font class='baseline'><strong>Jordan</strong><p>Choose number of points to send.</font><div class='respPicDiv'><img src='img/responseButtonOffersNo0L4.png' class='respPic'></div></div>","null","2","Jordan","0","Shared","0.8,0.2","10","0.8","trustrating_stim/white_mw071.bmp","2.5","27","6"
"html-keyboard-response","154","91155","0.0-19.0-3.5","60c837327440575481e333ce","bdp_trlrn","Tue Mar 14 2023 14:30:26 GMT-0400 (Eastern Daylight Time)","373950","Untrustworthy,Trustworthy","","null","","","","feedback","","<div class='trialDiv'><img src='trustrating_stim/white_mw071.bmp'><br><font class='baseline'><strong>Jordan</strong><p>Received: <strong>16</strong></font> &nbsp; &nbsp; &nbsp; &nbsp; &nbsp; &nbsp;<font class='posOutcome'>Shared back: <strong>8</strong></font></font><div class='respPicDiv'><img src='img/responseButtonOffersNo0_wht.png' class='respPic'></div></div>","null","2","Jordan","0","Shared","0.8,0.2","10","0.8","trustrating_stim/white_mw071.bmp","2.5","35","6"
"html-keyboard-response","155","120275","0.0-19.0-1.6","60c837327440575481e333ce","bdp_trlrn","Tue Mar 14 2023 14:30:26 GMT-0400 (Eastern Daylight Time)","373950","Untrustworthy,Trustworthy","","29119","","","","decision","","<div class='trialDiv'><img src='trustrating_stim/white_mw049.bmp'><br><font class='baseline'><strong>Michael</strong><p>Choose number of points to send.</font><div class='respPicDiv'><img src='img/responseButtonOffersNo0L.png' class='respPic'></div></div>","2","3","Michael","10","Kept","0.2,0.65","8","0.2","trustrating_stim/white_mw049.bmp","7.5","40","7"
"html-keyboard-response","156","120538","0.0-19.0-2.6","60c837327440575481e333ce","bdp_trlrn","Tue Mar 14 2023 14:30:26 GMT-0400 (Eastern Daylight Time)","373950","Untrustworthy,Trustworthy","","null","","","","decisionFB","","<div class='trialDiv'><img src='trustrating_stim/white_mw049.bmp'><br><font class='baseline'><strong>Michael</strong><p>Choose number of points to send.</font><div class='respPicDiv'><img src='img/responseButtonOffersNo0L2.png' class='respPic'></div></div>","null","3","Michael","10","Kept","0.2,0.65","8","0.2","trustrating_stim/white_mw049.bmp","7.5","38","7"
"html-keyboard-response","157","121546","0.0-19.0-3.6","60c837327440575481e333ce","bdp_trlrn","Tue Mar 14 2023 14:30:26 GMT-0400 (Eastern Daylight Time)","373950","Untrustworthy,Trustworthy","","null","","","","feedback","","<div class='trialDiv'><img src='trustrating_stim/white_mw049.bmp'><br><font class='baseline'><strong>Michael</strong><p>Received: <strong>8</strong></font> &nbsp; &nbsp; &nbsp; &nbsp; &nbsp; &nbsp;<font class='negOutcome'>Shared back: <strong>0</strong></font></font><div class='respPicDiv'><img src='img/responseButtonOffersNo0_wht.png' class='respPic'></div></div>","null","3","Michael","10","Kept","0.2,0.65","8","0.2","trustrating_stim/white_mw049.bmp","7.5","38","7"
"html-keyboard-response","158","121769","0.0-19.0-1.7","60c837327440575481e333ce","bdp_trlrn","Tue Mar 14 2023 14:30:26 GMT-0400 (Eastern Daylight Time)","373950","Untrustworthy,Trustworthy","","221","","","","decision","","<div class='trialDiv'><img src='trustrating_stim/white_mw071.bmp'><br><font class='baseline'><strong>Jordan</strong><p>Choose number of points to send.</font><div class='respPicDiv'><img src='img/responseButtonOffersNo0L.png' class='respPic'></div></div>","3","3","Jordan","0","Kept","0.8,0.2","10","0.8","trustrating_stim/white_mw071.bmp","2.5","43","8"
"html-keyboard-response","159","122027","0.0-19.0-2.7","60c837327440575481e333ce","bdp_trlrn","Tue Mar 14 2023 14:30:26 GMT-0400 (Eastern Daylight Time)","373950","Untrustworthy,Trustworthy","","null","","","","decisionFB","","<div class='trialDiv'><img src='trustrating_stim/white_mw071.bmp'><br><font class='baseline'><strong>Jordan</strong><p>Choose number of points to send.</font><div class='respPicDiv'><img src='img/responseButtonOffersNo0L3.png' class='respPic'></div></div>","null","3","Jordan","0","Kept","0.8,0.2","10","0.8","trustrating_stim/white_mw071.bmp","2.5","40","8"
"html-keyboard-response","160","123044","0.0-19.0-3.7","60c837327440575481e333ce","bdp_trlrn","Tue Mar 14 2023 14:30:26 GMT-0400 (Eastern Daylight Time)","373950","Untrustworthy,Trustworthy","","null","","","","feedback","","<div class='trialDiv'><img src='trustrating_stim/white_mw071.bmp'><br><font class='baseline'><strong>Jordan</strong><p>Received: <strong>12</strong></font> &nbsp; &nbsp; &nbsp; &nbsp; &nbsp; &nbsp;<font class='negOutcome'>Shared back: <strong>0</strong></font></font><div class='respPicDiv'><img src='img/responseButtonOffersNo0_wht.png' class='respPic'></div></div>","null","3","Jordan","0","Kept","0.8,0.2","10","0.8","trustrating_stim/white_mw071.bmp","2.5","40","8"
"html-keyboard-response","161","123236","0.0-19.0-1.8","60c837327440575481e333ce","bdp_trlrn","Tue Mar 14 2023 14:30:26 GMT-0400 (Eastern Daylight Time)","373950","Untrustworthy,Trustworthy","","190","","","","decision","","<div class='trialDiv'><img src='trustrating_stim/white_mw099.bmp'><br><font class='baseline'><strong>Nathan</strong><p>Choose number of points to send.</font><div class='respPicDiv'><img src='img/responseButtonOffersNo0L.png' class='respPic'></div></div>","1","3","Nathan","6","Shared","0.8,0.35","8","0.8","trustrating_stim/white_mw099.bmp","4.5","45","9"
"html-keyboard-response","162","123494","0.0-19.0-2.8","60c837327440575481e333ce","bdp_trlrn","Tue Mar 14 2023 14:30:26 GMT-0400 (Eastern Daylight Time)","373950","Untrustworthy,Trustworthy","","null","","","","decisionFB","","<div class='trialDiv'><img src='trustrating_stim/white_mw099.bmp'><br><font class='baseline'><strong>Nathan</strong><p>Choose number of points to send.</font><div class='respPicDiv'><img src='img/responseButtonOffersNo0L1.png' class='respPic'></div></div>","null","3","Nathan","6","Shared","0.8,0.35","8","0.8","trustrating_stim/white_mw099.bmp","4.5","44","9"
"html-keyboard-response","163","124502","0.0-19.0-3.8","60c837327440575481e333ce","bdp_trlrn","Tue Mar 14 2023 14:30:26 GMT-0400 (Eastern Daylight Time)","373950","Untrustworthy,Trustworthy","","null","","","","feedback","","<div class='trialDiv'><img src='trustrating_stim/white_mw099.bmp'><br><font class='baseline'><strong>Nathan</strong><p>Received: <strong>4</strong></font> &nbsp; &nbsp; &nbsp; &nbsp; &nbsp; &nbsp;<font class='posOutcome'>Shared back: <strong>2</strong></font></font><div class='respPicDiv'><img src='img/responseButtonOffersNo0_wht.png' class='respPic'></div></div>","null","3","Nathan","6","Shared","0.8,0.35","8","0.8","trustrating_stim/white_mw099.bmp","4.5","46","9"
"html-keyboard-response","164","125060","0.0-19.0-1.9","60c837327440575481e333ce","bdp_trlrn","Tue Mar 14 2023 14:30:26 GMT-0400 (Eastern Daylight Time)","373950","Untrustworthy,Trustworthy","","556","","","","decision","","<div class='trialDiv'><img src='trustrating_stim/white_mw071.bmp'><br><font class='baseline'><strong>Jordan</strong><p>Choose number of points to send.</font><div class='respPicDiv'><img src='img/responseButtonOffersNo0L.png' class='respPic'></div></div>","3","4","Jordan","0","Shared","0.8,0.2","10","0.8","trustrating_stim/white_mw071.bmp","2.5","51","10"
"html-keyboard-response","165","125321","0.0-19.0-2.9","60c837327440575481e333ce","bdp_trlrn","Tue Mar 14 2023 14:30:26 GMT-0400 (Eastern Daylight Time)","373950","Untrustworthy,Trustworthy","","null","","","","decisionFB","","<div class='trialDiv'><img src='trustrating_stim/white_mw071.bmp'><br><font class='baseline'><strong>Jordan</strong><p>Choose number of points to send.</font><div class='respPicDiv'><img src='img/responseButtonOffersNo0L3.png' class='respPic'></div></div>","null","4","Jordan","0","Shared","0.8,0.2","10","0.8","trustrating_stim/white_mw071.bmp","2.5","48","10"
"html-keyboard-response","166","126326","0.0-19.0-3.9","60c837327440575481e333ce","bdp_trlrn","Tue Mar 14 2023 14:30:26 GMT-0400 (Eastern Daylight Time)","373950","Untrustworthy,Trustworthy","","null","","","","feedback","","<div class='trialDiv'><img src='trustrating_stim/white_mw071.bmp'><br><font class='baseline'><strong>Jordan</strong><p>Received: <strong>12</strong></font> &nbsp; &nbsp; &nbsp; &nbsp; &nbsp; &nbsp;<font class='posOutcome'>Shared back: <strong>6</strong></font></font><div class='respPicDiv'><img src='img/responseButtonOffersNo0_wht.png' class='respPic'></div></div>","null","4","Jordan","0","Shared","0.8,0.2","10","0.8","trustrating_stim/white_mw071.bmp","2.5","54","10"
"html-keyboard-response","167","126502","0.0-19.0-1.10","60c837327440575481e333ce","bdp_trlrn","Tue Mar 14 2023 14:30:26 GMT-0400 (Eastern Daylight Time)","373950","Untrustworthy,Trustworthy","","175","","","","decision","","<div class='trialDiv'><img src='trustrating_stim/white_mw049.bmp'><br><font class='baseline'><strong>Michael</strong><p>Choose number of points to send.</font><div class='respPicDiv'><img src='img/responseButtonOffersNo0L.png' class='respPic'></div></div>","2","4","Michael","10","Shared","0.2,0.65","8","0.2","trustrating_stim/white_mw049.bmp","7.5","59","11"
"html-keyboard-response","168","126759","0.0-19.0-2.10","60c837327440575481e333ce","bdp_trlrn","Tue Mar 14 2023 14:30:26 GMT-0400 (Eastern Daylight Time)","373950","Untrustworthy,Trustworthy","","null","","","","decisionFB","","<div class='trialDiv'><img src='trustrating_stim/white_mw049.bmp'><br><font class='baseline'><strong>Michael</strong><p>Choose number of points to send.</font><div class='respPicDiv'><img src='img/responseButtonOffersNo0L2.png' class='respPic'></div></div>","null","4","Michael","10","Shared","0.2,0.65","8","0.2","trustrating_stim/white_mw049.bmp","7.5","57","11"
"html-keyboard-response","169","127767","0.0-19.0-3.10","60c837327440575481e333ce","bdp_trlrn","Tue Mar 14 2023 14:30:26 GMT-0400 (Eastern Daylight Time)","373950","Untrustworthy,Trustworthy","","null","","","","feedback","","<div class='trialDiv'><img src='trustrating_stim/white_mw049.bmp'><br><font class='baseline'><strong>Michael</strong><p>Received: <strong>8</strong></font> &nbsp; &nbsp; &nbsp; &nbsp; &nbsp; &nbsp;<font class='posOutcome'>Shared back: <strong>4</strong></font></font><div class='respPicDiv'><img src='img/responseButtonOffersNo0_wht.png' class='respPic'></div></div>","null","4","Michael","10","Shared","0.2,0.65","8","0.2","trustrating_stim/white_mw049.bmp","7.5","61","11"
"html-keyboard-response","170","128148","0.0-19.0-1.11","60c837327440575481e333ce","bdp_trlrn","Tue Mar 14 2023 14:30:26 GMT-0400 (Eastern Daylight Time)","373950","Untrustworthy,Trustworthy","","379","","","","decision","","<div class='trialDiv'><img src='trustrating_stim/white_mw099.bmp'><br><font class='baseline'><strong>Nathan</strong><p>Choose number of points to send.</font><div class='respPicDiv'><img src='img/responseButtonOffersNo0L.png' class='respPic'></div></div>","1","4","Nathan","6","Shared","0.8,0.35","8","0.8","trustrating_stim/white_mw099.bmp","4.5","66","12"
"html-keyboard-response","171","128405","0.0-19.0-2.11","60c837327440575481e333ce","bdp_trlrn","Tue Mar 14 2023 14:30:26 GMT-0400 (Eastern Daylight Time)","373950","Untrustworthy,Trustworthy","","null","","","","decisionFB","","<div class='trialDiv'><img src='trustrating_stim/white_mw099.bmp'><br><font class='baseline'><strong>Nathan</strong><p>Choose number of points to send.</font><div class='respPicDiv'><img src='img/responseButtonOffersNo0L1.png' class='respPic'></div></div>","null","4","Nathan","6","Shared","0.8,0.35","8","0.8","trustrating_stim/white_mw099.bmp","4.5","65","12"
"html-keyboard-response","172","129422","0.0-19.0-3.11","60c837327440575481e333ce","bdp_trlrn","Tue Mar 14 2023 14:30:26 GMT-0400 (Eastern Daylight Time)","373950","Untrustworthy,Trustworthy","","null","","","","feedback","","<div class='trialDiv'><img src='trustrating_stim/white_mw099.bmp'><br><font class='baseline'><strong>Nathan</strong><p>Received: <strong>4</strong></font> &nbsp; &nbsp; &nbsp; &nbsp; &nbsp; &nbsp;<font class='posOutcome'>Shared back: <strong>2</strong></font></font><div class='respPicDiv'><img src='img/responseButtonOffersNo0_wht.png' class='respPic'></div></div>","null","4","Nathan","6","Shared","0.8,0.35","8","0.8","trustrating_stim/white_mw099.bmp","4.5","67","12"
"html-keyboard-response","173","129692","0.0-19.0-1.12","60c837327440575481e333ce","bdp_trlrn","Tue Mar 14 2023 14:30:26 GMT-0400 (Eastern Daylight Time)","373950","Untrustworthy,Trustworthy","","269","","","","decision","","<div class='trialDiv'><img src='trustrating_stim/white_mw049.bmp'><br><font class='baseline'><strong>Michael</strong><p>Choose number of points to send.</font><div class='respPicDiv'><img src='img/responseButtonOffersNo0L.png' class='respPic'></div></div>","4","5","Michael","10","Kept","0.2,0.65","8","0.2","trustrating_stim/white_mw049.bmp","7.5","72","13"
"html-keyboard-response","174","129944","0.0-19.0-2.12","60c837327440575481e333ce","bdp_trlrn","Tue Mar 14 2023 14:30:26 GMT-0400 (Eastern Daylight Time)","373950","Untrustworthy,Trustworthy","","null","","","","decisionFB","","<div class='trialDiv'><img src='trustrating_stim/white_mw049.bmp'><br><font class='baseline'><strong>Michael</strong><p>Choose number of points to send.</font><div class='respPicDiv'><img src='img/responseButtonOffersNo0L4.png' class='respPic'></div></div>","null","5","Michael","10","Kept","0.2,0.65","8","0.2","trustrating_stim/white_mw049.bmp","7.5","68","13"
"html-keyboard-response","175","130946","0.0-19.0-3.12","60c837327440575481e333ce","bdp_trlrn","Tue Mar 14 2023 14:30:26 GMT-0400 (Eastern Daylight Time)","373950","Untrustworthy,Trustworthy","","null","","","","feedback","","<div class='trialDiv'><img src='trustrating_stim/white_mw049.bmp'><br><font class='baseline'><strong>Michael</strong><p>Received: <strong>16</strong></font> &nbsp; &nbsp; &nbsp; &nbsp; &nbsp; &nbsp;<font class='negOutcome'>Shared back: <strong>0</strong></font></font><div class='respPicDiv'><img src='img/responseButtonOffersNo0_wht.png' class='respPic'></div></div>","null","5","Michael","10","Kept","0.2,0.65","8","0.2","trustrating_stim/white_mw049.bmp","7.5","68","13"
"html-keyboard-response","176","131282","0.0-19.0-1.13","60c837327440575481e333ce","bdp_trlrn","Tue Mar 14 2023 14:30:26 GMT-0400 (Eastern Daylight Time)","373950","Untrustworthy,Trustworthy","","333","","","","decision","","<div class='trialDiv'><img src='trustrating_stim/white_mw071.bmp'><br><font class='baseline'><strong>Jordan</strong><p>Choose number of points to send.</font><div class='respPicDiv'><img src='img/responseButtonOffersNo0L.png' class='respPic'></div></div>","2","5","Jordan","0","Shared","0.8,0.2","10","0.8","trustrating_stim/white_mw071.bmp","2.5","73","14"
"html-keyboard-response","177","131539","0.0-19.0-2.13","60c837327440575481e333ce","bdp_trlrn","Tue Mar 14 2023 14:30:26 GMT-0400 (Eastern Daylight Time)","373950","Untrustworthy,Trustworthy","","null","","","","decisionFB","","<div class='trialDiv'><img src='trustrating_stim/white_mw071.bmp'><br><font class='baseline'><strong>Jordan</strong><p>Choose number of points to send.</font><div class='respPicDiv'><img src='img/responseButtonOffersNo0L2.png' class='respPic'></div></div>","null","5","Jordan","0","Shared","0.8,0.2","10","0.8","trustrating_stim/white_mw071.bmp","2.5","71","14"
"html-keyboard-response","178","132547","0.0-19.0-3.13","60c837327440575481e333ce","bdp_trlrn","Tue Mar 14 2023 14:30:26 GMT-0400 (Eastern Daylight Time)","373950","Untrustworthy,Trustworthy","","null","","","","feedback","","<div class='trialDiv'><img src='trustrating_stim/white_mw071.bmp'><br><font class='baseline'><strong>Jordan</strong><p>Received: <strong>8</strong></font> &nbsp; &nbsp; &nbsp; &nbsp; &nbsp; &nbsp;<font class='posOutcome'>Shared back: <strong>4</strong></font></font><div class='respPicDiv'><img src='img/responseButtonOffersNo0_wht.png' class='respPic'></div></div>","null","5","Jordan","0","Shared","0.8,0.2","10","0.8","trustrating_stim/white_mw071.bmp","2.5","75","14"
"html-keyboard-response","179","134049","0.0-19.0-1.14","60c837327440575481e333ce","bdp_trlrn","Tue Mar 14 2023 14:30:26 GMT-0400 (Eastern Daylight Time)","373950","Untrustworthy,Trustworthy","","1499","","","","decision","","<div class='trialDiv'><img src='trustrating_stim/white_mw099.bmp'><br><font class='baseline'><strong>Nathan</strong><p>Choose number of points to send.</font><div class='respPicDiv'><img src='img/responseButtonOffersNo0L.png' class='respPic'></div></div>","2","5","Nathan","6","Shared","0.8,0.35","8","0.8","trustrating_stim/white_mw099.bmp","4.5","80","15"
"html-keyboard-response","180","134309","0.0-19.0-2.14","60c837327440575481e333ce","bdp_trlrn","Tue Mar 14 2023 14:30:26 GMT-0400 (Eastern Daylight Time)","373950","Untrustworthy,Trustworthy","","null","","","","decisionFB","","<div class='trialDiv'><img src='trustrating_stim/white_mw099.bmp'><br><font class='baseline'><strong>Nathan</strong><p>Choose number of points to send.</font><div class='respPicDiv'><img src='img/responseButtonOffersNo0L2.png' class='respPic'></div></div>","null","5","Nathan","6","Shared","0.8,0.35","8","0.8","trustrating_stim/white_mw099.bmp","4.5","78","15"
"html-keyboard-response","181","135320","0.0-19.0-3.14","60c837327440575481e333ce","bdp_trlrn","Tue Mar 14 2023 14:30:26 GMT-0400 (Eastern Daylight Time)","373950","Untrustworthy,Trustworthy","","null","","","","feedback","","<div class='trialDiv'><img src='trustrating_stim/white_mw099.bmp'><br><font class='baseline'><strong>Nathan</strong><p>Received: <strong>8</strong></font> &nbsp; &nbsp; &nbsp; &nbsp; &nbsp; &nbsp;<font class='posOutcome'>Shared back: <strong>4</strong></font></font><div class='respPicDiv'><img src='img/responseButtonOffersNo0_wht.png' class='respPic'></div></div>","null","5","Nathan","6","Shared","0.8,0.35","8","0.8","trustrating_stim/white_mw099.bmp","4.5","82","15"
"html-keyboard-response","182","136327","0.0-19.0-1.15","60c837327440575481e333ce","bdp_trlrn","Tue Mar 14 2023 14:30:26 GMT-0400 (Eastern Daylight Time)","373950","Untrustworthy,Trustworthy","","1005","","","","decision","","<div class='trialDiv'><img src='trustrating_stim/white_mw071.bmp'><br><font class='baseline'><strong>Jordan</strong><p>Choose number of points to send.</font><div class='respPicDiv'><img src='img/responseButtonOffersNo0L.png' class='respPic'></div></div>","2","6","Jordan","0","Shared","0.8,0.2","10","0.8","trustrating_stim/white_mw071.bmp","2.5","87","16"
"html-keyboard-response","183","136579","0.0-19.0-2.15","60c837327440575481e333ce","bdp_trlrn","Tue Mar 14 2023 14:30:26 GMT-0400 (Eastern Daylight Time)","373950","Untrustworthy,Trustworthy","","null","","","","decisionFB","","<div class='trialDiv'><img src='trustrating_stim/white_mw071.bmp'><br><font class='baseline'><strong>Jordan</strong><p>Choose number of points to send.</font><div class='respPicDiv'><img src='img/responseButtonOffersNo0L2.png' class='respPic'></div></div>","null","6","Jordan","0","Shared","0.8,0.2","10","0.8","trustrating_stim/white_mw071.bmp","2.5","85","16"
"html-keyboard-response","184","137589","0.0-19.0-3.15","60c837327440575481e333ce","bdp_trlrn","Tue Mar 14 2023 14:30:26 GMT-0400 (Eastern Daylight Time)","373950","Untrustworthy,Trustworthy","","null","","","","feedback","","<div class='trialDiv'><img src='trustrating_stim/white_mw071.bmp'><br><font class='baseline'><strong>Jordan</strong><p>Received: <strong>8</strong></font> &nbsp; &nbsp; &nbsp; &nbsp; &nbsp; &nbsp;<font class='posOutcome'>Shared back: <strong>4</strong></font></font><div class='respPicDiv'><img src='img/responseButtonOffersNo0_wht.png' class='respPic'></div></div>","null","6","Jordan","0","Shared","0.8,0.2","10","0.8","trustrating_stim/white_mw071.bmp","2.5","89","16"
"html-keyboard-response","185","137768","0.0-19.0-1.16","60c837327440575481e333ce","bdp_trlrn","Tue Mar 14 2023 14:30:26 GMT-0400 (Eastern Daylight Time)","373950","Untrustworthy,Trustworthy","","177","","","","decision","","<div class='trialDiv'><img src='trustrating_stim/white_mw099.bmp'><br><font class='baseline'><strong>Nathan</strong><p>Choose number of points to send.</font><div class='respPicDiv'><img src='img/responseButtonOffersNo0L.png' class='respPic'></div></div>","4","6","Nathan","6","Shared","0.8,0.35","8","0.8","trustrating_stim/white_mw099.bmp","4.5","94","17"
"html-keyboard-response","186","138022","0.0-19.0-2.16","60c837327440575481e333ce","bdp_trlrn","Tue Mar 14 2023 14:30:26 GMT-0400 (Eastern Daylight Time)","373950","Untrustworthy,Trustworthy","","null","","","","decisionFB","","<div class='trialDiv'><img src='trustrating_stim/white_mw099.bmp'><br><font class='baseline'><strong>Nathan</strong><p>Choose number of points to send.</font><div class='respPicDiv'><img src='img/responseButtonOffersNo0L4.png' class='respPic'></div></div>","null","6","Nathan","6","Shared","0.8,0.35","8","0.8","trustrating_stim/white_mw099.bmp","4.5","90","17"
"html-keyboard-response","187","139036","0.0-19.0-3.16","60c837327440575481e333ce","bdp_trlrn","Tue Mar 14 2023 14:30:26 GMT-0400 (Eastern Daylight Time)","373950","Untrustworthy,Trustworthy","","null","","","","feedback","","<div class='trialDiv'><img src='trustrating_stim/white_mw099.bmp'><br><font class='baseline'><strong>Nathan</strong><p>Received: <strong>16</strong></font> &nbsp; &nbsp; &nbsp; &nbsp; &nbsp; &nbsp;<font class='posOutcome'>Shared back: <strong>8</strong></font></font><div class='respPicDiv'><img src='img/responseButtonOffersNo0_wht.png' class='respPic'></div></div>","null","6","Nathan","6","Shared","0.8,0.35","8","0.8","trustrating_stim/white_mw099.bmp","4.5","98","17"
"html-keyboard-response","188","139268","0.0-19.0-1.17","60c837327440575481e333ce","bdp_trlrn","Tue Mar 14 2023 14:30:26 GMT-0400 (Eastern Daylight Time)","373950","Untrustworthy,Trustworthy","","230","","","","decision","","<div class='trialDiv'><img src='trustrating_stim/white_mw049.bmp'><br><font class='baseline'><strong>Michael</strong><p>Choose number of points to send.</font><div class='respPicDiv'><img src='img/responseButtonOffersNo0L.png' class='respPic'></div></div>","3","6","Michael","10","Kept","0.2,0.65","8","0.2","trustrating_stim/white_mw049.bmp","7.5","103","18"
"html-keyboard-response","189","139532","0.0-19.0-2.17","60c837327440575481e333ce","bdp_trlrn","Tue Mar 14 2023 14:30:26 GMT-0400 (Eastern Daylight Time)","373950","Untrustworthy,Trustworthy","","null","","","","decisionFB","","<div class='trialDiv'><img src='trustrating_stim/white_mw049.bmp'><br><font class='baseline'><strong>Michael</strong><p>Choose number of points to send.</font><div class='respPicDiv'><img src='img/responseButtonOffersNo0L3.png' class='respPic'></div></div>","null","6","Michael","10","Kept","0.2,0.65","8","0.2","trustrating_stim/white_mw049.bmp","7.5","100","18"
"html-keyboard-response","190","140537","0.0-19.0-3.17","60c837327440575481e333ce","bdp_trlrn","Tue Mar 14 2023 14:30:26 GMT-0400 (Eastern Daylight Time)","373950","Untrustworthy,Trustworthy","","null","","","","feedback","","<div class='trialDiv'><img src='trustrating_stim/white_mw049.bmp'><br><font class='baseline'><strong>Michael</strong><p>Received: <strong>12</strong></font> &nbsp; &nbsp; &nbsp; &nbsp; &nbsp; &nbsp;<font class='negOutcome'>Shared back: <strong>0</strong></font></font><div class='respPicDiv'><img src='img/responseButtonOffersNo0_wht.png' class='respPic'></div></div>","null","6","Michael","10","Kept","0.2,0.65","8","0.2","trustrating_stim/white_mw049.bmp","7.5","100","18"
"html-keyboard-response","191","140573","0.0-19.0-1.18","60c837327440575481e333ce","bdp_trlrn","Tue Mar 14 2023 14:30:26 GMT-0400 (Eastern Daylight Time)","373950","Untrustworthy,Trustworthy","","34","","","","decision","","<div class='trialDiv'><img src='trustrating_stim/white_mw099.bmp'><br><font class='baseline'><strong>Nathan</strong><p>Choose number of points to send.</font><div class='respPicDiv'><img src='img/responseButtonOffersNo0L.png' class='respPic'></div></div>","5","7","Nathan","6","Shared","0.8,0.35","8","0.8","trustrating_stim/white_mw099.bmp","4.5","105","19"
"html-keyboard-response","192","140831","0.0-19.0-2.18","60c837327440575481e333ce","bdp_trlrn","Tue Mar 14 2023 14:30:26 GMT-0400 (Eastern Daylight Time)","373950","Untrustworthy,Trustworthy","","null","","","","decisionFB","","<div class='trialDiv'><img src='trustrating_stim/white_mw099.bmp'><br><font class='baseline'><strong>Nathan</strong><p>Choose number of points to send.</font><div class='respPicDiv'><img src='img/responseButtonOffersNo0L5.png' class='respPic'></div></div>","null","7","Nathan","6","Shared","0.8,0.35","8","0.8","trustrating_stim/white_mw099.bmp","4.5","100","19"
"html-keyboard-response","193","141840","0.0-19.0-3.18","60c837327440575481e333ce","bdp_trlrn","Tue Mar 14 2023 14:30:26 GMT-0400 (Eastern Daylight Time)","373950","Untrustworthy,Trustworthy","","null","","","","feedback","","<div class='trialDiv'><img src='trustrating_stim/white_mw099.bmp'><br><font class='baseline'><strong>Nathan</strong><p>Received: <strong>20</strong></font> &nbsp; &nbsp; &nbsp; &nbsp; &nbsp; &nbsp;<font class='posOutcome'>Shared back: <strong>10</strong></font></font><div class='respPicDiv'><img src='img/responseButtonOffersNo0_wht.png' class='respPic'></div></div>","null","7","Nathan","6","Shared","0.8,0.35","8","0.8","trustrating_stim/white_mw099.bmp","4.5","110","19"
"html-keyboard-response","194","141977","0.0-19.0-1.19","60c837327440575481e333ce","bdp_trlrn","Tue Mar 14 2023 14:30:26 GMT-0400 (Eastern Daylight Time)","373950","Untrustworthy,Trustworthy","","135","","","","decision","","<div class='trialDiv'><img src='trustrating_stim/white_mw071.bmp'><br><font class='baseline'><strong>Jordan</strong><p>Choose number of points to send.</font><div class='respPicDiv'><img src='img/responseButtonOffersNo0L.png' class='respPic'></div></div>","1","7","Jordan","0","Shared","0.8,0.2","10","0.8","trustrating_stim/white_mw071.bmp","2.5","115","20"
"html-keyboard-response","195","142230","0.0-19.0-2.19","60c837327440575481e333ce","bdp_trlrn","Tue Mar 14 2023 14:30:26 GMT-0400 (Eastern Daylight Time)","373950","Untrustworthy,Trustworthy","","null","","","","decisionFB","","<div class='trialDiv'><img src='trustrating_stim/white_mw071.bmp'><br><font class='baseline'><strong>Jordan</strong><p>Choose number of points to send.</font><div class='respPicDiv'><img src='img/responseButtonOffersNo0L1.png' class='respPic'></div></div>","null","7","Jordan","0","Shared","0.8,0.2","10","0.8","trustrating_stim/white_mw071.bmp","2.5","114","20"
"html-keyboard-response","196","143232","0.0-19.0-3.19","60c837327440575481e333ce","bdp_trlrn","Tue Mar 14 2023 14:30:26 GMT-0400 (Eastern Daylight Time)","373950","Untrustworthy,Trustworthy","","null","","","","feedback","","<div class='trialDiv'><img src='trustrating_stim/white_mw071.bmp'><br><font class='baseline'><strong>Jordan</strong><p>Received: <strong>4</strong></font> &nbsp; &nbsp; &nbsp; &nbsp; &nbsp; &nbsp;<font class='posOutcome'>Shared back: <strong>2</strong></font></font><div class='respPicDiv'><img src='img/responseButtonOffersNo0_wht.png' class='respPic'></div></div>","null","7","Jordan","0","Shared","0.8,0.2","10","0.8","trustrating_stim/white_mw071.bmp","2.5","116","20"
"html-keyboard-response","197","143389","0.0-19.0-1.20","60c837327440575481e333ce","bdp_trlrn","Tue Mar 14 2023 14:30:26 GMT-0400 (Eastern Daylight Time)","373950","Untrustworthy,Trustworthy","","156","","","","decision","","<div class='trialDiv'><img src='trustrating_stim/white_mw049.bmp'><br><font class='baseline'><strong>Michael</strong><p>Choose number of points to send.</font><div class='respPicDiv'><img src='img/responseButtonOffersNo0L.png' class='respPic'></div></div>","2","7","Michael","10","Kept","0.2,0.65","8","0.2","trustrating_stim/white_mw049.bmp","7.5","121","21"
"html-keyboard-response","198","143653","0.0-19.0-2.20","60c837327440575481e333ce","bdp_trlrn","Tue Mar 14 2023 14:30:26 GMT-0400 (Eastern Daylight Time)","373950","Untrustworthy,Trustworthy","","null","","","","decisionFB","","<div class='trialDiv'><img src='trustrating_stim/white_mw049.bmp'><br><font class='baseline'><strong>Michael</strong><p>Choose number of points to send.</font><div class='respPicDiv'><img src='img/responseButtonOffersNo0L2.png' class='respPic'></div></div>","null","7","Michael","10","Kept","0.2,0.65","8","0.2","trustrating_stim/white_mw049.bmp","7.5","119","21"
"html-keyboard-response","199","144656","0.0-19.0-3.20","60c837327440575481e333ce","bdp_trlrn","Tue Mar 14 2023 14:30:26 GMT-0400 (Eastern Daylight Time)","373950","Untrustworthy,Trustworthy","","null","","","","feedback","","<div class='trialDiv'><img src='trustrating_stim/white_mw049.bmp'><br><font class='baseline'><strong>Michael</strong><p>Received: <strong>8</strong></font> &nbsp; &nbsp; &nbsp; &nbsp; &nbsp; &nbsp;<font class='negOutcome'>Shared back: <strong>0</strong></font></font><div class='respPicDiv'><img src='img/responseButtonOffersNo0_wht.png' class='respPic'></div></div>","null","7","Michael","10","Kept","0.2,0.65","8","0.2","trustrating_stim/white_mw049.bmp","7.5","119","21"
"html-keyboard-response","200","145046","0.0-19.0-1.21","60c837327440575481e333ce","bdp_trlrn","Tue Mar 14 2023 14:30:26 GMT-0400 (Eastern Daylight Time)","373950","Untrustworthy,Trustworthy","","389","","","","decision","","<div class='trialDiv'><img src='trustrating_stim/white_mw071.bmp'><br><font class='baseline'><strong>Jordan</strong><p>Choose number of points to send.</font><div class='respPicDiv'><img src='img/responseButtonOffersNo0L.png' class='respPic'></div></div>","3","8","Jordan","0","Kept","0.8,0.2","10","0.8","trustrating_stim/white_mw071.bmp","2.5","124","22"
"html-keyboard-response","201","145307","0.0-19.0-2.21","60c837327440575481e333ce","bdp_trlrn","Tue Mar 14 2023 14:30:26 GMT-0400 (Eastern Daylight Time)","373950","Untrustworthy,Trustworthy","","null","","","","decisionFB","","<div class='trialDiv'><img src='trustrating_stim/white_mw071.bmp'><br><font class='baseline'><strong>Jordan</strong><p>Choose number of points to send.</font><div class='respPicDiv'><img src='img/responseButtonOffersNo0L3.png' class='respPic'></div></div>","null","8","Jordan","0","Kept","0.8,0.2","10","0.8","trustrating_stim/white_mw071.bmp","2.5","121","22"
"html-keyboard-response","202","146315","0.0-19.0-3.21","60c837327440575481e333ce","bdp_trlrn","Tue Mar 14 2023 14:30:26 GMT-0400 (Eastern Daylight Time)","373950","Untrustworthy,Trustworthy","","null","","","","feedback","","<div class='trialDiv'><img src='trustrating_stim/white_mw071.bmp'><br><font class='baseline'><strong>Jordan</strong><p>Received: <strong>12</strong></font> &nbsp; &nbsp; &nbsp; &nbsp; &nbsp; &nbsp;<font class='negOutcome'>Shared back: <strong>0</strong></font></font><div class='respPicDiv'><img src='img/responseButtonOffersNo0_wht.png' class='respPic'></div></div>","null","8","Jordan","0","Kept","0.8,0.2","10","0.8","trustrating_stim/white_mw071.bmp","2.5","121","22"
"html-keyboard-response","203","146678","0.0-19.0-1.22","60c837327440575481e333ce","bdp_trlrn","Tue Mar 14 2023 14:30:26 GMT-0400 (Eastern Daylight Time)","373950","Untrustworthy,Trustworthy","","360","","","","decision","","<div class='trialDiv'><img src='trustrating_stim/white_mw049.bmp'><br><font class='baseline'><strong>Michael</strong><p>Choose number of points to send.</font><div class='respPicDiv'><img src='img/responseButtonOffersNo0L.png' class='respPic'></div></div>","5","8","Michael","10","Kept","0.2,0.65","8","0.2","trustrating_stim/white_mw049.bmp","7.5","126","23"
"html-keyboard-response","204","146933","0.0-19.0-2.22","60c837327440575481e333ce","bdp_trlrn","Tue Mar 14 2023 14:30:26 GMT-0400 (Eastern Daylight Time)","373950","Untrustworthy,Trustworthy","","null","","","","decisionFB","","<div class='trialDiv'><img src='trustrating_stim/white_mw049.bmp'><br><font class='baseline'><strong>Michael</strong><p>Choose number of points to send.</font><div class='respPicDiv'><img src='img/responseButtonOffersNo0L5.png' class='respPic'></div></div>","null","8","Michael","10","Kept","0.2,0.65","8","0.2","trustrating_stim/white_mw049.bmp","7.5","121","23"
"html-keyboard-response","205","147940","0.0-19.0-3.22","60c837327440575481e333ce","bdp_trlrn","Tue Mar 14 2023 14:30:26 GMT-0400 (Eastern Daylight Time)","373950","Untrustworthy,Trustworthy","","null","","","","feedback","","<div class='trialDiv'><img src='trustrating_stim/white_mw049.bmp'><br><font class='baseline'><strong>Michael</strong><p>Received: <strong>20</strong></font> &nbsp; &nbsp; &nbsp; &nbsp; &nbsp; &nbsp;<font class='negOutcome'>Shared back: <strong>0</strong></font></font><div class='respPicDiv'><img src='img/responseButtonOffersNo0_wht.png' class='respPic'></div></div>","null","8","Michael","10","Kept","0.2,0.65","8","0.2","trustrating_stim/white_mw049.bmp","7.5","121","23"
"html-keyboard-response","206","148070","0.0-19.0-1.23","60c837327440575481e333ce","bdp_trlrn","Tue Mar 14 2023 14:30:26 GMT-0400 (Eastern Daylight Time)","373950","Untrustworthy,Trustworthy","","127","","","","decision","","<div class='trialDiv'><img src='trustrating_stim/white_mw099.bmp'><br><font class='baseline'><strong>Nathan</strong><p>Choose number of points to send.</font><div class='respPicDiv'><img src='img/responseButtonOffersNo0L.png' class='respPic'></div></div>","5","8","Nathan","6","Kept","0.8,0.35","8","0.8","trustrating_stim/white_mw099.bmp","4.5","126","24"
"html-keyboard-response","207","148329","0.0-19.0-2.23","60c837327440575481e333ce","bdp_trlrn","Tue Mar 14 2023 14:30:26 GMT-0400 (Eastern Daylight Time)","373950","Untrustworthy,Trustworthy","","null","","","","decisionFB","","<div class='trialDiv'><img src='trustrating_stim/white_mw099.bmp'><br><font class='baseline'><strong>Nathan</strong><p>Choose number of points to send.</font><div class='respPicDiv'><img src='img/responseButtonOffersNo0L5.png' class='respPic'></div></div>","null","8","Nathan","6","Kept","0.8,0.35","8","0.8","trustrating_stim/white_mw099.bmp","4.5","121","24"
"html-keyboard-response","208","149333","0.0-19.0-3.23","60c837327440575481e333ce","bdp_trlrn","Tue Mar 14 2023 14:30:26 GMT-0400 (Eastern Daylight Time)","373950","Untrustworthy,Trustworthy","","null","","","","feedback","","<div class='trialDiv'><img src='trustrating_stim/white_mw099.bmp'><br><font class='baseline'><strong>Nathan</strong><p>Received: <strong>20</strong></font> &nbsp; &nbsp; &nbsp; &nbsp; &nbsp; &nbsp;<font class='negOutcome'>Shared back: <strong>0</strong></font></font><div class='respPicDiv'><img src='img/responseButtonOffersNo0_wht.png' class='respPic'></div></div>","null","8","Nathan","6","Kept","0.8,0.35","8","0.8","trustrating_stim/white_mw099.bmp","4.5","121","24"
"html-keyboard-response","209","149828","0.0-19.0-1.24","60c837327440575481e333ce","bdp_trlrn","Tue Mar 14 2023 14:30:26 GMT-0400 (Eastern Daylight Time)","373950","Untrustworthy,Trustworthy","","492","","","","decision","","<div class='trialDiv'><img src='trustrating_stim/white_mw071.bmp'><br><font class='baseline'><strong>Jordan</strong><p>Choose number of points to send.</font><div class='respPicDiv'><img src='img/responseButtonOffersNo0L.png' class='respPic'></div></div>","5","9","Jordan","0","Shared","0.8,0.2","10","0.8","trustrating_stim/white_mw071.bmp","2.5","126","25"
"html-keyboard-response","210","150091","0.0-19.0-2.24","60c837327440575481e333ce","bdp_trlrn","Tue Mar 14 2023 14:30:26 GMT-0400 (Eastern Daylight Time)","373950","Untrustworthy,Trustworthy","","null","","","","decisionFB","","<div class='trialDiv'><img src='trustrating_stim/white_mw071.bmp'><br><font class='baseline'><strong>Jordan</strong><p>Choose number of points to send.</font><div class='respPicDiv'><img src='img/responseButtonOffersNo0L5.png' class='respPic'></div></div>","null","9","Jordan","0","Shared","0.8,0.2","10","0.8","trustrating_stim/white_mw071.bmp","2.5","121","25"
"html-keyboard-response","211","151101","0.0-19.0-3.24","60c837327440575481e333ce","bdp_trlrn","Tue Mar 14 2023 14:30:26 GMT-0400 (Eastern Daylight Time)","373950","Untrustworthy,Trustworthy","","null","","","","feedback","","<div class='trialDiv'><img src='trustrating_stim/white_mw071.bmp'><br><font class='baseline'><strong>Jordan</strong><p>Received: <strong>20</strong></font> &nbsp; &nbsp; &nbsp; &nbsp; &nbsp; &nbsp;<font class='posOutcome'>Shared back: <strong>10</strong></font></font><div class='respPicDiv'><img src='img/responseButtonOffersNo0_wht.png' class='respPic'></div></div>","null","9","Jordan","0","Shared","0.8,0.2","10","0.8","trustrating_stim/white_mw071.bmp","2.5","131","25"
"html-keyboard-response","212","151208","0.0-19.0-1.25","60c837327440575481e333ce","bdp_trlrn","Tue Mar 14 2023 14:30:26 GMT-0400 (Eastern Daylight Time)","373950","Untrustworthy,Trustworthy","","106","","","","decision","","<div class='trialDiv'><img src='trustrating_stim/white_mw099.bmp'><br><font class='baseline'><strong>Nathan</strong><p>Choose number of points to send.</font><div class='respPicDiv'><img src='img/responseButtonOffersNo0L.png' class='respPic'></div></div>","1","9","Nathan","6","Kept","0.8,0.35","8","0.8","trustrating_stim/white_mw099.bmp","4.5","136","26"
"html-keyboard-response","213","151472","0.0-19.0-2.25","60c837327440575481e333ce","bdp_trlrn","Tue Mar 14 2023 14:30:26 GMT-0400 (Eastern Daylight Time)","373950","Untrustworthy,Trustworthy","","null","","","","decisionFB","","<div class='trialDiv'><img src='trustrating_stim/white_mw099.bmp'><br><font class='baseline'><strong>Nathan</strong><p>Choose number of points to send.</font><div class='respPicDiv'><img src='img/responseButtonOffersNo0L1.png' class='respPic'></div></div>","null","9","Nathan","6","Kept","0.8,0.35","8","0.8","trustrating_stim/white_mw099.bmp","4.5","135","26"
"html-keyboard-response","214","152474","0.0-19.0-3.25","60c837327440575481e333ce","bdp_trlrn","Tue Mar 14 2023 14:30:26 GMT-0400 (Eastern Daylight Time)","373950","Untrustworthy,Trustworthy","","null","","","","feedback","","<div class='trialDiv'><img src='trustrating_stim/white_mw099.bmp'><br><font class='baseline'><strong>Nathan</strong><p>Received: <strong>4</strong></font> &nbsp; &nbsp; &nbsp; &nbsp; &nbsp; &nbsp;<font class='negOutcome'>Shared back: <strong>0</strong></font></font><div class='respPicDiv'><img src='img/responseButtonOffersNo0_wht.png' class='respPic'></div></div>","null","9","Nathan","6","Kept","0.8,0.35","8","0.8","trustrating_stim/white_mw099.bmp","4.5","135","26"
"html-keyboard-response","215","152720","0.0-19.0-1.26","60c837327440575481e333ce","bdp_trlrn","Tue Mar 14 2023 14:30:26 GMT-0400 (Eastern Daylight Time)","373950","Untrustworthy,Trustworthy","","245","","","","decision","","<div class='trialDiv'><img src='trustrating_stim/white_mw049.bmp'><br><font class='baseline'><strong>Michael</strong><p>Choose number of points to send.</font><div class='respPicDiv'><img src='img/responseButtonOffersNo0L.png' class='respPic'></div></div>","2","9","Michael","10","Shared","0.2,0.65","8","0.2","trustrating_stim/white_mw049.bmp","7.5","140","27"
"html-keyboard-response","216","152980","0.0-19.0-2.26","60c837327440575481e333ce","bdp_trlrn","Tue Mar 14 2023 14:30:26 GMT-0400 (Eastern Daylight Time)","373950","Untrustworthy,Trustworthy","","null","","","","decisionFB","","<div class='trialDiv'><img src='trustrating_stim/white_mw049.bmp'><br><font class='baseline'><strong>Michael</strong><p>Choose number of points to send.</font><div class='respPicDiv'><img src='img/responseButtonOffersNo0L2.png' class='respPic'></div></div>","null","9","Michael","10","Shared","0.2,0.65","8","0.2","trustrating_stim/white_mw049.bmp","7.5","138","27"
"html-keyboard-response","217","153993","0.0-19.0-3.26","60c837327440575481e333ce","bdp_trlrn","Tue Mar 14 2023 14:30:26 GMT-0400 (Eastern Daylight Time)","373950","Untrustworthy,Trustworthy","","null","","","","feedback","","<div class='trialDiv'><img src='trustrating_stim/white_mw049.bmp'><br><font class='baseline'><strong>Michael</strong><p>Received: <strong>8</strong></font> &nbsp; &nbsp; &nbsp; &nbsp; &nbsp; &nbsp;<font class='posOutcome'>Shared back: <strong>4</strong></font></font><div class='respPicDiv'><img src='img/responseButtonOffersNo0_wht.png' class='respPic'></div></div>","null","9","Michael","10","Shared","0.2,0.65","8","0.2","trustrating_stim/white_mw049.bmp","7.5","142","27"
"html-keyboard-response","218","155382","0.0-19.0-1.27","60c837327440575481e333ce","bdp_trlrn","Tue Mar 14 2023 14:30:26 GMT-0400 (Eastern Daylight Time)","373950","Untrustworthy,Trustworthy","","1387","","","","decision","","<div class='trialDiv'><img src='trustrating_stim/white_mw099.bmp'><br><font class='baseline'><strong>Nathan</strong><p>Choose number of points to send.</font><div class='respPicDiv'><img src='img/responseButtonOffersNo0L.png' class='respPic'></div></div>","5","10","Nathan","6","Kept","0.8,0.35","8","0.8","trustrating_stim/white_mw099.bmp","4.5","147","28"
"html-keyboard-response","219","155649","0.0-19.0-2.27","60c837327440575481e333ce","bdp_trlrn","Tue Mar 14 2023 14:30:26 GMT-0400 (Eastern Daylight Time)","373950","Untrustworthy,Trustworthy","","null","","","","decisionFB","","<div class='trialDiv'><img src='trustrating_stim/white_mw099.bmp'><br><font class='baseline'><strong>Nathan</strong><p>Choose number of points to send.</font><div class='respPicDiv'><img src='img/responseButtonOffersNo0L5.png' class='respPic'></div></div>","null","10","Nathan","6","Kept","0.8,0.35","8","0.8","trustrating_stim/white_mw099.bmp","4.5","142","28"
"html-keyboard-response","220","156659","0.0-19.0-3.27","60c837327440575481e333ce","bdp_trlrn","Tue Mar 14 2023 14:30:26 GMT-0400 (Eastern Daylight Time)","373950","Untrustworthy,Trustworthy","","null","","","","feedback","","<div class='trialDiv'><img src='trustrating_stim/white_mw099.bmp'><br><font class='baseline'><strong>Nathan</strong><p>Received: <strong>20</strong></font> &nbsp; &nbsp; &nbsp; &nbsp; &nbsp; &nbsp;<font class='negOutcome'>Shared back: <strong>0</strong></font></font><div class='respPicDiv'><img src='img/responseButtonOffersNo0_wht.png' class='respPic'></div></div>","null","10","Nathan","6","Kept","0.8,0.35","8","0.8","trustrating_stim/white_mw099.bmp","4.5","142","28"
"html-keyboard-response","221","156903","0.0-19.0-1.28","60c837327440575481e333ce","bdp_trlrn","Tue Mar 14 2023 14:30:26 GMT-0400 (Eastern Daylight Time)","373950","Untrustworthy,Trustworthy","","243","","","","decision","","<div class='trialDiv'><img src='trustrating_stim/white_mw049.bmp'><br><font class='baseline'><strong>Michael</strong><p>Choose number of points to send.</font><div class='respPicDiv'><img src='img/responseButtonOffersNo0L.png' class='respPic'></div></div>","2","10","Michael","10","Shared","0.2,0.65","8","0.2","trustrating_stim/white_mw049.bmp","7.5","147","29"
"html-keyboard-response","222","157158","0.0-19.0-2.28","60c837327440575481e333ce","bdp_trlrn","Tue Mar 14 2023 14:30:26 GMT-0400 (Eastern Daylight Time)","373950","Untrustworthy,Trustworthy","","null","","","","decisionFB","","<div class='trialDiv'><img src='trustrating_stim/white_mw049.bmp'><br><font class='baseline'><strong>Michael</strong><p>Choose number of points to send.</font><div class='respPicDiv'><img src='img/responseButtonOffersNo0L2.png' class='respPic'></div></div>","null","10","Michael","10","Shared","0.2,0.65","8","0.2","trustrating_stim/white_mw049.bmp","7.5","145","29"
