"event","trial","time","trialtype","subject_id","task","startTime","totalTime","labels","trial_type","trial_index","time_elapsed","internal_node_id","view_history","rt","success","stimulus","key_press","aground","name","faceID","outcome","agenttype","agentswpt","agentcurrpshare","face","avgRating","point_total","round"
"focus","0","0","focusevent","5bbc4bd1f83ac60001fe665e","bdp_trlrn","Mon Mar 13 2023 11:39:51 GMT-0700 (Pacific Daylight Time)","686704","Trustworthy,Untrustworthy","","","","","","","","","","","","","","","","","","","",""
"","","","","5bbc4bd1f83ac60001fe665e","bdp_trlrn","Mon Mar 13 2023 11:39:51 GMT-0700 (Pacific Daylight Time)","686704","Trustworthy,Untrustworthy","pavlovia","0","22","0.0-0.0","","","","","","","","","","","","","","","",""
"","","","","5bbc4bd1f83ac60001fe665e","bdp_trlrn","Mon Mar 13 2023 11:39:51 GMT-0700 (Pacific Daylight Time)","686704","Trustworthy,Untrustworthy","instructions","1","7311","0.0-1.0","[{""page_index"":0,""viewing_time"":7287}]","7287","","","","","","","","","","","","","",""
"fullscreenexit","2","11519","fullscreenexit","5bbc4bd1f83ac60001fe665e","bdp_trlrn","Mon Mar 13 2023 11:39:51 GMT-0700 (Pacific Daylight Time)","686704","Trustworthy,Untrustworthy","","","","","","","","","","","","","","","","","","","",""
"","","","","5bbc4bd1f83ac60001fe665e","bdp_trlrn","Mon Mar 13 2023 11:39:51 GMT-0700 (Pacific Daylight Time)","686704","Trustworthy,Untrustworthy","fullscreen","2","12104","0.0-2.0","","","true","","","","","","","","","","","","",""
"","","","fullscreenfail","5bbc4bd1f83ac60001fe665e","bdp_trlrn","Mon Mar 13 2023 11:39:51 GMT-0700 (Pacific Daylight Time)","686704","Trustworthy,Untrustworthy","image-keyboard-response","3","19426","0.0-3.0-0.0","","7317","","","32","","","","","","","","","","",""
"","","","","5bbc4bd1f83ac60001fe665e","bdp_trlrn","Mon Mar 13 2023 11:39:51 GMT-0700 (Pacific Daylight Time)","686704","Trustworthy,Untrustworthy","instructions","4","55015","0.0-4.0","[{""page_index"":0,""viewing_time"":16577},{""page_index"":1,""viewing_time"":18752}]","35329","","","","","","","","","","","","","",""
"","","","","5bbc4bd1f83ac60001fe665e","bdp_trlrn","Mon Mar 13 2023 11:39:51 GMT-0700 (Pacific Daylight Time)","686704","Trustworthy,Untrustworthy","instructions","5","57152","0.0-5.0","[{""page_index"":0,""viewing_time"":2136}]","2136","","","","","","","","","","","","","",""
"","","","rating","5bbc4bd1f83ac60001fe665e","bdp_trlrn","Mon Mar 13 2023 11:39:51 GMT-0700 (Pacific Daylight Time)","686704","Trustworthy,Untrustworthy","image-keyboard-response","6","61901","0.0-6.0-1.0","","4639","","trustrating_stim/white_00577_940928_fa_edt.bmp","4","","","","","","","","","","",""
"","","","ratingFB","5bbc4bd1f83ac60001fe665e","bdp_trlrn","Mon Mar 13 2023 11:39:51 GMT-0700 (Pacific Daylight Time)","686704","Trustworthy,Untrustworthy","image-keyboard-response","7","62110","0.0-6.0-2.0","","null","","trustrating_stim/white_00577_940928_fa_edt.bmp","null","","","","","","","","","","",""
"","","","rating","5bbc4bd1f83ac60001fe665e","bdp_trlrn","Mon Mar 13 2023 11:39:51 GMT-0700 (Pacific Daylight Time)","686704","Trustworthy,Untrustworthy","image-keyboard-response","8","64371","0.0-6.0-1.1","","2151","","trustrating_stim/white_00340_940422_fa_edt.bmp","5","","","","","","","","","","",""
"","","","ratingFB","5bbc4bd1f83ac60001fe665e","bdp_trlrn","Mon Mar 13 2023 11:39:51 GMT-0700 (Pacific Daylight Time)","686704","Trustworthy,Untrustworthy","image-keyboard-response","9","64581","0.0-6.0-2.1","","null","","trustrating_stim/white_00340_940422_fa_edt.bmp","null","","","","","","","","","","",""
"","","","rating","5bbc4bd1f83ac60001fe665e","bdp_trlrn","Mon Mar 13 2023 11:39:51 GMT-0700 (Pacific Daylight Time)","686704","Trustworthy,Untrustworthy","image-keyboard-response","10","67052","0.0-6.0-1.2","","2361","","trustrating_stim/white_00519_940519_fb_edt.bmp","5","","","","","","","","","","",""
"","","","ratingFB","5bbc4bd1f83ac60001fe665e","bdp_trlrn","Mon Mar 13 2023 11:39:51 GMT-0700 (Pacific Daylight Time)","686704","Trustworthy,Untrustworthy","image-keyboard-response","11","67259","0.0-6.0-2.2","","null","","trustrating_stim/white_00519_940519_fb_edt.bmp","null","","","","","","","","","","",""
"","","","rating","5bbc4bd1f83ac60001fe665e","bdp_trlrn","Mon Mar 13 2023 11:39:51 GMT-0700 (Pacific Daylight Time)","686704","Trustworthy,Untrustworthy","image-keyboard-response","12","70112","0.0-6.0-1.3","","2742","","trustrating_stim/white_mw063.bmp","5","","","","","","","","","","",""
"","","","ratingFB","5bbc4bd1f83ac60001fe665e","bdp_trlrn","Mon Mar 13 2023 11:39:51 GMT-0700 (Pacific Daylight Time)","686704","Trustworthy,Untrustworthy","image-keyboard-response","13","70316","0.0-6.0-2.3","","null","","trustrating_stim/white_mw063.bmp","null","","","","","","","","","","",""
"","","","rating","5bbc4bd1f83ac60001fe665e","bdp_trlrn","Mon Mar 13 2023 11:39:51 GMT-0700 (Pacific Daylight Time)","686704","Trustworthy,Untrustworthy","image-keyboard-response","14","72331","0.0-6.0-1.4","","1903","","trustrating_stim/white_00807_941205_fb_edt.bmp","5","","","","","","","","","","",""
"","","","ratingFB","5bbc4bd1f83ac60001fe665e","bdp_trlrn","Mon Mar 13 2023 11:39:51 GMT-0700 (Pacific Daylight Time)","686704","Trustworthy,Untrustworthy","image-keyboard-response","15","72544","0.0-6.0-2.4","","null","","trustrating_stim/white_00807_941205_fb_edt.bmp","null","","","","","","","","","","",""
"","","","rating","5bbc4bd1f83ac60001fe665e","bdp_trlrn","Mon Mar 13 2023 11:39:51 GMT-0700 (Pacific Daylight Time)","686704","Trustworthy,Untrustworthy","image-keyboard-response","16","75167","0.0-6.0-1.5","","2513","","trustrating_stim/white_mw097.bmp","5","","","","","","","","","","",""
"","","","ratingFB","5bbc4bd1f83ac60001fe665e","bdp_trlrn","Mon Mar 13 2023 11:39:51 GMT-0700 (Pacific Daylight Time)","686704","Trustworthy,Untrustworthy","image-keyboard-response","17","75383","0.0-6.0-2.5","","null","","trustrating_stim/white_mw097.bmp","null","","","","","","","","","","",""
"","","","rating","5bbc4bd1f83ac60001fe665e","bdp_trlrn","Mon Mar 13 2023 11:39:51 GMT-0700 (Pacific Daylight Time)","686704","Trustworthy,Untrustworthy","image-keyboard-response","18","77317","0.0-6.0-1.6","","1822","","trustrating_stim/white_mw071.bmp","5","","","","","","","","","","",""
"","","","ratingFB","5bbc4bd1f83ac60001fe665e","bdp_trlrn","Mon Mar 13 2023 11:39:51 GMT-0700 (Pacific Daylight Time)","686704","Trustworthy,Untrustworthy","image-keyboard-response","19","77530","0.0-6.0-2.6","","null","","trustrating_stim/white_mw071.bmp","null","","","","","","","","","","",""
"","","","rating","5bbc4bd1f83ac60001fe665e","bdp_trlrn","Mon Mar 13 2023 11:39:51 GMT-0700 (Pacific Daylight Time)","686704","Trustworthy,Untrustworthy","image-keyboard-response","20","81261","0.0-6.0-1.7","","3621","","trustrating_stim/white_mw066.bmp","4","","","","","","","","","","",""
"","","","ratingFB","5bbc4bd1f83ac60001fe665e","bdp_trlrn","Mon Mar 13 2023 11:39:51 GMT-0700 (Pacific Daylight Time)","686704","Trustworthy,Untrustworthy","image-keyboard-response","21","81475","0.0-6.0-2.7","","null","","trustrating_stim/white_mw066.bmp","null","","","","","","","","","","",""
"","","","rating","5bbc4bd1f83ac60001fe665e","bdp_trlrn","Mon Mar 13 2023 11:39:51 GMT-0700 (Pacific Daylight Time)","686704","Trustworthy,Untrustworthy","image-keyboard-response","22","85412","0.0-6.0-1.8","","3826","","trustrating_stim/white_00120_931230_fa_edt.bmp","5","","","","","","","","","","",""
"","","","ratingFB","5bbc4bd1f83ac60001fe665e","bdp_trlrn","Mon Mar 13 2023 11:39:51 GMT-0700 (Pacific Daylight Time)","686704","Trustworthy,Untrustworthy","image-keyboard-response","23","85616","0.0-6.0-2.8","","null","","trustrating_stim/white_00120_931230_fa_edt.bmp","null","","","","","","","","","","",""
"","","","rating","5bbc4bd1f83ac60001fe665e","bdp_trlrn","Mon Mar 13 2023 11:39:51 GMT-0700 (Pacific Daylight Time)","686704","Trustworthy,Untrustworthy","image-keyboard-response","24","87634","0.0-6.0-1.9","","1907","","trustrating_stim/white_00223_940128_fb_edt.bmp","4","","","","","","","","","","",""
"","","","ratingFB","5bbc4bd1f83ac60001fe665e","bdp_trlrn","Mon Mar 13 2023 11:39:51 GMT-0700 (Pacific Daylight Time)","686704","Trustworthy,Untrustworthy","image-keyboard-response","25","87843","0.0-6.0-2.9","","null","","trustrating_stim/white_00223_940128_fb_edt.bmp","null","","","","","","","","","","",""
"","","","rating","5bbc4bd1f83ac60001fe665e","bdp_trlrn","Mon Mar 13 2023 11:39:51 GMT-0700 (Pacific Daylight Time)","686704","Trustworthy,Untrustworthy","image-keyboard-response","26","90573","0.0-6.0-1.10","","2617","","trustrating_stim/white_mw084.bmp","4","","","","","","","","","","",""
"","","","ratingFB","5bbc4bd1f83ac60001fe665e","bdp_trlrn","Mon Mar 13 2023 11:39:51 GMT-0700 (Pacific Daylight Time)","686704","Trustworthy,Untrustworthy","image-keyboard-response","27","90774","0.0-6.0-2.10","","null","","trustrating_stim/white_mw084.bmp","null","","","","","","","","","","",""
"","","","rating","5bbc4bd1f83ac60001fe665e","bdp_trlrn","Mon Mar 13 2023 11:39:51 GMT-0700 (Pacific Daylight Time)","686704","Trustworthy,Untrustworthy","image-keyboard-response","28","92884","0.0-6.0-1.11","","1997","","trustrating_stim/white_mw089.bmp","4","","","","","","","","","","",""
"","","","ratingFB","5bbc4bd1f83ac60001fe665e","bdp_trlrn","Mon Mar 13 2023 11:39:51 GMT-0700 (Pacific Daylight Time)","686704","Trustworthy,Untrustworthy","image-keyboard-response","29","93094","0.0-6.0-2.11","","null","","trustrating_stim/white_mw089.bmp","null","","","","","","","","","","",""
"","","","rating","5bbc4bd1f83ac60001fe665e","bdp_trlrn","Mon Mar 13 2023 11:39:51 GMT-0700 (Pacific Daylight Time)","686704","Trustworthy,Untrustworthy","image-keyboard-response","30","95560","0.0-6.0-1.12","","2357","","trustrating_stim/white_00659_941121_fa_edt.bmp","4","","","","","","","","","","",""
"","","","ratingFB","5bbc4bd1f83ac60001fe665e","bdp_trlrn","Mon Mar 13 2023 11:39:51 GMT-0700 (Pacific Daylight Time)","686704","Trustworthy,Untrustworthy","image-keyboard-response","31","95772","0.0-6.0-2.12","","null","","trustrating_stim/white_00659_941121_fa_edt.bmp","null","","","","","","","","","","",""
"","","","rating","5bbc4bd1f83ac60001fe665e","bdp_trlrn","Mon Mar 13 2023 11:39:51 GMT-0700 (Pacific Daylight Time)","686704","Trustworthy,Untrustworthy","image-keyboard-response","32","97183","0.0-6.0-1.13","","1299","","trustrating_stim/white_mw049.bmp","5","","","","","","","","","","",""
"","","","ratingFB","5bbc4bd1f83ac60001fe665e","bdp_trlrn","Mon Mar 13 2023 11:39:51 GMT-0700 (Pacific Daylight Time)","686704","Trustworthy,Untrustworthy","image-keyboard-response","33","97399","0.0-6.0-2.13","","null","","trustrating_stim/white_mw049.bmp","null","","","","","","","","","","",""
"","","","rating","5bbc4bd1f83ac60001fe665e","bdp_trlrn","Mon Mar 13 2023 11:39:51 GMT-0700 (Pacific Daylight Time)","686704","Trustworthy,Untrustworthy","image-keyboard-response","34","98924","0.0-6.0-1.14","","1416","","trustrating_stim/white_00109_931230_fa_edt.bmp","5","","","","","","","","","","",""
"","","","ratingFB","5bbc4bd1f83ac60001fe665e","bdp_trlrn","Mon Mar 13 2023 11:39:51 GMT-0700 (Pacific Daylight Time)","686704","Trustworthy,Untrustworthy","image-keyboard-response","35","99134","0.0-6.0-2.14","","null","","trustrating_stim/white_00109_931230_fa_edt.bmp","null","","","","","","","","","","",""
"","","","rating","5bbc4bd1f83ac60001fe665e","bdp_trlrn","Mon Mar 13 2023 11:39:51 GMT-0700 (Pacific Daylight Time)","686704","Trustworthy,Untrustworthy","image-keyboard-response","36","101900","0.0-6.0-1.15","","2654","","trustrating_stim/white_mw033.bmp","5","","","","","","","","","","",""
"","","","ratingFB","5bbc4bd1f83ac60001fe665e","bdp_trlrn","Mon Mar 13 2023 11:39:51 GMT-0700 (Pacific Daylight Time)","686704","Trustworthy,Untrustworthy","image-keyboard-response","37","102101","0.0-6.0-2.15","","null","","trustrating_stim/white_mw033.bmp","null","","","","","","","","","","",""
"","","","rating","5bbc4bd1f83ac60001fe665e","bdp_trlrn","Mon Mar 13 2023 11:39:51 GMT-0700 (Pacific Daylight Time)","686704","Trustworthy,Untrustworthy","image-keyboard-response","38","103883","0.0-6.0-1.16","","1671","","trustrating_stim/white_mw099.bmp","5","","","","","","","","","","",""
"","","","ratingFB","5bbc4bd1f83ac60001fe665e","bdp_trlrn","Mon Mar 13 2023 11:39:51 GMT-0700 (Pacific Daylight Time)","686704","Trustworthy,Untrustworthy","image-keyboard-response","39","104085","0.0-6.0-2.16","","null","","trustrating_stim/white_mw099.bmp","null","","","","","","","","","","",""
"","","","rating","5bbc4bd1f83ac60001fe665e","bdp_trlrn","Mon Mar 13 2023 11:39:51 GMT-0700 (Pacific Daylight Time)","686704","Trustworthy,Untrustworthy","image-keyboard-response","40","105702","0.0-6.0-1.17","","1508","","trustrating_stim/white_00898_960530_fa_edt.bmp","5","","","","","","","","","","",""
"","","","ratingFB","5bbc4bd1f83ac60001fe665e","bdp_trlrn","Mon Mar 13 2023 11:39:51 GMT-0700 (Pacific Daylight Time)","686704","Trustworthy,Untrustworthy","image-keyboard-response","41","105914","0.0-6.0-2.17","","null","","trustrating_stim/white_00898_960530_fa_edt.bmp","null","","","","","","","","","","",""
"","","","rating","5bbc4bd1f83ac60001fe665e","bdp_trlrn","Mon Mar 13 2023 11:39:51 GMT-0700 (Pacific Daylight Time)","686704","Trustworthy,Untrustworthy","image-keyboard-response","42","107415","0.0-6.0-1.18","","1391","","trustrating_stim/white_mw048.bmp","5","","","","","","","","","","",""
"","","","ratingFB","5bbc4bd1f83ac60001fe665e","bdp_trlrn","Mon Mar 13 2023 11:39:51 GMT-0700 (Pacific Daylight Time)","686704","Trustworthy,Untrustworthy","image-keyboard-response","43","107619","0.0-6.0-2.18","","null","","trustrating_stim/white_mw048.bmp","null","","","","","","","","","","",""
"","","","rating","5bbc4bd1f83ac60001fe665e","bdp_trlrn","Mon Mar 13 2023 11:39:51 GMT-0700 (Pacific Daylight Time)","686704","Trustworthy,Untrustworthy","image-keyboard-response","44","109234","0.0-6.0-1.19","","1504","","trustrating_stim/white_mw056.bmp","5","","","","","","","","","","",""
"","","","ratingFB","5bbc4bd1f83ac60001fe665e","bdp_trlrn","Mon Mar 13 2023 11:39:51 GMT-0700 (Pacific Daylight Time)","686704","Trustworthy,Untrustworthy","image-keyboard-response","45","109436","0.0-6.0-2.19","","null","","trustrating_stim/white_mw056.bmp","null","","","","","","","","","","",""
"","","","rating","5bbc4bd1f83ac60001fe665e","bdp_trlrn","Mon Mar 13 2023 11:39:51 GMT-0700 (Pacific Daylight Time)","686704","Trustworthy,Untrustworthy","image-keyboard-response","46","110852","0.0-6.0-1.20","","1306","","trustrating_stim/white_00602_940928_fb_edt.bmp","5","","","","","","","","","","",""
"","","","ratingFB","5bbc4bd1f83ac60001fe665e","bdp_trlrn","Mon Mar 13 2023 11:39:51 GMT-0700 (Pacific Daylight Time)","686704","Trustworthy,Untrustworthy","image-keyboard-response","47","111063","0.0-6.0-2.20","","null","","trustrating_stim/white_00602_940928_fb_edt.bmp","null","","","","","","","","","","",""
"","","","rating","5bbc4bd1f83ac60001fe665e","bdp_trlrn","Mon Mar 13 2023 11:39:51 GMT-0700 (Pacific Daylight Time)","686704","Trustworthy,Untrustworthy","image-keyboard-response","48","112576","0.0-6.0-1.21","","1401","","trustrating_stim/white_mw060.bmp","5","","","","","","","","","","",""
"","","","ratingFB","5bbc4bd1f83ac60001fe665e","bdp_trlrn","Mon Mar 13 2023 11:39:51 GMT-0700 (Pacific Daylight Time)","686704","Trustworthy,Untrustworthy","image-keyboard-response","49","112791","0.0-6.0-2.21","","null","","trustrating_stim/white_mw060.bmp","null","","","","","","","","","","",""
"","","","rating","5bbc4bd1f83ac60001fe665e","bdp_trlrn","Mon Mar 13 2023 11:39:51 GMT-0700 (Pacific Daylight Time)","686704","Trustworthy,Untrustworthy","image-keyboard-response","50","114314","0.0-6.0-1.22","","1414","","trustrating_stim/white_00299_940422_fa_edt.bmp","5","","","","","","","","","","",""
"","","","ratingFB","5bbc4bd1f83ac60001fe665e","bdp_trlrn","Mon Mar 13 2023 11:39:51 GMT-0700 (Pacific Daylight Time)","686704","Trustworthy,Untrustworthy","image-keyboard-response","51","114527","0.0-6.0-2.22","","null","","trustrating_stim/white_00299_940422_fa_edt.bmp","null","","","","","","","","","","",""
"","","","rating","5bbc4bd1f83ac60001fe665e","bdp_trlrn","Mon Mar 13 2023 11:39:51 GMT-0700 (Pacific Daylight Time)","686704","Trustworthy,Untrustworthy","image-keyboard-response","52","117302","0.0-6.0-1.23","","2665","","trustrating_stim/white_00757_941201_fa_edt.bmp","5","","","","","","","","","","",""
"","","","ratingFB","5bbc4bd1f83ac60001fe665e","bdp_trlrn","Mon Mar 13 2023 11:39:51 GMT-0700 (Pacific Daylight Time)","686704","Trustworthy,Untrustworthy","image-keyboard-response","53","117510","0.0-6.0-2.23","","null","","trustrating_stim/white_00757_941201_fa_edt.bmp","null","","","","","","","","","","",""
"","","","rating","5bbc4bd1f83ac60001fe665e","bdp_trlrn","Mon Mar 13 2023 11:39:51 GMT-0700 (Pacific Daylight Time)","686704","Trustworthy,Untrustworthy","image-keyboard-response","54","119964","0.0-6.0-1.24","","2343","","trustrating_stim/white_00761_941201_fb_edt.bmp","5","","","","","","","","","","",""
"","","","ratingFB","5bbc4bd1f83ac60001fe665e","bdp_trlrn","Mon Mar 13 2023 11:39:51 GMT-0700 (Pacific Daylight Time)","686704","Trustworthy,Untrustworthy","image-keyboard-response","55","120175","0.0-6.0-2.24","","null","","trustrating_stim/white_00761_941201_fb_edt.bmp","null","","","","","","","","","","",""
"","","","rating","5bbc4bd1f83ac60001fe665e","bdp_trlrn","Mon Mar 13 2023 11:39:51 GMT-0700 (Pacific Daylight Time)","686704","Trustworthy,Untrustworthy","image-keyboard-response","56","121842","0.0-6.0-1.25","","1557","","trustrating_stim/white_mw046.bmp","4","","","","","","","","","","",""
"","","","ratingFB","5bbc4bd1f83ac60001fe665e","bdp_trlrn","Mon Mar 13 2023 11:39:51 GMT-0700 (Pacific Daylight Time)","686704","Trustworthy,Untrustworthy","image-keyboard-response","57","122050","0.0-6.0-2.25","","null","","trustrating_stim/white_mw046.bmp","null","","","","","","","","","","",""
"","","","rating","5bbc4bd1f83ac60001fe665e","bdp_trlrn","Mon Mar 13 2023 11:39:51 GMT-0700 (Pacific Daylight Time)","686704","Trustworthy,Untrustworthy","image-keyboard-response","58","124063","0.0-6.0-1.26","","1900","","trustrating_stim/white_mw035.bmp","5","","","","","","","","","","",""
"","","","ratingFB","5bbc4bd1f83ac60001fe665e","bdp_trlrn","Mon Mar 13 2023 11:39:51 GMT-0700 (Pacific Daylight Time)","686704","Trustworthy,Untrustworthy","image-keyboard-response","59","124278","0.0-6.0-2.26","","null","","trustrating_stim/white_mw035.bmp","null","","","","","","","","","","",""
"","","","rating","5bbc4bd1f83ac60001fe665e","bdp_trlrn","Mon Mar 13 2023 11:39:51 GMT-0700 (Pacific Daylight Time)","686704","Trustworthy,Untrustworthy","image-keyboard-response","60","125552","0.0-6.0-1.27","","1163","","trustrating_stim/white_00129_931230_fb_edt.bmp","5","","","","","","","","","","",""
"","","","ratingFB","5bbc4bd1f83ac60001fe665e","bdp_trlrn","Mon Mar 13 2023 11:39:51 GMT-0700 (Pacific Daylight Time)","686704","Trustworthy,Untrustworthy","image-keyboard-response","61","125766","0.0-6.0-2.27","","null","","trustrating_stim/white_00129_931230_fb_edt.bmp","null","","","","","","","","","","",""
"","","","rating","5bbc4bd1f83ac60001fe665e","bdp_trlrn","Mon Mar 13 2023 11:39:51 GMT-0700 (Pacific Daylight Time)","686704","Trustworthy,Untrustworthy","image-keyboard-response","62","127093","0.0-6.0-1.28","","1218","","trustrating_stim/white_mw053.bmp","5","","","","","","","","","","",""
"","","","ratingFB","5bbc4bd1f83ac60001fe665e","bdp_trlrn","Mon Mar 13 2023 11:39:51 GMT-0700 (Pacific Daylight Time)","686704","Trustworthy,Untrustworthy","image-keyboard-response","63","127306","0.0-6.0-2.28","","null","","trustrating_stim/white_mw053.bmp","null","","","","","","","","","","",""
"","","","rating","5bbc4bd1f83ac60001fe665e","bdp_trlrn","Mon Mar 13 2023 11:39:51 GMT-0700 (Pacific Daylight Time)","686704","Trustworthy,Untrustworthy","image-keyboard-response","64","128634","0.0-6.0-1.29","","1218","","trustrating_stim/white_00785_941205_fb_edt.bmp","5","","","","","","","","","","",""
"","","","ratingFB","5bbc4bd1f83ac60001fe665e","bdp_trlrn","Mon Mar 13 2023 11:39:51 GMT-0700 (Pacific Daylight Time)","686704","Trustworthy,Untrustworthy","image-keyboard-response","65","128834","0.0-6.0-2.29","","null","","trustrating_stim/white_00785_941205_fb_edt.bmp","null","","","","","","","","","","",""
"","","","rating","5bbc4bd1f83ac60001fe665e","bdp_trlrn","Mon Mar 13 2023 11:39:51 GMT-0700 (Pacific Daylight Time)","686704","Trustworthy,Untrustworthy","image-keyboard-response","66","130336","0.0-6.0-1.30","","1391","","trustrating_stim/white_mw099.bmp","4","","","","","","","","","","",""
"","","","ratingFB","5bbc4bd1f83ac60001fe665e","bdp_trlrn","Mon Mar 13 2023 11:39:51 GMT-0700 (Pacific Daylight Time)","686704","Trustworthy,Untrustworthy","image-keyboard-response","67","130551","0.0-6.0-2.30","","null","","trustrating_stim/white_mw099.bmp","null","","","","","","","","","","",""
"","","","rating","5bbc4bd1f83ac60001fe665e","bdp_trlrn","Mon Mar 13 2023 11:39:51 GMT-0700 (Pacific Daylight Time)","686704","Trustworthy,Untrustworthy","image-keyboard-response","68","132282","0.0-6.0-1.31","","1622","","trustrating_stim/white_mw066.bmp","4","","","","","","","","","","",""
"","","","ratingFB","5bbc4bd1f83ac60001fe665e","bdp_trlrn","Mon Mar 13 2023 11:39:51 GMT-0700 (Pacific Daylight Time)","686704","Trustworthy,Untrustworthy","image-keyboard-response","69","132484","0.0-6.0-2.31","","null","","trustrating_stim/white_mw066.bmp","null","","","","","","","","","","",""
"","","","rating","5bbc4bd1f83ac60001fe665e","bdp_trlrn","Mon Mar 13 2023 11:39:51 GMT-0700 (Pacific Daylight Time)","686704","Trustworthy,Untrustworthy","image-keyboard-response","70","133604","0.0-6.0-1.32","","1009","","trustrating_stim/white_00602_940928_fb_edt.bmp","5","","","","","","","","","","",""
"","","","ratingFB","5bbc4bd1f83ac60001fe665e","bdp_trlrn","Mon Mar 13 2023 11:39:51 GMT-0700 (Pacific Daylight Time)","686704","Trustworthy,Untrustworthy","image-keyboard-response","71","133814","0.0-6.0-2.32","","null","","trustrating_stim/white_00602_940928_fb_edt.bmp","null","","","","","","","","","","",""
"","","","rating","5bbc4bd1f83ac60001fe665e","bdp_trlrn","Mon Mar 13 2023 11:39:51 GMT-0700 (Pacific Daylight Time)","686704","Trustworthy,Untrustworthy","image-keyboard-response","72","134872","0.0-6.0-1.33","","946","","trustrating_stim/white_00898_960530_fa_edt.bmp","5","","","","","","","","","","",""
"","","","ratingFB","5bbc4bd1f83ac60001fe665e","bdp_trlrn","Mon Mar 13 2023 11:39:51 GMT-0700 (Pacific Daylight Time)","686704","Trustworthy,Untrustworthy","image-keyboard-response","73","135075","0.0-6.0-2.33","","null","","trustrating_stim/white_00898_960530_fa_edt.bmp","null","","","","","","","","","","",""
"","","","rating","5bbc4bd1f83ac60001fe665e","bdp_trlrn","Mon Mar 13 2023 11:39:51 GMT-0700 (Pacific Daylight Time)","686704","Trustworthy,Untrustworthy","image-keyboard-response","74","137733","0.0-6.0-1.34","","2547","","trustrating_stim/white_mw089.bmp","4","","","","","","","","","","",""
"","","","ratingFB","5bbc4bd1f83ac60001fe665e","bdp_trlrn","Mon Mar 13 2023 11:39:51 GMT-0700 (Pacific Daylight Time)","686704","Trustworthy,Untrustworthy","image-keyboard-response","75","137936","0.0-6.0-2.34","","null","","trustrating_stim/white_mw089.bmp","null","","","","","","","","","","",""
"","","","rating","5bbc4bd1f83ac60001fe665e","bdp_trlrn","Mon Mar 13 2023 11:39:51 GMT-0700 (Pacific Daylight Time)","686704","Trustworthy,Untrustworthy","image-keyboard-response","76","139142","0.0-6.0-1.35","","1095","","trustrating_stim/white_mw035.bmp","5","","","","","","","","","","",""
"","","","ratingFB","5bbc4bd1f83ac60001fe665e","bdp_trlrn","Mon Mar 13 2023 11:39:51 GMT-0700 (Pacific Daylight Time)","686704","Trustworthy,Untrustworthy","image-keyboard-response","77","139353","0.0-6.0-2.35","","null","","trustrating_stim/white_mw035.bmp","null","","","","","","","","","","",""
"","","","rating","5bbc4bd1f83ac60001fe665e","bdp_trlrn","Mon Mar 13 2023 11:39:51 GMT-0700 (Pacific Daylight Time)","686704","Trustworthy,Untrustworthy","image-keyboard-response","78","140803","0.0-6.0-1.36","","1337","","trustrating_stim/white_mw071.bmp","4","","","","","","","","","","",""
"","","","ratingFB","5bbc4bd1f83ac60001fe665e","bdp_trlrn","Mon Mar 13 2023 11:39:51 GMT-0700 (Pacific Daylight Time)","686704","Trustworthy,Untrustworthy","image-keyboard-response","79","141018","0.0-6.0-2.36","","null","","trustrating_stim/white_mw071.bmp","null","","","","","","","","","","",""
"","","","rating","5bbc4bd1f83ac60001fe665e","bdp_trlrn","Mon Mar 13 2023 11:39:51 GMT-0700 (Pacific Daylight Time)","686704","Trustworthy,Untrustworthy","image-keyboard-response","80","142503","0.0-6.0-1.37","","1372","","trustrating_stim/white_00757_941201_fa_edt.bmp","5","","","","","","","","","","",""
"","","","ratingFB","5bbc4bd1f83ac60001fe665e","bdp_trlrn","Mon Mar 13 2023 11:39:51 GMT-0700 (Pacific Daylight Time)","686704","Trustworthy,Untrustworthy","image-keyboard-response","81","142712","0.0-6.0-2.37","","null","","trustrating_stim/white_00757_941201_fa_edt.bmp","null","","","","","","","","","","",""
"","","","rating","5bbc4bd1f83ac60001fe665e","bdp_trlrn","Mon Mar 13 2023 11:39:51 GMT-0700 (Pacific Daylight Time)","686704","Trustworthy,Untrustworthy","image-keyboard-response","82","145042","0.0-6.0-1.38","","2219","","trustrating_stim/white_mw033.bmp","5","","","","","","","","","","",""
"","","","ratingFB","5bbc4bd1f83ac60001fe665e","bdp_trlrn","Mon Mar 13 2023 11:39:51 GMT-0700 (Pacific Daylight Time)","686704","Trustworthy,Untrustworthy","image-keyboard-response","83","145253","0.0-6.0-2.38","","null","","trustrating_stim/white_mw033.bmp","null","","","","","","","","","","",""
"","","","rating","5bbc4bd1f83ac60001fe665e","bdp_trlrn","Mon Mar 13 2023 11:39:51 GMT-0700 (Pacific Daylight Time)","686704","Trustworthy,Untrustworthy","image-keyboard-response","84","147163","0.0-6.0-1.39","","1799","","trustrating_stim/white_mw084.bmp","4","","","","","","","","","","",""
"","","","ratingFB","5bbc4bd1f83ac60001fe665e","bdp_trlrn","Mon Mar 13 2023 11:39:51 GMT-0700 (Pacific Daylight Time)","686704","Trustworthy,Untrustworthy","image-keyboard-response","85","147368","0.0-6.0-2.39","","null","","trustrating_stim/white_mw084.bmp","null","","","","","","","","","","",""
"","","","rating","5bbc4bd1f83ac60001fe665e","bdp_trlrn","Mon Mar 13 2023 11:39:51 GMT-0700 (Pacific Daylight Time)","686704","Trustworthy,Untrustworthy","image-keyboard-response","86","148472","0.0-6.0-1.40","","993","","trustrating_stim/white_mw053.bmp","5","","","","","","","","","","",""
"","","","ratingFB","5bbc4bd1f83ac60001fe665e","bdp_trlrn","Mon Mar 13 2023 11:39:51 GMT-0700 (Pacific Daylight Time)","686704","Trustworthy,Untrustworthy","image-keyboard-response","87","148677","0.0-6.0-2.40","","null","","trustrating_stim/white_mw053.bmp","null","","","","","","","","","","",""
"","","","rating","5bbc4bd1f83ac60001fe665e","bdp_trlrn","Mon Mar 13 2023 11:39:51 GMT-0700 (Pacific Daylight Time)","686704","Trustworthy,Untrustworthy","image-keyboard-response","88","150565","0.0-6.0-1.41","","1781","","trustrating_stim/white_00761_941201_fb_edt.bmp","5","","","","","","","","","","",""
"","","","ratingFB","5bbc4bd1f83ac60001fe665e","bdp_trlrn","Mon Mar 13 2023 11:39:51 GMT-0700 (Pacific Daylight Time)","686704","Trustworthy,Untrustworthy","image-keyboard-response","89","150773","0.0-6.0-2.41","","null","","trustrating_stim/white_00761_941201_fb_edt.bmp","null","","","","","","","","","","",""
"","","","rating","5bbc4bd1f83ac60001fe665e","bdp_trlrn","Mon Mar 13 2023 11:39:51 GMT-0700 (Pacific Daylight Time)","686704","Trustworthy,Untrustworthy","image-keyboard-response","90","152272","0.0-6.0-1.42","","1386","","trustrating_stim/white_00807_941205_fb_edt.bmp","5","","","","","","","","","","",""
"","","","ratingFB","5bbc4bd1f83ac60001fe665e","bdp_trlrn","Mon Mar 13 2023 11:39:51 GMT-0700 (Pacific Daylight Time)","686704","Trustworthy,Untrustworthy","image-keyboard-response","91","152475","0.0-6.0-2.42","","null","","trustrating_stim/white_00807_941205_fb_edt.bmp","null","","","","","","","","","","",""
"","","","rating","5bbc4bd1f83ac60001fe665e","bdp_trlrn","Mon Mar 13 2023 11:39:51 GMT-0700 (Pacific Daylight Time)","686704","Trustworthy,Untrustworthy","image-keyboard-response","92","153612","0.0-6.0-1.43","","1023","","trustrating_stim/white_00120_931230_fa_edt.bmp","5","","","","","","","","","","",""
"","","","ratingFB","5bbc4bd1f83ac60001fe665e","bdp_trlrn","Mon Mar 13 2023 11:39:51 GMT-0700 (Pacific Daylight Time)","686704","Trustworthy,Untrustworthy","image-keyboard-response","93","153827","0.0-6.0-2.43","","null","","trustrating_stim/white_00120_931230_fa_edt.bmp","null","","","","","","","","","","",""
"","","","rating","5bbc4bd1f83ac60001fe665e","bdp_trlrn","Mon Mar 13 2023 11:39:51 GMT-0700 (Pacific Daylight Time)","686704","Trustworthy,Untrustworthy","image-keyboard-response","94","157514","0.0-6.0-1.44","","3575","","trustrating_stim/white_00659_941121_fa_edt.bmp","5","","","","","","","","","","",""
"","","","ratingFB","5bbc4bd1f83ac60001fe665e","bdp_trlrn","Mon Mar 13 2023 11:39:51 GMT-0700 (Pacific Daylight Time)","686704","Trustworthy,Untrustworthy","image-keyboard-response","95","157729","0.0-6.0-2.44","","null","","trustrating_stim/white_00659_941121_fa_edt.bmp","null","","","","","","","","","","",""
"","","","rating","5bbc4bd1f83ac60001fe665e","bdp_trlrn","Mon Mar 13 2023 11:39:51 GMT-0700 (Pacific Daylight Time)","686704","Trustworthy,Untrustworthy","image-keyboard-response","96","158912","0.0-6.0-1.45","","1073","","trustrating_stim/white_00519_940519_fb_edt.bmp","5","","","","","","","","","","",""
"","","","ratingFB","5bbc4bd1f83ac60001fe665e","bdp_trlrn","Mon Mar 13 2023 11:39:51 GMT-0700 (Pacific Daylight Time)","686704","Trustworthy,Untrustworthy","image-keyboard-response","97","159116","0.0-6.0-2.45","","null","","trustrating_stim/white_00519_940519_fb_edt.bmp","null","","","","","","","","","","",""
"","","","rating","5bbc4bd1f83ac60001fe665e","bdp_trlrn","Mon Mar 13 2023 11:39:51 GMT-0700 (Pacific Daylight Time)","686704","Trustworthy,Untrustworthy","image-keyboard-response","98","160246","0.0-6.0-1.46","","1019","","trustrating_stim/white_00785_941205_fb_edt.bmp","5","","","","","","","","","","",""
"","","","ratingFB","5bbc4bd1f83ac60001fe665e","bdp_trlrn","Mon Mar 13 2023 11:39:51 GMT-0700 (Pacific Daylight Time)","686704","Trustworthy,Untrustworthy","image-keyboard-response","99","160462","0.0-6.0-2.46","","null","","trustrating_stim/white_00785_941205_fb_edt.bmp","null","","","","","","","","","","",""
"","","","rating","5bbc4bd1f83ac60001fe665e","bdp_trlrn","Mon Mar 13 2023 11:39:51 GMT-0700 (Pacific Daylight Time)","686704","Trustworthy,Untrustworthy","image-keyboard-response","100","162563","0.0-6.0-1.47","","1990","","trustrating_stim/white_00129_931230_fb_edt.bmp","5","","","","","","","","","","",""
"","","","ratingFB","5bbc4bd1f83ac60001fe665e","bdp_trlrn","Mon Mar 13 2023 11:39:51 GMT-0700 (Pacific Daylight Time)","686704","Trustworthy,Untrustworthy","image-keyboard-response","101","162773","0.0-6.0-2.47","","null","","trustrating_stim/white_00129_931230_fb_edt.bmp","null","","","","","","","","","","",""
"","","","rating","5bbc4bd1f83ac60001fe665e","bdp_trlrn","Mon Mar 13 2023 11:39:51 GMT-0700 (Pacific Daylight Time)","686704","Trustworthy,Untrustworthy","image-keyboard-response","102","164243","0.0-6.0-1.48","","1359","","trustrating_stim/white_00223_940128_fb_edt.bmp","4","","","","","","","","","","",""
"","","","ratingFB","5bbc4bd1f83ac60001fe665e","bdp_trlrn","Mon Mar 13 2023 11:39:51 GMT-0700 (Pacific Daylight Time)","686704","Trustworthy,Untrustworthy","image-keyboard-response","103","164448","0.0-6.0-2.48","","null","","trustrating_stim/white_00223_940128_fb_edt.bmp","null","","","","","","","","","","",""
"","","","rating","5bbc4bd1f83ac60001fe665e","bdp_trlrn","Mon Mar 13 2023 11:39:51 GMT-0700 (Pacific Daylight Time)","686704","Trustworthy,Untrustworthy","image-keyboard-response","104","165812","0.0-6.0-1.49","","1253","","trustrating_stim/white_mw097.bmp","5","","","","","","","","","","",""
"","","","ratingFB","5bbc4bd1f83ac60001fe665e","bdp_trlrn","Mon Mar 13 2023 11:39:51 GMT-0700 (Pacific Daylight Time)","686704","Trustworthy,Untrustworthy","image-keyboard-response","105","166022","0.0-6.0-2.49","","null","","trustrating_stim/white_mw097.bmp","null","","","","","","","","","","",""
"","","","rating","5bbc4bd1f83ac60001fe665e","bdp_trlrn","Mon Mar 13 2023 11:39:51 GMT-0700 (Pacific Daylight Time)","686704","Trustworthy,Untrustworthy","image-keyboard-response","106","167215","0.0-6.0-1.50","","1081","","trustrating_stim/white_00109_931230_fa_edt.bmp","5","","","","","","","","","","",""
"","","","ratingFB","5bbc4bd1f83ac60001fe665e","bdp_trlrn","Mon Mar 13 2023 11:39:51 GMT-0700 (Pacific Daylight Time)","686704","Trustworthy,Untrustworthy","image-keyboard-response","107","167422","0.0-6.0-2.50","","null","","trustrating_stim/white_00109_931230_fa_edt.bmp","null","","","","","","","","","","",""
"","","","rating","5bbc4bd1f83ac60001fe665e","bdp_trlrn","Mon Mar 13 2023 11:39:51 GMT-0700 (Pacific Daylight Time)","686704","Trustworthy,Untrustworthy","image-keyboard-response","108","169183","0.0-6.0-1.51","","1649","","trustrating_stim/white_00340_940422_fa_edt.bmp","5","","","","","","","","","","",""
"","","","ratingFB","5bbc4bd1f83ac60001fe665e","bdp_trlrn","Mon Mar 13 2023 11:39:51 GMT-0700 (Pacific Daylight Time)","686704","Trustworthy,Untrustworthy","image-keyboard-response","109","169386","0.0-6.0-2.51","","null","","trustrating_stim/white_00340_940422_fa_edt.bmp","null","","","","","","","","","","",""
"","","","rating","5bbc4bd1f83ac60001fe665e","bdp_trlrn","Mon Mar 13 2023 11:39:51 GMT-0700 (Pacific Daylight Time)","686704","Trustworthy,Untrustworthy","image-keyboard-response","110","170314","0.0-6.0-1.52","","817","","trustrating_stim/white_mw056.bmp","5","","","","","","","","","","",""
"","","","ratingFB","5bbc4bd1f83ac60001fe665e","bdp_trlrn","Mon Mar 13 2023 11:39:51 GMT-0700 (Pacific Daylight Time)","686704","Trustworthy,Untrustworthy","image-keyboard-response","111","170520","0.0-6.0-2.52","","null","","trustrating_stim/white_mw056.bmp","null","","","","","","","","","","",""
"","","","rating","5bbc4bd1f83ac60001fe665e","bdp_trlrn","Mon Mar 13 2023 11:39:51 GMT-0700 (Pacific Daylight Time)","686704","Trustworthy,Untrustworthy","image-keyboard-response","112","172092","0.0-6.0-1.53","","1457","","trustrating_stim/white_00577_940928_fa_edt.bmp","4","","","","","","","","","","",""
"","","","ratingFB","5bbc4bd1f83ac60001fe665e","bdp_trlrn","Mon Mar 13 2023 11:39:51 GMT-0700 (Pacific Daylight Time)","686704","Trustworthy,Untrustworthy","image-keyboard-response","113","172293","0.0-6.0-2.53","","null","","trustrating_stim/white_00577_940928_fa_edt.bmp","null","","","","","","","","","","",""
"","","","rating","5bbc4bd1f83ac60001fe665e","bdp_trlrn","Mon Mar 13 2023 11:39:51 GMT-0700 (Pacific Daylight Time)","686704","Trustworthy,Untrustworthy","image-keyboard-response","114","174673","0.0-6.0-1.54","","2270","","trustrating_stim/white_00299_940422_fa_edt.bmp","5","","","","","","","","","","",""
"","","","ratingFB","5bbc4bd1f83ac60001fe665e","bdp_trlrn","Mon Mar 13 2023 11:39:51 GMT-0700 (Pacific Daylight Time)","686704","Trustworthy,Untrustworthy","image-keyboard-response","115","174883","0.0-6.0-2.54","","null","","trustrating_stim/white_00299_940422_fa_edt.bmp","null","","","","","","","","","","",""
"","","","rating","5bbc4bd1f83ac60001fe665e","bdp_trlrn","Mon Mar 13 2023 11:39:51 GMT-0700 (Pacific Daylight Time)","686704","Trustworthy,Untrustworthy","image-keyboard-response","116","176025","0.0-6.0-1.55","","1030","","trustrating_stim/white_mw048.bmp","5","","","","","","","","","","",""
"","","","ratingFB","5bbc4bd1f83ac60001fe665e","bdp_trlrn","Mon Mar 13 2023 11:39:51 GMT-0700 (Pacific Daylight Time)","686704","Trustworthy,Untrustworthy","image-keyboard-response","117","176239","0.0-6.0-2.55","","null","","trustrating_stim/white_mw048.bmp","null","","","","","","","","","","",""
"","","","rating","5bbc4bd1f83ac60001fe665e","bdp_trlrn","Mon Mar 13 2023 11:39:51 GMT-0700 (Pacific Daylight Time)","686704","Trustworthy,Untrustworthy","image-keyboard-response","118","177961","0.0-6.0-1.56","","1610","","trustrating_stim/white_mw063.bmp","5","","","","","","","","","","",""
"","","","ratingFB","5bbc4bd1f83ac60001fe665e","bdp_trlrn","Mon Mar 13 2023 11:39:51 GMT-0700 (Pacific Daylight Time)","686704","Trustworthy,Untrustworthy","image-keyboard-response","119","178172","0.0-6.0-2.56","","null","","trustrating_stim/white_mw063.bmp","null","","","","","","","","","","",""
"","","","rating","5bbc4bd1f83ac60001fe665e","bdp_trlrn","Mon Mar 13 2023 11:39:51 GMT-0700 (Pacific Daylight Time)","686704","Trustworthy,Untrustworthy","image-keyboard-response","120","179001","0.0-6.0-1.57","","717","","trustrating_stim/white_mw046.bmp","5","","","","","","","","","","",""
"","","","ratingFB","5bbc4bd1f83ac60001fe665e","bdp_trlrn","Mon Mar 13 2023 11:39:51 GMT-0700 (Pacific Daylight Time)","686704","Trustworthy,Untrustworthy","image-keyboard-response","121","179213","0.0-6.0-2.57","","null","","trustrating_stim/white_mw046.bmp","null","","","","","","","","","","",""
"","","","rating","5bbc4bd1f83ac60001fe665e","bdp_trlrn","Mon Mar 13 2023 11:39:51 GMT-0700 (Pacific Daylight Time)","686704","Trustworthy,Untrustworthy","image-keyboard-response","122","180315","0.0-6.0-1.58","","991","","trustrating_stim/white_mw060.bmp","5","","","","","","","","","","",""
"","","","ratingFB","5bbc4bd1f83ac60001fe665e","bdp_trlrn","Mon Mar 13 2023 11:39:51 GMT-0700 (Pacific Daylight Time)","686704","Trustworthy,Untrustworthy","image-keyboard-response","123","180524","0.0-6.0-2.58","","null","","trustrating_stim/white_mw060.bmp","null","","","","","","","","","","",""
"","","","rating","5bbc4bd1f83ac60001fe665e","bdp_trlrn","Mon Mar 13 2023 11:39:51 GMT-0700 (Pacific Daylight Time)","686704","Trustworthy,Untrustworthy","image-keyboard-response","124","182072","0.0-6.0-1.59","","1438","","trustrating_stim/white_mw049.bmp","5","","","","","","","","","","",""
"","","","ratingFB","5bbc4bd1f83ac60001fe665e","bdp_trlrn","Mon Mar 13 2023 11:39:51 GMT-0700 (Pacific Daylight Time)","686704","Trustworthy,Untrustworthy","image-keyboard-response","125","182274","0.0-6.0-2.59","","null","","trustrating_stim/white_mw049.bmp","null","","","","","","","","","","",""
"","","","","5bbc4bd1f83ac60001fe665e","bdp_trlrn","Mon Mar 13 2023 11:39:51 GMT-0700 (Pacific Daylight Time)","686704","Trustworthy,Untrustworthy","instructions","126","184472","0.0-7.0","[{""page_index"":0,""viewing_time"":2088}]","2088","","","","","","","","","","","","","",""
"","","","","5bbc4bd1f83ac60001fe665e","bdp_trlrn","Mon Mar 13 2023 11:39:51 GMT-0700 (Pacific Daylight Time)","686704","Trustworthy,Untrustworthy","instructions","127","300383","0.0-8.0","[{""page_index"":0,""viewing_time"":19850},{""page_index"":1,""viewing_time"":17971},{""page_index"":2,""viewing_time"":7863},{""page_index"":3,""viewing_time"":11536},{""page_index"":4,""viewing_time"":12122},{""page_index"":5,""viewing_time"":10760},{""page_index"":6,""viewing_time"":28181},{""page_index"":7,""viewing_time"":7518}]","115801","","","","","","","","","","","","","",""
"","","","","5bbc4bd1f83ac60001fe665e","bdp_trlrn","Mon Mar 13 2023 11:39:51 GMT-0700 (Pacific Daylight Time)","686704","Trustworthy,Untrustworthy","html-keyboard-response","128","312137","0.0-9.0","","11752","","<div class='header' style='text-align:left; position: absolute; top: 5%; left: 5%;'><small>Task 2 of 5</small></div><div class='instruxDiv'><p><strong>1) What is the minimum number of points you can choose to send to your partner?</strong></p><p>a) 0</p><p>b) 1</p><p>c) 5</p>","B","","","","","","","","","","",""
"","","","","5bbc4bd1f83ac60001fe665e","bdp_trlrn","Mon Mar 13 2023 11:39:51 GMT-0700 (Pacific Daylight Time)","686704","Trustworthy,Untrustworthy","html-keyboard-response","129","317154","0.0-10.0","","4910","","<div class='header' style='text-align:left; position: absolute; top: 5%; left: 5%;'><small>Task 2 of 5</small></div><div class='instruxDiv'><p><strong>1) What is the minimum number of points you can choose to send to your partner?</strong></p><p>a) 0</p><p style='color:#00FF00'>b) 1</p><p>c) 5</p><h3 style='color:#00FF00'>Correct!</h3><h3 class='center-content'>The correct response is b).</h3><h3 class='center-content'>The minimum number of points you can choose to send to your partner is 1 point.</h3><p><em>Press SPACEBAR to continue</em></p></div>"," ","","","","","","","","","","",""
"","","","","5bbc4bd1f83ac60001fe665e","bdp_trlrn","Mon Mar 13 2023 11:39:51 GMT-0700 (Pacific Daylight Time)","686704","Trustworthy,Untrustworthy","html-keyboard-response","130","331315","0.0-11.0","","14045","","<div class='header' style='text-align:left; position: absolute; top: 5%; left: 5%;'><small>Task 2 of 5</small></div><div class='instruxDiv'><p><strong>2) What is the maximum number of points you can choose to send to your partner?</strong></p><p>a) 8</p><p>b) 5</p><p>c) 3</p>","B","","","","","","","","","","",""
"","","","","5bbc4bd1f83ac60001fe665e","bdp_trlrn","Mon Mar 13 2023 11:39:51 GMT-0700 (Pacific Daylight Time)","686704","Trustworthy,Untrustworthy","html-keyboard-response","131","333984","0.0-12.0","","2554","","<div class='header' style='text-align:left; position: absolute; top: 5%; left: 5%;'><small>Task 2 of 5</small></div><div class='instruxDiv'><p><strong>2) What is the maximum number of points you can choose to send to your partner?</strong></p><p>a) 8</p><p style='color:#00FF00'>b) 5</p><p>c) 3</p><h3 style='color:#00FF00'>Correct!</h3><h3 class='center-content'>The correct response is b).</h3><h3 class='center-content'>The maximum number of points you can choose to send to your partner is 5 points.</h3><p><em>Press SPACEBAR to continue</em></p></div>"," ","","","","","","","","","","",""
"","","","","5bbc4bd1f83ac60001fe665e","bdp_trlrn","Mon Mar 13 2023 11:39:51 GMT-0700 (Pacific Daylight Time)","686704","Trustworthy,Untrustworthy","html-keyboard-response","132","338209","0.0-13.0","","4113","","<div class='header' style='text-align:left; position: absolute; top: 5%; left: 5%;'><small>Task 2 of 5</small></div><div class='instruxDiv'><p><strong>3) What happens to the amount of points you send to your partner?</strong></p><p>a) Nothing</p><p>b) It doubles</p><p>c) It quadruples</p>","C","","","","","","","","","","",""
"","","","","5bbc4bd1f83ac60001fe665e","bdp_trlrn","Mon Mar 13 2023 11:39:51 GMT-0700 (Pacific Daylight Time)","686704","Trustworthy,Untrustworthy","html-keyboard-response","133","340134","0.0-14.0","","1820","","<div class='header' style='text-align:left; position: absolute; top: 5%; left: 5%;'><small>Task 2 of 5</small></div><div class='instruxDiv'><p><strong>3) What happens to the amount of points you send to your partner?</strong></p><p>a) Nothing</p><p>b) It doubles</p><p style='color:#00FF00'>c) It quadruples</p><h3 style='color:#00FF00'>Correct!</h3><h3 class='center-content'>The correct response is c).</h3><h3 class='center-content'>The amount of points you send to your partner quadruples.</h3><p><em>Press SPACEBAR to continue</em></p></div>"," ","","","","","","","","","","",""
"","","","","5bbc4bd1f83ac60001fe665e","bdp_trlrn","Mon Mar 13 2023 11:39:51 GMT-0700 (Pacific Daylight Time)","686704","Trustworthy,Untrustworthy","html-keyboard-response","134","350447","0.0-15.0","","10198","","<div class='header' style='text-align:left; position: absolute; top: 5%; left: 5%;'><small>Task 2 of 5</small></div><div class='instruxDiv'><p><strong>4) If you decided to share 4 out of 5 points with your partner, and they decided to share half of the amount they received with you, how many points would you receive back from them on this round?</strong></p><p>a) 16</p><p>b) 0</p><p>c) 8</p>","C","","","","","","","","","","",""
"","","","","5bbc4bd1f83ac60001fe665e","bdp_trlrn","Mon Mar 13 2023 11:39:51 GMT-0700 (Pacific Daylight Time)","686704","Trustworthy,Untrustworthy","html-keyboard-response","135","351567","0.0-16.0","","1007","","<div class='header' style='text-align:left; position: absolute; top: 5%; left: 5%;'><small>Task 2 of 5</small></div><div class='instruxDiv'><p><strong>4) If you decided to share 4 out of 5 points with your partner, and they decided to share half of the amount they received with you, how many points would you receive back from them on this round?</strong></p><p>a) 16</p><p>b) 0</p><p style='color:#00FF00'>c) 8</p><h3 style='color:#00FF00'>Correct!</h3><h3 class='center-content'>The correct response is c).</h3><h3 class='center-content'>If you shared 4 out of 5 points with your partner and they decided to share half of the amount they received with you, you would receive 8 points back (i.e. (4 x 4)/2 = 8).</h3><p><em>Press SPACEBAR to continue</em></p></div>"," ","","","","","","","","","","",""
"","","","","5bbc4bd1f83ac60001fe665e","bdp_trlrn","Mon Mar 13 2023 11:39:51 GMT-0700 (Pacific Daylight Time)","686704","Trustworthy,Untrustworthy","html-keyboard-response","136","356694","0.0-17.0","","null","","<div class='header' style='text-align:left; position: absolute; top: 5%; left: 5%;'><small>Task 2 of 5</small></div><div class='instruxDiv'><p>Thank you for completing the quiz<p>These are the actual partners you will be interacting with in the next block:<p><div class='tc' align='center'><img class='introPic' src='trustrating_stim/white_mw066.bmp'><br><strong>Joseph</strong></div><div class='bl' align='center'><img class='introPic' src='trustrating_stim/white_mw060.bmp'><br><strong>Anthony</strong></div><div class='br' align='center'><img class='introPic' src='trustrating_stim/white_00340_940422_fa_edt.bmp'><br><strong>Sebastian</strong></div></div><p>Across <strong>66 rounds</strong> you will interact with each partner <strong>22 times</strong> (in random order).<p style='align:center; color:white'><font <em>Press SPACEBAR to continue</em></p>","null","","","","","","","","","","",""
"","","","","5bbc4bd1f83ac60001fe665e","bdp_trlrn","Mon Mar 13 2023 11:39:51 GMT-0700 (Pacific Daylight Time)","686704","Trustworthy,Untrustworthy","instructions","137","364763","0.0-18.0","[{""page_index"":0,""viewing_time"":2632},{""page_index"":1,""viewing_time"":5437}]","8069","","","","","","","","","","","","","",""
"","","","decision","5bbc4bd1f83ac60001fe665e","bdp_trlrn","Mon Mar 13 2023 11:39:51 GMT-0700 (Pacific Daylight Time)","686704","Trustworthy,Untrustworthy","html-keyboard-response","138","369148","0.0-19.0-1.0","","4281","","<div class='trialDiv'><img src='trustrating_stim/white_mw060.bmp'><br><font class='baseline'><strong>Anthony</strong><p>Choose number of points to send.</font><div class='respPicDiv'><img src='img/responseButtonOffersNo0L.png' class='respPic'></div></div>","4","1","Anthony","5","Shared","0.8,0.2","10","0.8","trustrating_stim/white_mw060.bmp","5","5","1"
"","","","decisionFB","5bbc4bd1f83ac60001fe665e","bdp_trlrn","Mon Mar 13 2023 11:39:51 GMT-0700 (Pacific Daylight Time)","686704","Trustworthy,Untrustworthy","html-keyboard-response","139","369410","0.0-19.0-2.0","","null","","<div class='trialDiv'><img src='trustrating_stim/white_mw060.bmp'><br><font class='baseline'><strong>Anthony</strong><p>Choose number of points to send.</font><div class='respPicDiv'><img src='img/responseButtonOffersNo0L4.png' class='respPic'></div></div>","null","1","Anthony","5","Shared","0.8,0.2","10","0.8","trustrating_stim/white_mw060.bmp","5","1","1"
"","","","feedback","5bbc4bd1f83ac60001fe665e","bdp_trlrn","Mon Mar 13 2023 11:39:51 GMT-0700 (Pacific Daylight Time)","686704","Trustworthy,Untrustworthy","html-keyboard-response","140","370423","0.0-19.0-3.0","","null","","<div class='trialDiv'><img src='trustrating_stim/white_mw060.bmp'><br><font class='baseline'><strong>Anthony</strong><p>Received: <strong>16</strong></font> &nbsp; &nbsp; &nbsp; &nbsp; &nbsp; &nbsp;<font class='posOutcome'>Shared back: <strong>8</strong></font></font><div class='respPicDiv'><img src='img/responseButtonOffersNo0_wht.png' class='respPic'></div></div>","null","1","Anthony","5","Shared","0.8,0.2","10","0.8","trustrating_stim/white_mw060.bmp","5","9","1"
"","","","decision","5bbc4bd1f83ac60001fe665e","bdp_trlrn","Mon Mar 13 2023 11:39:51 GMT-0700 (Pacific Daylight Time)","686704","Trustworthy,Untrustworthy","html-keyboard-response","141","372563","0.0-19.0-1.1","","2138","","<div class='trialDiv'><img src='trustrating_stim/white_mw066.bmp'><br><font class='baseline'><strong>Joseph</strong><p>Choose number of points to send.</font><div class='respPicDiv'><img src='img/responseButtonOffersNo0L.png' class='respPic'></div></div>","4","1","Joseph","3","Kept","0.8,0.35","13","0.8","trustrating_stim/white_mw066.bmp","4","14","2"
"","","","decisionFB","5bbc4bd1f83ac60001fe665e","bdp_trlrn","Mon Mar 13 2023 11:39:51 GMT-0700 (Pacific Daylight Time)","686704","Trustworthy,Untrustworthy","html-keyboard-response","142","372818","0.0-19.0-2.1","","null","","<div class='trialDiv'><img src='trustrating_stim/white_mw066.bmp'><br><font class='baseline'><strong>Joseph</strong><p>Choose number of points to send.</font><div class='respPicDiv'><img src='img/responseButtonOffersNo0L4.png' class='respPic'></div></div>","null","1","Joseph","3","Kept","0.8,0.35","13","0.8","trustrating_stim/white_mw066.bmp","4","10","2"
"","","","feedback","5bbc4bd1f83ac60001fe665e","bdp_trlrn","Mon Mar 13 2023 11:39:51 GMT-0700 (Pacific Daylight Time)","686704","Trustworthy,Untrustworthy","html-keyboard-response","143","373832","0.0-19.0-3.1","","null","","<div class='trialDiv'><img src='trustrating_stim/white_mw066.bmp'><br><font class='baseline'><strong>Joseph</strong><p>Received: <strong>16</strong></font> &nbsp; &nbsp; &nbsp; &nbsp; &nbsp; &nbsp;<font class='negOutcome'>Shared back: <strong>0</strong></font></font><div class='respPicDiv'><img src='img/responseButtonOffersNo0_wht.png' class='respPic'></div></div>","null","1","Joseph","3","Kept","0.8,0.35","13","0.8","trustrating_stim/white_mw066.bmp","4","10","2"
"","","","decision","5bbc4bd1f83ac60001fe665e","bdp_trlrn","Mon Mar 13 2023 11:39:51 GMT-0700 (Pacific Daylight Time)","686704","Trustworthy,Untrustworthy","html-keyboard-response","144","375046","0.0-19.0-1.2","","1214","","<div class='trialDiv'><img src='trustrating_stim/white_00340_940422_fa_edt.bmp'><br><font class='baseline'><strong>Sebastian</strong><p>Choose number of points to send.</font><div class='respPicDiv'><img src='img/responseButtonOffersNo0L.png' class='respPic'></div></div>","4","1","Sebastian","8","Kept","0.35,0.8","11","0.35","trustrating_stim/white_00340_940422_fa_edt.bmp","5","15","3"
"","","","decisionFB","5bbc4bd1f83ac60001fe665e","bdp_trlrn","Mon Mar 13 2023 11:39:51 GMT-0700 (Pacific Daylight Time)","686704","Trustworthy,Untrustworthy","html-keyboard-response","145","375300","0.0-19.0-2.2","","null","","<div class='trialDiv'><img src='trustrating_stim/white_00340_940422_fa_edt.bmp'><br><font class='baseline'><strong>Sebastian</strong><p>Choose number of points to send.</font><div class='respPicDiv'><img src='img/responseButtonOffersNo0L4.png' class='respPic'></div></div>","null","1","Sebastian","8","Kept","0.35,0.8","11","0.35","trustrating_stim/white_00340_940422_fa_edt.bmp","5","11","3"
"","","","feedback","5bbc4bd1f83ac60001fe665e","bdp_trlrn","Mon Mar 13 2023 11:39:51 GMT-0700 (Pacific Daylight Time)","686704","Trustworthy,Untrustworthy","html-keyboard-response","146","376311","0.0-19.0-3.2","","null","","<div class='trialDiv'><img src='trustrating_stim/white_00340_940422_fa_edt.bmp'><br><font class='baseline'><strong>Sebastian</strong><p>Received: <strong>16</strong></font> &nbsp; &nbsp; &nbsp; &nbsp; &nbsp; &nbsp;<font class='negOutcome'>Shared back: <strong>0</strong></font></font><div class='respPicDiv'><img src='img/responseButtonOffersNo0_wht.png' class='respPic'></div></div>","null","1","Sebastian","8","Kept","0.35,0.8","11","0.35","trustrating_stim/white_00340_940422_fa_edt.bmp","5","11","3"
"","","","decision","5bbc4bd1f83ac60001fe665e","bdp_trlrn","Mon Mar 13 2023 11:39:51 GMT-0700 (Pacific Daylight Time)","686704","Trustworthy,Untrustworthy","html-keyboard-response","147","377874","0.0-19.0-1.3","","1560","","<div class='trialDiv'><img src='trustrating_stim/white_mw066.bmp'><br><font class='baseline'><strong>Joseph</strong><p>Choose number of points to send.</font><div class='respPicDiv'><img src='img/responseButtonOffersNo0L.png' class='respPic'></div></div>","2","2","Joseph","3","Shared","0.8,0.35","13","0.8","trustrating_stim/white_mw066.bmp","4","16","4"
"","","","decisionFB","5bbc4bd1f83ac60001fe665e","bdp_trlrn","Mon Mar 13 2023 11:39:51 GMT-0700 (Pacific Daylight Time)","686704","Trustworthy,Untrustworthy","html-keyboard-response","148","378140","0.0-19.0-2.3","","null","","<div class='trialDiv'><img src='trustrating_stim/white_mw066.bmp'><br><font class='baseline'><strong>Joseph</strong><p>Choose number of points to send.</font><div class='respPicDiv'><img src='img/responseButtonOffersNo0L2.png' class='respPic'></div></div>","null","2","Joseph","3","Shared","0.8,0.35","13","0.8","trustrating_stim/white_mw066.bmp","4","14","4"
"","","","feedback","5bbc4bd1f83ac60001fe665e","bdp_trlrn","Mon Mar 13 2023 11:39:51 GMT-0700 (Pacific Daylight Time)","686704","Trustworthy,Untrustworthy","html-keyboard-response","149","379152","0.0-19.0-3.3","","null","","<div class='trialDiv'><img src='trustrating_stim/white_mw066.bmp'><br><font class='baseline'><strong>Joseph</strong><p>Received: <strong>8</strong></font> &nbsp; &nbsp; &nbsp; &nbsp; &nbsp; &nbsp;<font class='posOutcome'>Shared back: <strong>4</strong></font></font><div class='respPicDiv'><img src='img/responseButtonOffersNo0_wht.png' class='respPic'></div></div>","null","2","Joseph","3","Shared","0.8,0.35","13","0.8","trustrating_stim/white_mw066.bmp","4","18","4"
"","","","decision","5bbc4bd1f83ac60001fe665e","bdp_trlrn","Mon Mar 13 2023 11:39:51 GMT-0700 (Pacific Daylight Time)","686704","Trustworthy,Untrustworthy","html-keyboard-response","150","380683","0.0-19.0-1.4","","1530","","<div class='trialDiv'><img src='trustrating_stim/white_mw060.bmp'><br><font class='baseline'><strong>Anthony</strong><p>Choose number of points to send.</font><div class='respPicDiv'><img src='img/responseButtonOffersNo0L.png' class='respPic'></div></div>","4","2","Anthony","5","Shared","0.8,0.2","10","0.8","trustrating_stim/white_mw060.bmp","5","23","5"
"","","","decisionFB","5bbc4bd1f83ac60001fe665e","bdp_trlrn","Mon Mar 13 2023 11:39:51 GMT-0700 (Pacific Daylight Time)","686704","Trustworthy,Untrustworthy","html-keyboard-response","151","380947","0.0-19.0-2.4","","null","","<div class='trialDiv'><img src='trustrating_stim/white_mw060.bmp'><br><font class='baseline'><strong>Anthony</strong><p>Choose number of points to send.</font><div class='respPicDiv'><img src='img/responseButtonOffersNo0L4.png' class='respPic'></div></div>","null","2","Anthony","5","Shared","0.8,0.2","10","0.8","trustrating_stim/white_mw060.bmp","5","19","5"
"","","","feedback","5bbc4bd1f83ac60001fe665e","bdp_trlrn","Mon Mar 13 2023 11:39:51 GMT-0700 (Pacific Daylight Time)","686704","Trustworthy,Untrustworthy","html-keyboard-response","152","381962","0.0-19.0-3.4","","null","","<div class='trialDiv'><img src='trustrating_stim/white_mw060.bmp'><br><font class='baseline'><strong>Anthony</strong><p>Received: <strong>16</strong></font> &nbsp; &nbsp; &nbsp; &nbsp; &nbsp; &nbsp;<font class='posOutcome'>Shared back: <strong>8</strong></font></font><div class='respPicDiv'><img src='img/responseButtonOffersNo0_wht.png' class='respPic'></div></div>","null","2","Anthony","5","Shared","0.8,0.2","10","0.8","trustrating_stim/white_mw060.bmp","5","27","5"
"","","","decision","5bbc4bd1f83ac60001fe665e","bdp_trlrn","Mon Mar 13 2023 11:39:51 GMT-0700 (Pacific Daylight Time)","686704","Trustworthy,Untrustworthy","html-keyboard-response","153","383065","0.0-19.0-1.5","","1101","","<div class='trialDiv'><img src='trustrating_stim/white_00340_940422_fa_edt.bmp'><br><font class='baseline'><strong>Sebastian</strong><p>Choose number of points to send.</font><div class='respPicDiv'><img src='img/responseButtonOffersNo0L.png' class='respPic'></div></div>","4","2","Sebastian","8","Kept","0.35,0.8","11","0.35","trustrating_stim/white_00340_940422_fa_edt.bmp","5","32","6"
"","","","decisionFB","5bbc4bd1f83ac60001fe665e","bdp_trlrn","Mon Mar 13 2023 11:39:51 GMT-0700 (Pacific Daylight Time)","686704","Trustworthy,Untrustworthy","html-keyboard-response","154","383319","0.0-19.0-2.5","","null","","<div class='trialDiv'><img src='trustrating_stim/white_00340_940422_fa_edt.bmp'><br><font class='baseline'><strong>Sebastian</strong><p>Choose number of points to send.</font><div class='respPicDiv'><img src='img/responseButtonOffersNo0L4.png' class='respPic'></div></div>","null","2","Sebastian","8","Kept","0.35,0.8","11","0.35","trustrating_stim/white_00340_940422_fa_edt.bmp","5","28","6"
"","","","feedback","5bbc4bd1f83ac60001fe665e","bdp_trlrn","Mon Mar 13 2023 11:39:51 GMT-0700 (Pacific Daylight Time)","686704","Trustworthy,Untrustworthy","html-keyboard-response","155","384323","0.0-19.0-3.5","","null","","<div class='trialDiv'><img src='trustrating_stim/white_00340_940422_fa_edt.bmp'><br><font class='baseline'><strong>Sebastian</strong><p>Received: <strong>16</strong></font> &nbsp; &nbsp; &nbsp; &nbsp; &nbsp; &nbsp;<font class='negOutcome'>Shared back: <strong>0</strong></font></font><div class='respPicDiv'><img src='img/responseButtonOffersNo0_wht.png' class='respPic'></div></div>","null","2","Sebastian","8","Kept","0.35,0.8","11","0.35","trustrating_stim/white_00340_940422_fa_edt.bmp","5","28","6"
"","","","decision","5bbc4bd1f83ac60001fe665e","bdp_trlrn","Mon Mar 13 2023 11:39:51 GMT-0700 (Pacific Daylight Time)","686704","Trustworthy,Untrustworthy","html-keyboard-response","156","385416","0.0-19.0-1.6","","1090","","<div class='trialDiv'><img src='trustrating_stim/white_mw060.bmp'><br><font class='baseline'><strong>Anthony</strong><p>Choose number of points to send.</font><div class='respPicDiv'><img src='img/responseButtonOffersNo0L.png' class='respPic'></div></div>","4","3","Anthony","5","Kept","0.8,0.2","10","0.8","trustrating_stim/white_mw060.bmp","5","33","7"
"","","","decisionFB","5bbc4bd1f83ac60001fe665e","bdp_trlrn","Mon Mar 13 2023 11:39:51 GMT-0700 (Pacific Daylight Time)","686704","Trustworthy,Untrustworthy","html-keyboard-response","157","385675","0.0-19.0-2.6","","null","","<div class='trialDiv'><img src='trustrating_stim/white_mw060.bmp'><br><font class='baseline'><strong>Anthony</strong><p>Choose number of points to send.</font><div class='respPicDiv'><img src='img/responseButtonOffersNo0L4.png' class='respPic'></div></div>","null","3","Anthony","5","Kept","0.8,0.2","10","0.8","trustrating_stim/white_mw060.bmp","5","29","7"
"","","","feedback","5bbc4bd1f83ac60001fe665e","bdp_trlrn","Mon Mar 13 2023 11:39:51 GMT-0700 (Pacific Daylight Time)","686704","Trustworthy,Untrustworthy","html-keyboard-response","158","386686","0.0-19.0-3.6","","null","","<div class='trialDiv'><img src='trustrating_stim/white_mw060.bmp'><br><font class='baseline'><strong>Anthony</strong><p>Received: <strong>16</strong></font> &nbsp; &nbsp; &nbsp; &nbsp; &nbsp; &nbsp;<font class='negOutcome'>Shared back: <strong>0</strong></font></font><div class='respPicDiv'><img src='img/responseButtonOffersNo0_wht.png' class='respPic'></div></div>","null","3","Anthony","5","Kept","0.8,0.2","10","0.8","trustrating_stim/white_mw060.bmp","5","29","7"
"","","","decision","5bbc4bd1f83ac60001fe665e","bdp_trlrn","Mon Mar 13 2023 11:39:51 GMT-0700 (Pacific Daylight Time)","686704","Trustworthy,Untrustworthy","html-keyboard-response","159","387353","0.0-19.0-1.7","","666","","<div class='trialDiv'><img src='trustrating_stim/white_00340_940422_fa_edt.bmp'><br><font class='baseline'><strong>Sebastian</strong><p>Choose number of points to send.</font><div class='respPicDiv'><img src='img/responseButtonOffersNo0L.png' class='respPic'></div></div>","4","3","Sebastian","8","Kept","0.35,0.8","11","0.35","trustrating_stim/white_00340_940422_fa_edt.bmp","5","34","8"
"","","","decisionFB","5bbc4bd1f83ac60001fe665e","bdp_trlrn","Mon Mar 13 2023 11:39:51 GMT-0700 (Pacific Daylight Time)","686704","Trustworthy,Untrustworthy","html-keyboard-response","160","387615","0.0-19.0-2.7","","null","","<div class='trialDiv'><img src='trustrating_stim/white_00340_940422_fa_edt.bmp'><br><font class='baseline'><strong>Sebastian</strong><p>Choose number of points to send.</font><div class='respPicDiv'><img src='img/responseButtonOffersNo0L4.png' class='respPic'></div></div>","null","3","Sebastian","8","Kept","0.35,0.8","11","0.35","trustrating_stim/white_00340_940422_fa_edt.bmp","5","30","8"
"","","","feedback","5bbc4bd1f83ac60001fe665e","bdp_trlrn","Mon Mar 13 2023 11:39:51 GMT-0700 (Pacific Daylight Time)","686704","Trustworthy,Untrustworthy","html-keyboard-response","161","388622","0.0-19.0-3.7","","null","","<div class='trialDiv'><img src='trustrating_stim/white_00340_940422_fa_edt.bmp'><br><font class='baseline'><strong>Sebastian</strong><p>Received: <strong>16</strong></font> &nbsp; &nbsp; &nbsp; &nbsp; &nbsp; &nbsp;<font class='negOutcome'>Shared back: <strong>0</strong></font></font><div class='respPicDiv'><img src='img/responseButtonOffersNo0_wht.png' class='respPic'></div></div>","null","3","Sebastian","8","Kept","0.35,0.8","11","0.35","trustrating_stim/white_00340_940422_fa_edt.bmp","5","30","8"
"","","","decision","5bbc4bd1f83ac60001fe665e","bdp_trlrn","Mon Mar 13 2023 11:39:51 GMT-0700 (Pacific Daylight Time)","686704","Trustworthy,Untrustworthy","html-keyboard-response","162","389457","0.0-19.0-1.8","","833","","<div class='trialDiv'><img src='trustrating_stim/white_mw066.bmp'><br><font class='baseline'><strong>Joseph</strong><p>Choose number of points to send.</font><div class='respPicDiv'><img src='img/responseButtonOffersNo0L.png' class='respPic'></div></div>","4","3","Joseph","3","Shared","0.8,0.35","13","0.8","trustrating_stim/white_mw066.bmp","4","35","9"
"","","","decisionFB","5bbc4bd1f83ac60001fe665e","bdp_trlrn","Mon Mar 13 2023 11:39:51 GMT-0700 (Pacific Daylight Time)","686704","Trustworthy,Untrustworthy","html-keyboard-response","163","389723","0.0-19.0-2.8","","null","","<div class='trialDiv'><img src='trustrating_stim/white_mw066.bmp'><br><font class='baseline'><strong>Joseph</strong><p>Choose number of points to send.</font><div class='respPicDiv'><img src='img/responseButtonOffersNo0L4.png' class='respPic'></div></div>","null","3","Joseph","3","Shared","0.8,0.35","13","0.8","trustrating_stim/white_mw066.bmp","4","31","9"
"","","","feedback","5bbc4bd1f83ac60001fe665e","bdp_trlrn","Mon Mar 13 2023 11:39:51 GMT-0700 (Pacific Daylight Time)","686704","Trustworthy,Untrustworthy","html-keyboard-response","164","390734","0.0-19.0-3.8","","null","","<div class='trialDiv'><img src='trustrating_stim/white_mw066.bmp'><br><font class='baseline'><strong>Joseph</strong><p>Received: <strong>16</strong></font> &nbsp; &nbsp; &nbsp; &nbsp; &nbsp; &nbsp;<font class='posOutcome'>Shared back: <strong>8</strong></font></font><div class='respPicDiv'><img src='img/responseButtonOffersNo0_wht.png' class='respPic'></div></div>","null","3","Joseph","3","Shared","0.8,0.35","13","0.8","trustrating_stim/white_mw066.bmp","4","39","9"
"","","","decision","5bbc4bd1f83ac60001fe665e","bdp_trlrn","Mon Mar 13 2023 11:39:51 GMT-0700 (Pacific Daylight Time)","686704","Trustworthy,Untrustworthy","html-keyboard-response","165","391855","0.0-19.0-1.9","","1121","","<div class='trialDiv'><img src='trustrating_stim/white_00340_940422_fa_edt.bmp'><br><font class='baseline'><strong>Sebastian</strong><p>Choose number of points to send.</font><div class='respPicDiv'><img src='img/responseButtonOffersNo0L.png' class='respPic'></div></div>","2","4","Sebastian","8","Shared","0.35,0.8","11","0.35","trustrating_stim/white_00340_940422_fa_edt.bmp","5","44","10"
"","","","decisionFB","5bbc4bd1f83ac60001fe665e","bdp_trlrn","Mon Mar 13 2023 11:39:51 GMT-0700 (Pacific Daylight Time)","686704","Trustworthy,Untrustworthy","html-keyboard-response","166","392106","0.0-19.0-2.9","","null","","<div class='trialDiv'><img src='trustrating_stim/white_00340_940422_fa_edt.bmp'><br><font class='baseline'><strong>Sebastian</strong><p>Choose number of points to send.</font><div class='respPicDiv'><img src='img/responseButtonOffersNo0L2.png' class='respPic'></div></div>","null","4","Sebastian","8","Shared","0.35,0.8","11","0.35","trustrating_stim/white_00340_940422_fa_edt.bmp","5","42","10"
"","","","feedback","5bbc4bd1f83ac60001fe665e","bdp_trlrn","Mon Mar 13 2023 11:39:51 GMT-0700 (Pacific Daylight Time)","686704","Trustworthy,Untrustworthy","html-keyboard-response","167","393109","0.0-19.0-3.9","","null","","<div class='trialDiv'><img src='trustrating_stim/white_00340_940422_fa_edt.bmp'><br><font class='baseline'><strong>Sebastian</strong><p>Received: <strong>8</strong></font> &nbsp; &nbsp; &nbsp; &nbsp; &nbsp; &nbsp;<font class='posOutcome'>Shared back: <strong>4</strong></font></font><div class='respPicDiv'><img src='img/responseButtonOffersNo0_wht.png' class='respPic'></div></div>","null","4","Sebastian","8","Shared","0.35,0.8","11","0.35","trustrating_stim/white_00340_940422_fa_edt.bmp","5","46","10"
"","","","decision","5bbc4bd1f83ac60001fe665e","bdp_trlrn","Mon Mar 13 2023 11:39:51 GMT-0700 (Pacific Daylight Time)","686704","Trustworthy,Untrustworthy","html-keyboard-response","168","393816","0.0-19.0-1.10","","701","","<div class='trialDiv'><img src='trustrating_stim/white_mw060.bmp'><br><font class='baseline'><strong>Anthony</strong><p>Choose number of points to send.</font><div class='respPicDiv'><img src='img/responseButtonOffersNo0L.png' class='respPic'></div></div>","2","4","Anthony","5","Shared","0.8,0.2","10","0.8","trustrating_stim/white_mw060.bmp","5","51","11"
"","","","decisionFB","5bbc4bd1f83ac60001fe665e","bdp_trlrn","Mon Mar 13 2023 11:39:51 GMT-0700 (Pacific Daylight Time)","686704","Trustworthy,Untrustworthy","html-keyboard-response","169","394079","0.0-19.0-2.10","","null","","<div class='trialDiv'><img src='trustrating_stim/white_mw060.bmp'><br><font class='baseline'><strong>Anthony</strong><p>Choose number of points to send.</font><div class='respPicDiv'><img src='img/responseButtonOffersNo0L2.png' class='respPic'></div></div>","null","4","Anthony","5","Shared","0.8,0.2","10","0.8","trustrating_stim/white_mw060.bmp","5","49","11"
"","","","feedback","5bbc4bd1f83ac60001fe665e","bdp_trlrn","Mon Mar 13 2023 11:39:51 GMT-0700 (Pacific Daylight Time)","686704","Trustworthy,Untrustworthy","html-keyboard-response","170","395092","0.0-19.0-3.10","","null","","<div class='trialDiv'><img src='trustrating_stim/white_mw060.bmp'><br><font class='baseline'><strong>Anthony</strong><p>Received: <strong>8</strong></font> &nbsp; &nbsp; &nbsp; &nbsp; &nbsp; &nbsp;<font class='posOutcome'>Shared back: <strong>4</strong></font></font><div class='respPicDiv'><img src='img/responseButtonOffersNo0_wht.png' class='respPic'></div></div>","null","4","Anthony","5","Shared","0.8,0.2","10","0.8","trustrating_stim/white_mw060.bmp","5","53","11"
"","","","decision","5bbc4bd1f83ac60001fe665e","bdp_trlrn","Mon Mar 13 2023 11:39:51 GMT-0700 (Pacific Daylight Time)","686704","Trustworthy,Untrustworthy","html-keyboard-response","171","395687","0.0-19.0-1.11","","594","","<div class='trialDiv'><img src='trustrating_stim/white_mw066.bmp'><br><font class='baseline'><strong>Joseph</strong><p>Choose number of points to send.</font><div class='respPicDiv'><img src='img/responseButtonOffersNo0L.png' class='respPic'></div></div>","4","4","Joseph","3","Shared","0.8,0.35","13","0.8","trustrating_stim/white_mw066.bmp","4","58","12"
"","","","decisionFB","5bbc4bd1f83ac60001fe665e","bdp_trlrn","Mon Mar 13 2023 11:39:51 GMT-0700 (Pacific Daylight Time)","686704","Trustworthy,Untrustworthy","html-keyboard-response","172","395944","0.0-19.0-2.11","","null","","<div class='trialDiv'><img src='trustrating_stim/white_mw066.bmp'><br><font class='baseline'><strong>Joseph</strong><p>Choose number of points to send.</font><div class='respPicDiv'><img src='img/responseButtonOffersNo0L4.png' class='respPic'></div></div>","null","4","Joseph","3","Shared","0.8,0.35","13","0.8","trustrating_stim/white_mw066.bmp","4","54","12"
"","","","feedback","5bbc4bd1f83ac60001fe665e","bdp_trlrn","Mon Mar 13 2023 11:39:51 GMT-0700 (Pacific Daylight Time)","686704","Trustworthy,Untrustworthy","html-keyboard-response","173","396959","0.0-19.0-3.11","","null","","<div class='trialDiv'><img src='trustrating_stim/white_mw066.bmp'><br><font class='baseline'><strong>Joseph</strong><p>Received: <strong>16</strong></font> &nbsp; &nbsp; &nbsp; &nbsp; &nbsp; &nbsp;<font class='posOutcome'>Shared back: <strong>8</strong></font></font><div class='respPicDiv'><img src='img/responseButtonOffersNo0_wht.png' class='respPic'></div></div>","null","4","Joseph","3","Shared","0.8,0.35","13","0.8","trustrating_stim/white_mw066.bmp","4","62","12"
"","","","decision","5bbc4bd1f83ac60001fe665e","bdp_trlrn","Mon Mar 13 2023 11:39:51 GMT-0700 (Pacific Daylight Time)","686704","Trustworthy,Untrustworthy","html-keyboard-response","174","398345","0.0-19.0-1.12","","1385","","<div class='trialDiv'><img src='trustrating_stim/white_mw060.bmp'><br><font class='baseline'><strong>Anthony</strong><p>Choose number of points to send.</font><div class='respPicDiv'><img src='img/responseButtonOffersNo0L.png' class='respPic'></div></div>","3","5","Anthony","5","Shared","0.8,0.2","10","0.8","trustrating_stim/white_mw060.bmp","5","67","13"
"","","","decisionFB","5bbc4bd1f83ac60001fe665e","bdp_trlrn","Mon Mar 13 2023 11:39:51 GMT-0700 (Pacific Daylight Time)","686704","Trustworthy,Untrustworthy","html-keyboard-response","175","398600","0.0-19.0-2.12","","null","","<div class='trialDiv'><img src='trustrating_stim/white_mw060.bmp'><br><font class='baseline'><strong>Anthony</strong><p>Choose number of points to send.</font><div class='respPicDiv'><img src='img/responseButtonOffersNo0L3.png' class='respPic'></div></div>","null","5","Anthony","5","Shared","0.8,0.2","10","0.8","trustrating_stim/white_mw060.bmp","5","64","13"
"","","","feedback","5bbc4bd1f83ac60001fe665e","bdp_trlrn","Mon Mar 13 2023 11:39:51 GMT-0700 (Pacific Daylight Time)","686704","Trustworthy,Untrustworthy","html-keyboard-response","176","399615","0.0-19.0-3.12","","null","","<div class='trialDiv'><img src='trustrating_stim/white_mw060.bmp'><br><font class='baseline'><strong>Anthony</strong><p>Received: <strong>12</strong></font> &nbsp; &nbsp; &nbsp; &nbsp; &nbsp; &nbsp;<font class='posOutcome'>Shared back: <strong>6</strong></font></font><div class='respPicDiv'><img src='img/responseButtonOffersNo0_wht.png' class='respPic'></div></div>","null","5","Anthony","5","Shared","0.8,0.2","10","0.8","trustrating_stim/white_mw060.bmp","5","70","13"
"","","","decision","5bbc4bd1f83ac60001fe665e","bdp_trlrn","Mon Mar 13 2023 11:39:51 GMT-0700 (Pacific Daylight Time)","686704","Trustworthy,Untrustworthy","html-keyboard-response","177","400087","0.0-19.0-1.13","","472","","<div class='trialDiv'><img src='trustrating_stim/white_mw066.bmp'><br><font class='baseline'><strong>Joseph</strong><p>Choose number of points to send.</font><div class='respPicDiv'><img src='img/responseButtonOffersNo0L.png' class='respPic'></div></div>","3","5","Joseph","3","Shared","0.8,0.35","13","0.8","trustrating_stim/white_mw066.bmp","4","75","14"
"","","","decisionFB","5bbc4bd1f83ac60001fe665e","bdp_trlrn","Mon Mar 13 2023 11:39:51 GMT-0700 (Pacific Daylight Time)","686704","Trustworthy,Untrustworthy","html-keyboard-response","178","400344","0.0-19.0-2.13","","null","","<div class='trialDiv'><img src='trustrating_stim/white_mw066.bmp'><br><font class='baseline'><strong>Joseph</strong><p>Choose number of points to send.</font><div class='respPicDiv'><img src='img/responseButtonOffersNo0L3.png' class='respPic'></div></div>","null","5","Joseph","3","Shared","0.8,0.35","13","0.8","trustrating_stim/white_mw066.bmp","4","72","14"
"","","","feedback","5bbc4bd1f83ac60001fe665e","bdp_trlrn","Mon Mar 13 2023 11:39:51 GMT-0700 (Pacific Daylight Time)","686704","Trustworthy,Untrustworthy","html-keyboard-response","179","401350","0.0-19.0-3.13","","null","","<div class='trialDiv'><img src='trustrating_stim/white_mw066.bmp'><br><font class='baseline'><strong>Joseph</strong><p>Received: <strong>12</strong></font> &nbsp; &nbsp; &nbsp; &nbsp; &nbsp; &nbsp;<font class='posOutcome'>Shared back: <strong>6</strong></font></font><div class='respPicDiv'><img src='img/responseButtonOffersNo0_wht.png' class='respPic'></div></div>","null","5","Joseph","3","Shared","0.8,0.35","13","0.8","trustrating_stim/white_mw066.bmp","4","78","14"
"","","","decision","5bbc4bd1f83ac60001fe665e","bdp_trlrn","Mon Mar 13 2023 11:39:51 GMT-0700 (Pacific Daylight Time)","686704","Trustworthy,Untrustworthy","html-keyboard-response","180","401947","0.0-19.0-1.14","","595","","<div class='trialDiv'><img src='trustrating_stim/white_00340_940422_fa_edt.bmp'><br><font class='baseline'><strong>Sebastian</strong><p>Choose number of points to send.</font><div class='respPicDiv'><img src='img/responseButtonOffersNo0L.png' class='respPic'></div></div>","3","5","Sebastian","8","Shared","0.35,0.8","11","0.35","trustrating_stim/white_00340_940422_fa_edt.bmp","5","83","15"
"","","","decisionFB","5bbc4bd1f83ac60001fe665e","bdp_trlrn","Mon Mar 13 2023 11:39:51 GMT-0700 (Pacific Daylight Time)","686704","Trustworthy,Untrustworthy","html-keyboard-response","181","402203","0.0-19.0-2.14","","null","","<div class='trialDiv'><img src='trustrating_stim/white_00340_940422_fa_edt.bmp'><br><font class='baseline'><strong>Sebastian</strong><p>Choose number of points to send.</font><div class='respPicDiv'><img src='img/responseButtonOffersNo0L3.png' class='respPic'></div></div>","null","5","Sebastian","8","Shared","0.35,0.8","11","0.35","trustrating_stim/white_00340_940422_fa_edt.bmp","5","80","15"
"","","","feedback","5bbc4bd1f83ac60001fe665e","bdp_trlrn","Mon Mar 13 2023 11:39:51 GMT-0700 (Pacific Daylight Time)","686704","Trustworthy,Untrustworthy","html-keyboard-response","182","403213","0.0-19.0-3.14","","null","","<div class='trialDiv'><img src='trustrating_stim/white_00340_940422_fa_edt.bmp'><br><font class='baseline'><strong>Sebastian</strong><p>Received: <strong>12</strong></font> &nbsp; &nbsp; &nbsp; &nbsp; &nbsp; &nbsp;<font class='posOutcome'>Shared back: <strong>6</strong></font></font><div class='respPicDiv'><img src='img/responseButtonOffersNo0_wht.png' class='respPic'></div></div>","null","5","Sebastian","8","Shared","0.35,0.8","11","0.35","trustrating_stim/white_00340_940422_fa_edt.bmp","5","86","15"
"","","","decision","5bbc4bd1f83ac60001fe665e","bdp_trlrn","Mon Mar 13 2023 11:39:51 GMT-0700 (Pacific Daylight Time)","686704","Trustworthy,Untrustworthy","html-keyboard-response","183","403816","0.0-19.0-1.15","","601","","<div class='trialDiv'><img src='trustrating_stim/white_mw060.bmp'><br><font class='baseline'><strong>Anthony</strong><p>Choose number of points to send.</font><div class='respPicDiv'><img src='img/responseButtonOffersNo0L.png' class='respPic'></div></div>","4","6","Anthony","5","Shared","0.8,0.2","10","0.8","trustrating_stim/white_mw060.bmp","5","91","16"
"","","","decisionFB","5bbc4bd1f83ac60001fe665e","bdp_trlrn","Mon Mar 13 2023 11:39:51 GMT-0700 (Pacific Daylight Time)","686704","Trustworthy,Untrustworthy","html-keyboard-response","184","404075","0.0-19.0-2.15","","null","","<div class='trialDiv'><img src='trustrating_stim/white_mw060.bmp'><br><font class='baseline'><strong>Anthony</strong><p>Choose number of points to send.</font><div class='respPicDiv'><img src='img/responseButtonOffersNo0L4.png' class='respPic'></div></div>","null","6","Anthony","5","Shared","0.8,0.2","10","0.8","trustrating_stim/white_mw060.bmp","5","87","16"
"","","","feedback","5bbc4bd1f83ac60001fe665e","bdp_trlrn","Mon Mar 13 2023 11:39:51 GMT-0700 (Pacific Daylight Time)","686704","Trustworthy,Untrustworthy","html-keyboard-response","185","405086","0.0-19.0-3.15","","null","","<div class='trialDiv'><img src='trustrating_stim/white_mw060.bmp'><br><font class='baseline'><strong>Anthony</strong><p>Received: <strong>16</strong></font> &nbsp; &nbsp; &nbsp; &nbsp; &nbsp; &nbsp;<font class='posOutcome'>Shared back: <strong>8</strong></font></font><div class='respPicDiv'><img src='img/responseButtonOffersNo0_wht.png' class='respPic'></div></div>","null","6","Anthony","5","Shared","0.8,0.2","10","0.8","trustrating_stim/white_mw060.bmp","5","95","16"
"","","","decision","5bbc4bd1f83ac60001fe665e","bdp_trlrn","Mon Mar 13 2023 11:39:51 GMT-0700 (Pacific Daylight Time)","686704","Trustworthy,Untrustworthy","html-keyboard-response","186","406068","0.0-19.0-1.16","","982","","<div class='trialDiv'><img src='trustrating_stim/white_00340_940422_fa_edt.bmp'><br><font class='baseline'><strong>Sebastian</strong><p>Choose number of points to send.</font><div class='respPicDiv'><img src='img/responseButtonOffersNo0L.png' class='respPic'></div></div>","3","6","Sebastian","8","Kept","0.35,0.8","11","0.35","trustrating_stim/white_00340_940422_fa_edt.bmp","5","100","17"
"","","","decisionFB","5bbc4bd1f83ac60001fe665e","bdp_trlrn","Mon Mar 13 2023 11:39:51 GMT-0700 (Pacific Daylight Time)","686704","Trustworthy,Untrustworthy","html-keyboard-response","187","406334","0.0-19.0-2.16","","null","","<div class='trialDiv'><img src='trustrating_stim/white_00340_940422_fa_edt.bmp'><br><font class='baseline'><strong>Sebastian</strong><p>Choose number of points to send.</font><div class='respPicDiv'><img src='img/responseButtonOffersNo0L3.png' class='respPic'></div></div>","null","6","Sebastian","8","Kept","0.35,0.8","11","0.35","trustrating_stim/white_00340_940422_fa_edt.bmp","5","97","17"
"","","","feedback","5bbc4bd1f83ac60001fe665e","bdp_trlrn","Mon Mar 13 2023 11:39:51 GMT-0700 (Pacific Daylight Time)","686704","Trustworthy,Untrustworthy","html-keyboard-response","188","407344","0.0-19.0-3.16","","null","","<div class='trialDiv'><img src='trustrating_stim/white_00340_940422_fa_edt.bmp'><br><font class='baseline'><strong>Sebastian</strong><p>Received: <strong>12</strong></font> &nbsp; &nbsp; &nbsp; &nbsp; &nbsp; &nbsp;<font class='negOutcome'>Shared back: <strong>0</strong></font></font><div class='respPicDiv'><img src='img/responseButtonOffersNo0_wht.png' class='respPic'></div></div>","null","6","Sebastian","8","Kept","0.35,0.8","11","0.35","trustrating_stim/white_00340_940422_fa_edt.bmp","5","97","17"
"","","","decision","5bbc4bd1f83ac60001fe665e","bdp_trlrn","Mon Mar 13 2023 11:39:51 GMT-0700 (Pacific Daylight Time)","686704","Trustworthy,Untrustworthy","html-keyboard-response","189","407865","0.0-19.0-1.17","","520","","<div class='trialDiv'><img src='trustrating_stim/white_mw066.bmp'><br><font class='baseline'><strong>Joseph</strong><p>Choose number of points to send.</font><div class='respPicDiv'><img src='img/responseButtonOffersNo0L.png' class='respPic'></div></div>","3","6","Joseph","3","Shared","0.8,0.35","13","0.8","trustrating_stim/white_mw066.bmp","4","102","18"
"","","","decisionFB","5bbc4bd1f83ac60001fe665e","bdp_trlrn","Mon Mar 13 2023 11:39:51 GMT-0700 (Pacific Daylight Time)","686704","Trustworthy,Untrustworthy","html-keyboard-response","190","408130","0.0-19.0-2.17","","null","","<div class='trialDiv'><img src='trustrating_stim/white_mw066.bmp'><br><font class='baseline'><strong>Joseph</strong><p>Choose number of points to send.</font><div class='respPicDiv'><img src='img/responseButtonOffersNo0L3.png' class='respPic'></div></div>","null","6","Joseph","3","Shared","0.8,0.35","13","0.8","trustrating_stim/white_mw066.bmp","4","99","18"
"","","","feedback","5bbc4bd1f83ac60001fe665e","bdp_trlrn","Mon Mar 13 2023 11:39:51 GMT-0700 (Pacific Daylight Time)","686704","Trustworthy,Untrustworthy","html-keyboard-response","191","409145","0.0-19.0-3.17","","null","","<div class='trialDiv'><img src='trustrating_stim/white_mw066.bmp'><br><font class='baseline'><strong>Joseph</strong><p>Received: <strong>12</strong></font> &nbsp; &nbsp; &nbsp; &nbsp; &nbsp; &nbsp;<font class='posOutcome'>Shared back: <strong>6</strong></font></font><div class='respPicDiv'><img src='img/responseButtonOffersNo0_wht.png' class='respPic'></div></div>","null","6","Joseph","3","Shared","0.8,0.35","13","0.8","trustrating_stim/white_mw066.bmp","4","105","18"
"","","","decision","5bbc4bd1f83ac60001fe665e","bdp_trlrn","Mon Mar 13 2023 11:39:51 GMT-0700 (Pacific Daylight Time)","686704","Trustworthy,Untrustworthy","html-keyboard-response","192","409859","0.0-19.0-1.18","","710","","<div class='trialDiv'><img src='trustrating_stim/white_00340_940422_fa_edt.bmp'><br><font class='baseline'><strong>Sebastian</strong><p>Choose number of points to send.</font><div class='respPicDiv'><img src='img/responseButtonOffersNo0L.png' class='respPic'></div></div>","3","7","Sebastian","8","Shared","0.35,0.8","11","0.35","trustrating_stim/white_00340_940422_fa_edt.bmp","5","110","19"
"","","","decisionFB","5bbc4bd1f83ac60001fe665e","bdp_trlrn","Mon Mar 13 2023 11:39:51 GMT-0700 (Pacific Daylight Time)","686704","Trustworthy,Untrustworthy","html-keyboard-response","193","410125","0.0-19.0-2.18","","null","","<div class='trialDiv'><img src='trustrating_stim/white_00340_940422_fa_edt.bmp'><br><font class='baseline'><strong>Sebastian</strong><p>Choose number of points to send.</font><div class='respPicDiv'><img src='img/responseButtonOffersNo0L3.png' class='respPic'></div></div>","null","7","Sebastian","8","Shared","0.35,0.8","11","0.35","trustrating_stim/white_00340_940422_fa_edt.bmp","5","107","19"
"","","","feedback","5bbc4bd1f83ac60001fe665e","bdp_trlrn","Mon Mar 13 2023 11:39:51 GMT-0700 (Pacific Daylight Time)","686704","Trustworthy,Untrustworthy","html-keyboard-response","194","411134","0.0-19.0-3.18","","null","","<div class='trialDiv'><img src='trustrating_stim/white_00340_940422_fa_edt.bmp'><br><font class='baseline'><strong>Sebastian</strong><p>Received: <strong>12</strong></font> &nbsp; &nbsp; &nbsp; &nbsp; &nbsp; &nbsp;<font class='posOutcome'>Shared back: <strong>6</strong></font></font><div class='respPicDiv'><img src='img/responseButtonOffersNo0_wht.png' class='respPic'></div></div>","null","7","Sebastian","8","Shared","0.35,0.8","11","0.35","trustrating_stim/white_00340_940422_fa_edt.bmp","5","113","19"
"","","","decision","5bbc4bd1f83ac60001fe665e","bdp_trlrn","Mon Mar 13 2023 11:39:51 GMT-0700 (Pacific Daylight Time)","686704","Trustworthy,Untrustworthy","html-keyboard-response","195","412168","0.0-19.0-1.19","","1033","","<div class='trialDiv'><img src='trustrating_stim/white_mw066.bmp'><br><font class='baseline'><strong>Joseph</strong><p>Choose number of points to send.</font><div class='respPicDiv'><img src='img/responseButtonOffersNo0L.png' class='respPic'></div></div>","4","7","Joseph","3","Shared","0.8,0.35","13","0.8","trustrating_stim/white_mw066.bmp","4","118","20"
"","","","decisionFB","5bbc4bd1f83ac60001fe665e","bdp_trlrn","Mon Mar 13 2023 11:39:51 GMT-0700 (Pacific Daylight Time)","686704","Trustworthy,Untrustworthy","html-keyboard-response","196","412434","0.0-19.0-2.19","","null","","<div class='trialDiv'><img src='trustrating_stim/white_mw066.bmp'><br><font class='baseline'><strong>Joseph</strong><p>Choose number of points to send.</font><div class='respPicDiv'><img src='img/responseButtonOffersNo0L4.png' class='respPic'></div></div>","null","7","Joseph","3","Shared","0.8,0.35","13","0.8","trustrating_stim/white_mw066.bmp","4","114","20"
"","","","feedback","5bbc4bd1f83ac60001fe665e","bdp_trlrn","Mon Mar 13 2023 11:39:51 GMT-0700 (Pacific Daylight Time)","686704","Trustworthy,Untrustworthy","html-keyboard-response","197","413444","0.0-19.0-3.19","","null","","<div class='trialDiv'><img src='trustrating_stim/white_mw066.bmp'><br><font class='baseline'><strong>Joseph</strong><p>Received: <strong>16</strong></font> &nbsp; &nbsp; &nbsp; &nbsp; &nbsp; &nbsp;<font class='posOutcome'>Shared back: <strong>8</strong></font></font><div class='respPicDiv'><img src='img/responseButtonOffersNo0_wht.png' class='respPic'></div></div>","null","7","Joseph","3","Shared","0.8,0.35","13","0.8","trustrating_stim/white_mw066.bmp","4","122","20"
"","","","decision","5bbc4bd1f83ac60001fe665e","bdp_trlrn","Mon Mar 13 2023 11:39:51 GMT-0700 (Pacific Daylight Time)","686704","Trustworthy,Untrustworthy","html-keyboard-response","198","414065","0.0-19.0-1.20","","619","","<div class='trialDiv'><img src='trustrating_stim/white_mw060.bmp'><br><font class='baseline'><strong>Anthony</strong><p>Choose number of points to send.</font><div class='respPicDiv'><img src='img/responseButtonOffersNo0L.png' class='respPic'></div></div>","3","7","Anthony","5","Shared","0.8,0.2","10","0.8","trustrating_stim/white_mw060.bmp","5","127","21"
"","","","decisionFB","5bbc4bd1f83ac60001fe665e","bdp_trlrn","Mon Mar 13 2023 11:39:51 GMT-0700 (Pacific Daylight Time)","686704","Trustworthy,Untrustworthy","html-keyboard-response","199","414323","0.0-19.0-2.20","","null","","<div class='trialDiv'><img src='trustrating_stim/white_mw060.bmp'><br><font class='baseline'><strong>Anthony</strong><p>Choose number of points to send.</font><div class='respPicDiv'><img src='img/responseButtonOffersNo0L3.png' class='respPic'></div></div>","null","7","Anthony","5","Shared","0.8,0.2","10","0.8","trustrating_stim/white_mw060.bmp","5","124","21"
"","","","feedback","5bbc4bd1f83ac60001fe665e","bdp_trlrn","Mon Mar 13 2023 11:39:51 GMT-0700 (Pacific Daylight Time)","686704","Trustworthy,Untrustworthy","html-keyboard-response","200","415325","0.0-19.0-3.20","","null","","<div class='trialDiv'><img src='trustrating_stim/white_mw060.bmp'><br><font class='baseline'><strong>Anthony</strong><p>Received: <strong>12</strong></font> &nbsp; &nbsp; &nbsp; &nbsp; &nbsp; &nbsp;<font class='posOutcome'>Shared back: <strong>6</strong></font></font><div class='respPicDiv'><img src='img/responseButtonOffersNo0_wht.png' class='respPic'></div></div>","null","7","Anthony","5","Shared","0.8,0.2","10","0.8","trustrating_stim/white_mw060.bmp","5","130","21"
"","","","decision","5bbc4bd1f83ac60001fe665e","bdp_trlrn","Mon Mar 13 2023 11:39:51 GMT-0700 (Pacific Daylight Time)","686704","Trustworthy,Untrustworthy","html-keyboard-response","201","416117","0.0-19.0-1.21","","790","","<div class='trialDiv'><img src='trustrating_stim/white_mw066.bmp'><br><font class='baseline'><strong>Joseph</strong><p>Choose number of points to send.</font><div class='respPicDiv'><img src='img/responseButtonOffersNo0L.png' class='respPic'></div></div>","4","8","Joseph","3","Shared","0.8,0.35","13","0.8","trustrating_stim/white_mw066.bmp","4","135","22"
"","","","decisionFB","5bbc4bd1f83ac60001fe665e","bdp_trlrn","Mon Mar 13 2023 11:39:51 GMT-0700 (Pacific Daylight Time)","686704","Trustworthy,Untrustworthy","html-keyboard-response","202","416378","0.0-19.0-2.21","","null","","<div class='trialDiv'><img src='trustrating_stim/white_mw066.bmp'><br><font class='baseline'><strong>Joseph</strong><p>Choose number of points to send.</font><div class='respPicDiv'><img src='img/responseButtonOffersNo0L4.png' class='respPic'></div></div>","null","8","Joseph","3","Shared","0.8,0.35","13","0.8","trustrating_stim/white_mw066.bmp","4","131","22"
"","","","feedback","5bbc4bd1f83ac60001fe665e","bdp_trlrn","Mon Mar 13 2023 11:39:51 GMT-0700 (Pacific Daylight Time)","686704","Trustworthy,Untrustworthy","html-keyboard-response","203","417386","0.0-19.0-3.21","","null","","<div class='trialDiv'><img src='trustrating_stim/white_mw066.bmp'><br><font class='baseline'><strong>Joseph</strong><p>Received: <strong>16</strong></font> &nbsp; &nbsp; &nbsp; &nbsp; &nbsp; &nbsp;<font class='posOutcome'>Shared back: <strong>8</strong></font></font><div class='respPicDiv'><img src='img/responseButtonOffersNo0_wht.png' class='respPic'></div></div>","null","8","Joseph","3","Shared","0.8,0.35","13","0.8","trustrating_stim/white_mw066.bmp","4","139","22"
"","","","decision","5bbc4bd1f83ac60001fe665e","bdp_trlrn","Mon Mar 13 2023 11:39:51 GMT-0700 (Pacific Daylight Time)","686704","Trustworthy,Untrustworthy","html-keyboard-response","204","418745","0.0-19.0-1.22","","1358","","<div class='trialDiv'><img src='trustrating_stim/white_mw060.bmp'><br><font class='baseline'><strong>Anthony</strong><p>Choose number of points to send.</font><div class='respPicDiv'><img src='img/responseButtonOffersNo0L.png' class='respPic'></div></div>","3","8","Anthony","5","Kept","0.8,0.2","10","0.8","trustrating_stim/white_mw060.bmp","5","144","23"
"","","","decisionFB","5bbc4bd1f83ac60001fe665e","bdp_trlrn","Mon Mar 13 2023 11:39:51 GMT-0700 (Pacific Daylight Time)","686704","Trustworthy,Untrustworthy","html-keyboard-response","205","418997","0.0-19.0-2.22","","null","","<div class='trialDiv'><img src='trustrating_stim/white_mw060.bmp'><br><font class='baseline'><strong>Anthony</strong><p>Choose number of points to send.</font><div class='respPicDiv'><img src='img/responseButtonOffersNo0L3.png' class='respPic'></div></div>","null","8","Anthony","5","Kept","0.8,0.2","10","0.8","trustrating_stim/white_mw060.bmp","5","141","23"
"","","","feedback","5bbc4bd1f83ac60001fe665e","bdp_trlrn","Mon Mar 13 2023 11:39:51 GMT-0700 (Pacific Daylight Time)","686704","Trustworthy,Untrustworthy","html-keyboard-response","206","420014","0.0-19.0-3.22","","null","","<div class='trialDiv'><img src='trustrating_stim/white_mw060.bmp'><br><font class='baseline'><strong>Anthony</strong><p>Received: <strong>12</strong></font> &nbsp; &nbsp; &nbsp; &nbsp; &nbsp; &nbsp;<font class='negOutcome'>Shared back: <strong>0</strong></font></font><div class='respPicDiv'><img src='img/responseButtonOffersNo0_wht.png' class='respPic'></div></div>","null","8","Anthony","5","Kept","0.8,0.2","10","0.8","trustrating_stim/white_mw060.bmp","5","141","23"
"","","","decision","5bbc4bd1f83ac60001fe665e","bdp_trlrn","Mon Mar 13 2023 11:39:51 GMT-0700 (Pacific Daylight Time)","686704","Trustworthy,Untrustworthy","html-keyboard-response","207","420747","0.0-19.0-1.23","","730","","<div class='trialDiv'><img src='trustrating_stim/white_00340_940422_fa_edt.bmp'><br><font class='baseline'><strong>Sebastian</strong><p>Choose number of points to send.</font><div class='respPicDiv'><img src='img/responseButtonOffersNo0L.png' class='respPic'></div></div>","3","8","Sebastian","8","Shared","0.35,0.8","11","0.35","trustrating_stim/white_00340_940422_fa_edt.bmp","5","146","24"
"","","","decisionFB","5bbc4bd1f83ac60001fe665e","bdp_trlrn","Mon Mar 13 2023 11:39:51 GMT-0700 (Pacific Daylight Time)","686704","Trustworthy,Untrustworthy","html-keyboard-response","208","421005","0.0-19.0-2.23","","null","","<div class='trialDiv'><img src='trustrating_stim/white_00340_940422_fa_edt.bmp'><br><font class='baseline'><strong>Sebastian</strong><p>Choose number of points to send.</font><div class='respPicDiv'><img src='img/responseButtonOffersNo0L3.png' class='respPic'></div></div>","null","8","Sebastian","8","Shared","0.35,0.8","11","0.35","trustrating_stim/white_00340_940422_fa_edt.bmp","5","143","24"
"","","","feedback","5bbc4bd1f83ac60001fe665e","bdp_trlrn","Mon Mar 13 2023 11:39:51 GMT-0700 (Pacific Daylight Time)","686704","Trustworthy,Untrustworthy","html-keyboard-response","209","422018","0.0-19.0-3.23","","null","","<div class='trialDiv'><img src='trustrating_stim/white_00340_940422_fa_edt.bmp'><br><font class='baseline'><strong>Sebastian</strong><p>Received: <strong>12</strong></font> &nbsp; &nbsp; &nbsp; &nbsp; &nbsp; &nbsp;<font class='posOutcome'>Shared back: <strong>6</strong></font></font><div class='respPicDiv'><img src='img/responseButtonOffersNo0_wht.png' class='respPic'></div></div>","null","8","Sebastian","8","Shared","0.35,0.8","11","0.35","trustrating_stim/white_00340_940422_fa_edt.bmp","5","149","24"
"","","","decision","5bbc4bd1f83ac60001fe665e","bdp_trlrn","Mon Mar 13 2023 11:39:51 GMT-0700 (Pacific Daylight Time)","686704","Trustworthy,Untrustworthy","html-keyboard-response","210","423068","0.0-19.0-1.24","","1048","","<div class='trialDiv'><img src='trustrating_stim/white_mw066.bmp'><br><font class='baseline'><strong>Joseph</strong><p>Choose number of points to send.</font><div class='respPicDiv'><img src='img/responseButtonOffersNo0L.png' class='respPic'></div></div>","5","9","Joseph","3","Shared","0.8,0.35","13","0.8","trustrating_stim/white_mw066.bmp","4","154","25"
"","","","decisionFB","5bbc4bd1f83ac60001fe665e","bdp_trlrn","Mon Mar 13 2023 11:39:51 GMT-0700 (Pacific Daylight Time)","686704","Trustworthy,Untrustworthy","html-keyboard-response","211","423332","0.0-19.0-2.24","","null","","<div class='trialDiv'><img src='trustrating_stim/white_mw066.bmp'><br><font class='baseline'><strong>Joseph</strong><p>Choose number of points to send.</font><div class='respPicDiv'><img src='img/responseButtonOffersNo0L5.png' class='respPic'></div></div>","null","9","Joseph","3","Shared","0.8,0.35","13","0.8","trustrating_stim/white_mw066.bmp","4","149","25"
"","","","feedback","5bbc4bd1f83ac60001fe665e","bdp_trlrn","Mon Mar 13 2023 11:39:51 GMT-0700 (Pacific Daylight Time)","686704","Trustworthy,Untrustworthy","html-keyboard-response","212","424342","0.0-19.0-3.24","","null","","<div class='trialDiv'><img src='trustrating_stim/white_mw066.bmp'><br><font class='baseline'><strong>Joseph</strong><p>Received: <strong>20</strong></font> &nbsp; &nbsp; &nbsp; &nbsp; &nbsp; &nbsp;<font class='posOutcome'>Shared back: <strong>10</strong></font></font><div class='respPicDiv'><img src='img/responseButtonOffersNo0_wht.png' class='respPic'></div></div>","null","9","Joseph","3","Shared","0.8,0.35","13","0.8","trustrating_stim/white_mw066.bmp","4","159","25"
"","","","decision","5bbc4bd1f83ac60001fe665e","bdp_trlrn","Mon Mar 13 2023 11:39:51 GMT-0700 (Pacific Daylight Time)","686704","Trustworthy,Untrustworthy","html-keyboard-response","213","425465","0.0-19.0-1.25","","1121","","<div class='trialDiv'><img src='trustrating_stim/white_00340_940422_fa_edt.bmp'><br><font class='baseline'><strong>Sebastian</strong><p>Choose number of points to send.</font><div class='respPicDiv'><img src='img/responseButtonOffersNo0L.png' class='respPic'></div></div>","3","9","Sebastian","8","Shared","0.35,0.8","11","0.35","trustrating_stim/white_00340_940422_fa_edt.bmp","5","164","26"
"","","","decisionFB","5bbc4bd1f83ac60001fe665e","bdp_trlrn","Mon Mar 13 2023 11:39:51 GMT-0700 (Pacific Daylight Time)","686704","Trustworthy,Untrustworthy","html-keyboard-response","214","425717","0.0-19.0-2.25","","null","","<div class='trialDiv'><img src='trustrating_stim/white_00340_940422_fa_edt.bmp'><br><font class='baseline'><strong>Sebastian</strong><p>Choose number of points to send.</font><div class='respPicDiv'><img src='img/responseButtonOffersNo0L3.png' class='respPic'></div></div>","null","9","Sebastian","8","Shared","0.35,0.8","11","0.35","trustrating_stim/white_00340_940422_fa_edt.bmp","5","161","26"
"","","","feedback","5bbc4bd1f83ac60001fe665e","bdp_trlrn","Mon Mar 13 2023 11:39:51 GMT-0700 (Pacific Daylight Time)","686704","Trustworthy,Untrustworthy","html-keyboard-response","215","426725","0.0-19.0-3.25","","null","","<div class='trialDiv'><img src='trustrating_stim/white_00340_940422_fa_edt.bmp'><br><font class='baseline'><strong>Sebastian</strong><p>Received: <strong>12</strong></font> &nbsp; &nbsp; &nbsp; &nbsp; &nbsp; &nbsp;<font class='posOutcome'>Shared back: <strong>6</strong></font></font><div class='respPicDiv'><img src='img/responseButtonOffersNo0_wht.png' class='respPic'></div></div>","null","9","Sebastian","8","Shared","0.35,0.8","11","0.35","trustrating_stim/white_00340_940422_fa_edt.bmp","5","167","26"
"","","","decision","5bbc4bd1f83ac60001fe665e","bdp_trlrn","Mon Mar 13 2023 11:39:51 GMT-0700 (Pacific Daylight Time)","686704","Trustworthy,Untrustworthy","html-keyboard-response","216","427676","0.0-19.0-1.26","","950","","<div class='trialDiv'><img src='trustrating_stim/white_mw060.bmp'><br><font class='baseline'><strong>Anthony</strong><p>Choose number of points to send.</font><div class='respPicDiv'><img src='img/responseButtonOffersNo0L.png' class='respPic'></div></div>","3","9","Anthony","5","Shared","0.8,0.2","10","0.8","trustrating_stim/white_mw060.bmp","5","172","27"
"","","","decisionFB","5bbc4bd1f83ac60001fe665e","bdp_trlrn","Mon Mar 13 2023 11:39:51 GMT-0700 (Pacific Daylight Time)","686704","Trustworthy,Untrustworthy","html-keyboard-response","217","427938","0.0-19.0-2.26","","null","","<div class='trialDiv'><img src='trustrating_stim/white_mw060.bmp'><br><font class='baseline'><strong>Anthony</strong><p>Choose number of points to send.</font><div class='respPicDiv'><img src='img/responseButtonOffersNo0L3.png' class='respPic'></div></div>","null","9","Anthony","5","Shared","0.8,0.2","10","0.8","trustrating_stim/white_mw060.bmp","5","169","27"
"","","","feedback","5bbc4bd1f83ac60001fe665e","bdp_trlrn","Mon Mar 13 2023 11:39:51 GMT-0700 (Pacific Daylight Time)","686704","Trustworthy,Untrustworthy","html-keyboard-response","218","428949","0.0-19.0-3.26","","null","","<div class='trialDiv'><img src='trustrating_stim/white_mw060.bmp'><br><font class='baseline'><strong>Anthony</strong><p>Received: <strong>12</strong></font> &nbsp; &nbsp; &nbsp; &nbsp; &nbsp; &nbsp;<font class='posOutcome'>Shared back: <strong>6</strong></font></font><div class='respPicDiv'><img src='img/responseButtonOffersNo0_wht.png' class='respPic'></div></div>","null","9","Anthony","5","Shared","0.8,0.2","10","0.8","trustrating_stim/white_mw060.bmp","5","175","27"
"","","","decision","5bbc4bd1f83ac60001fe665e","bdp_trlrn","Mon Mar 13 2023 11:39:51 GMT-0700 (Pacific Daylight Time)","686704","Trustworthy,Untrustworthy","html-keyboard-response","219","430077","0.0-19.0-1.27","","1125","","<div class='trialDiv'><img src='trustrating_stim/white_mw066.bmp'><br><font class='baseline'><strong>Joseph</strong><p>Choose number of points to send.</font><div class='respPicDiv'><img src='img/responseButtonOffersNo0L.png' class='respPic'></div></div>","5","10","Joseph","3","Kept","0.8,0.35","13","0.8","trustrating_stim/white_mw066.bmp","4","180","28"
"","","","decisionFB","5bbc4bd1f83ac60001fe665e","bdp_trlrn","Mon Mar 13 2023 11:39:51 GMT-0700 (Pacific Daylight Time)","686704","Trustworthy,Untrustworthy","html-keyboard-response","220","430339","0.0-19.0-2.27","","null","","<div class='trialDiv'><img src='trustrating_stim/white_mw066.bmp'><br><font class='baseline'><strong>Joseph</strong><p>Choose number of points to send.</font><div class='respPicDiv'><img src='img/responseButtonOffersNo0L5.png' class='respPic'></div></div>","null","10","Joseph","3","Kept","0.8,0.35","13","0.8","trustrating_stim/white_mw066.bmp","4","175","28"
"","","","feedback","5bbc4bd1f83ac60001fe665e","bdp_trlrn","Mon Mar 13 2023 11:39:51 GMT-0700 (Pacific Daylight Time)","686704","Trustworthy,Untrustworthy","html-keyboard-response","221","431345","0.0-19.0-3.27","","null","","<div class='trialDiv'><img src='trustrating_stim/white_mw066.bmp'><br><font class='baseline'><strong>Joseph</strong><p>Received: <strong>20</strong></font> &nbsp; &nbsp; &nbsp; &nbsp; &nbsp; &nbsp;<font class='negOutcome'>Shared back: <strong>0</strong></font></font><div class='respPicDiv'><img src='img/responseButtonOffersNo0_wht.png' class='respPic'></div></div>","null","10","Joseph","3","Kept","0.8,0.35","13","0.8","trustrating_stim/white_mw066.bmp","4","175","28"
