"event","trial","time","trialtype","numBlurs","subject_id","task","startTime","totalTime","labels","trial_type","trial_index","time_elapsed","internal_node_id","view_history","rt","success","stimulus","key_press","aground","name","faceID","outcome","agenttype","agentswpt","agentcurrpshare","face","avgRating","point_total","round"
"blur","0","0","blurevent","1","60f08e2a0d6d27ff93244345","bdp_trlrn","Mon Mar 13 2023 14:25:59 GMT-0400 (Eastern Daylight Time)","389316","Untrustworthy,Trustworthy","","","","","","","","","","","","","","","","","","","",""
"","","","","","60f08e2a0d6d27ff93244345","bdp_trlrn","Mon Mar 13 2023 14:25:59 GMT-0400 (Eastern Daylight Time)","389316","Untrustworthy,Trustworthy","pavlovia","0","3","0.0-0.0","","","","","","","","","","","","","","","",""
"focus","1","316","focusevent","","60f08e2a0d6d27ff93244345","bdp_trlrn","Mon Mar 13 2023 14:25:59 GMT-0400 (Eastern Daylight Time)","389316","Untrustworthy,Trustworthy","","","","","","","","","","","","","","","","","","","",""
"","","","","","60f08e2a0d6d27ff93244345","bdp_trlrn","Mon Mar 13 2023 14:25:59 GMT-0400 (Eastern Daylight Time)","389316","Untrustworthy,Trustworthy","instructions","1","5325","0.0-1.0","[{""page_index"":0,""viewing_time"":5321}]","5321","","","","","","","","","","","","","",""
"fullscreenenter","2","7246","fullscreenenter","","60f08e2a0d6d27ff93244345","bdp_trlrn","Mon Mar 13 2023 14:25:59 GMT-0400 (Eastern Daylight Time)","389316","Untrustworthy,Trustworthy","","","","","","","","","","","","","","","","","","","",""
"","","","","","60f08e2a0d6d27ff93244345","bdp_trlrn","Mon Mar 13 2023 14:25:59 GMT-0400 (Eastern Daylight Time)","389316","Untrustworthy,Trustworthy","fullscreen","2","8239","0.0-2.0","","","true","","","","","","","","","","","","",""
"","","","","","60f08e2a0d6d27ff93244345","bdp_trlrn","Mon Mar 13 2023 14:25:59 GMT-0400 (Eastern Daylight Time)","389316","Untrustworthy,Trustworthy","instructions","3","10135","0.0-4.0","[{""page_index"":0,""viewing_time"":10},{""page_index"":1,""viewing_time"":1885}]","1895","","","","","","","","","","","","","",""
"","","","","","60f08e2a0d6d27ff93244345","bdp_trlrn","Mon Mar 13 2023 14:25:59 GMT-0400 (Eastern Daylight Time)","389316","Untrustworthy,Trustworthy","instructions","4","11762","0.0-5.0","[{""page_index"":0,""viewing_time"":1627}]","1627","","","","","","","","","","","","","",""
"","","","rating","","60f08e2a0d6d27ff93244345","bdp_trlrn","Mon Mar 13 2023 14:25:59 GMT-0400 (Eastern Daylight Time)","389316","Untrustworthy,Trustworthy","image-keyboard-response","5","13537","0.0-6.0-1.0","","1673","","trustrating_stim/white_00757_941201_fa_edt.bmp","5","","","","","","","","","","",""
"","","","ratingFB","","60f08e2a0d6d27ff93244345","bdp_trlrn","Mon Mar 13 2023 14:25:59 GMT-0400 (Eastern Daylight Time)","389316","Untrustworthy,Trustworthy","image-keyboard-response","6","13742","0.0-6.0-2.0","","null","","trustrating_stim/white_00757_941201_fa_edt.bmp","null","","","","","","","","","","",""
"","","","rating","","60f08e2a0d6d27ff93244345","bdp_trlrn","Mon Mar 13 2023 14:25:59 GMT-0400 (Eastern Daylight Time)","389316","Untrustworthy,Trustworthy","image-keyboard-response","7","15990","0.0-6.0-1.1","","2143","","trustrating_stim/white_mw066.bmp","7","","","","","","","","","","",""
"","","","ratingFB","","60f08e2a0d6d27ff93244345","bdp_trlrn","Mon Mar 13 2023 14:25:59 GMT-0400 (Eastern Daylight Time)","389316","Untrustworthy,Trustworthy","image-keyboard-response","8","16191","0.0-6.0-2.1","","null","","trustrating_stim/white_mw066.bmp","null","","","","","","","","","","",""
"","","","rating","","60f08e2a0d6d27ff93244345","bdp_trlrn","Mon Mar 13 2023 14:25:59 GMT-0400 (Eastern Daylight Time)","389316","Untrustworthy,Trustworthy","image-keyboard-response","9","17196","0.0-6.0-1.2","","905","","trustrating_stim/white_00602_940928_fb_edt.bmp","7","","","","","","","","","","",""
"","","","ratingFB","","60f08e2a0d6d27ff93244345","bdp_trlrn","Mon Mar 13 2023 14:25:59 GMT-0400 (Eastern Daylight Time)","389316","Untrustworthy,Trustworthy","image-keyboard-response","10","17399","0.0-6.0-2.2","","null","","trustrating_stim/white_00602_940928_fb_edt.bmp","null","","","","","","","","","","",""
"","","","rating","","60f08e2a0d6d27ff93244345","bdp_trlrn","Mon Mar 13 2023 14:25:59 GMT-0400 (Eastern Daylight Time)","389316","Untrustworthy,Trustworthy","image-keyboard-response","11","18847","0.0-6.0-1.3","","1344","","trustrating_stim/white_mw089.bmp","3","","","","","","","","","","",""
"","","","ratingFB","","60f08e2a0d6d27ff93244345","bdp_trlrn","Mon Mar 13 2023 14:25:59 GMT-0400 (Eastern Daylight Time)","389316","Untrustworthy,Trustworthy","image-keyboard-response","12","19049","0.0-6.0-2.3","","null","","trustrating_stim/white_mw089.bmp","null","","","","","","","","","","",""
"","","","rating","","60f08e2a0d6d27ff93244345","bdp_trlrn","Mon Mar 13 2023 14:25:59 GMT-0400 (Eastern Daylight Time)","389316","Untrustworthy,Trustworthy","image-keyboard-response","13","20043","0.0-6.0-1.4","","889","","trustrating_stim/white_mw053.bmp","5","","","","","","","","","","",""
"","","","ratingFB","","60f08e2a0d6d27ff93244345","bdp_trlrn","Mon Mar 13 2023 14:25:59 GMT-0400 (Eastern Daylight Time)","389316","Untrustworthy,Trustworthy","image-keyboard-response","14","20248","0.0-6.0-2.4","","null","","trustrating_stim/white_mw053.bmp","null","","","","","","","","","","",""
"","","","rating","","60f08e2a0d6d27ff93244345","bdp_trlrn","Mon Mar 13 2023 14:25:59 GMT-0400 (Eastern Daylight Time)","389316","Untrustworthy,Trustworthy","image-keyboard-response","15","20812","0.0-6.0-1.5","","459","","trustrating_stim/white_00898_960530_fa_edt.bmp","7","","","","","","","","","","",""
"","","","ratingFB","","60f08e2a0d6d27ff93244345","bdp_trlrn","Mon Mar 13 2023 14:25:59 GMT-0400 (Eastern Daylight Time)","389316","Untrustworthy,Trustworthy","image-keyboard-response","16","21014","0.0-6.0-2.5","","null","","trustrating_stim/white_00898_960530_fa_edt.bmp","null","","","","","","","","","","",""
"","","","rating","","60f08e2a0d6d27ff93244345","bdp_trlrn","Mon Mar 13 2023 14:25:59 GMT-0400 (Eastern Daylight Time)","389316","Untrustworthy,Trustworthy","image-keyboard-response","17","21522","0.0-6.0-1.6","","403","","trustrating_stim/white_mw056.bmp","5","","","","","","","","","","",""
"","","","ratingFB","","60f08e2a0d6d27ff93244345","bdp_trlrn","Mon Mar 13 2023 14:25:59 GMT-0400 (Eastern Daylight Time)","389316","Untrustworthy,Trustworthy","image-keyboard-response","18","21725","0.0-6.0-2.6","","null","","trustrating_stim/white_mw056.bmp","null","","","","","","","","","","",""
"","","","rating","","60f08e2a0d6d27ff93244345","bdp_trlrn","Mon Mar 13 2023 14:25:59 GMT-0400 (Eastern Daylight Time)","389316","Untrustworthy,Trustworthy","image-keyboard-response","19","22129","0.0-6.0-1.7","","301","","trustrating_stim/white_mw099.bmp","3","","","","","","","","","","",""
"","","","ratingFB","","60f08e2a0d6d27ff93244345","bdp_trlrn","Mon Mar 13 2023 14:25:59 GMT-0400 (Eastern Daylight Time)","389316","Untrustworthy,Trustworthy","image-keyboard-response","20","22333","0.0-6.0-2.7","","null","","trustrating_stim/white_mw099.bmp","null","","","","","","","","","","",""
"","","","rating","","60f08e2a0d6d27ff93244345","bdp_trlrn","Mon Mar 13 2023 14:25:59 GMT-0400 (Eastern Daylight Time)","389316","Untrustworthy,Trustworthy","image-keyboard-response","21","22720","0.0-6.0-1.8","","284","","trustrating_stim/white_00109_931230_fa_edt.bmp","6","","","","","","","","","","",""
"","","","ratingFB","","60f08e2a0d6d27ff93244345","bdp_trlrn","Mon Mar 13 2023 14:25:59 GMT-0400 (Eastern Daylight Time)","389316","Untrustworthy,Trustworthy","image-keyboard-response","22","22924","0.0-6.0-2.8","","null","","trustrating_stim/white_00109_931230_fa_edt.bmp","null","","","","","","","","","","",""
"","","","rating","","60f08e2a0d6d27ff93244345","bdp_trlrn","Mon Mar 13 2023 14:25:59 GMT-0400 (Eastern Daylight Time)","389316","Untrustworthy,Trustworthy","image-keyboard-response","23","23382","0.0-6.0-1.9","","355","","trustrating_stim/white_00519_940519_fb_edt.bmp","8","","","","","","","","","","",""
"","","","ratingFB","","60f08e2a0d6d27ff93244345","bdp_trlrn","Mon Mar 13 2023 14:25:59 GMT-0400 (Eastern Daylight Time)","389316","Untrustworthy,Trustworthy","image-keyboard-response","24","23586","0.0-6.0-2.9","","null","","trustrating_stim/white_00519_940519_fb_edt.bmp","null","","","","","","","","","","",""
"","","","rating","","60f08e2a0d6d27ff93244345","bdp_trlrn","Mon Mar 13 2023 14:25:59 GMT-0400 (Eastern Daylight Time)","389316","Untrustworthy,Trustworthy","image-keyboard-response","25","24029","0.0-6.0-1.10","","341","","trustrating_stim/white_00340_940422_fa_edt.bmp","7","","","","","","","","","","",""
"","","","ratingFB","","60f08e2a0d6d27ff93244345","bdp_trlrn","Mon Mar 13 2023 14:25:59 GMT-0400 (Eastern Daylight Time)","389316","Untrustworthy,Trustworthy","image-keyboard-response","26","24233","0.0-6.0-2.10","","null","","trustrating_stim/white_00340_940422_fa_edt.bmp","null","","","","","","","","","","",""
"","","","rating","","60f08e2a0d6d27ff93244345","bdp_trlrn","Mon Mar 13 2023 14:25:59 GMT-0400 (Eastern Daylight Time)","389316","Untrustworthy,Trustworthy","image-keyboard-response","27","24659","0.0-6.0-1.11","","321","","trustrating_stim/white_mw035.bmp","6","","","","","","","","","","",""
"","","","ratingFB","","60f08e2a0d6d27ff93244345","bdp_trlrn","Mon Mar 13 2023 14:25:59 GMT-0400 (Eastern Daylight Time)","389316","Untrustworthy,Trustworthy","image-keyboard-response","28","24862","0.0-6.0-2.11","","null","","trustrating_stim/white_mw035.bmp","null","","","","","","","","","","",""
"","","","rating","","60f08e2a0d6d27ff93244345","bdp_trlrn","Mon Mar 13 2023 14:25:59 GMT-0400 (Eastern Daylight Time)","389316","Untrustworthy,Trustworthy","image-keyboard-response","29","25233","0.0-6.0-1.12","","265","","trustrating_stim/white_00807_941205_fb_edt.bmp","7","","","","","","","","","","",""
"","","","ratingFB","","60f08e2a0d6d27ff93244345","bdp_trlrn","Mon Mar 13 2023 14:25:59 GMT-0400 (Eastern Daylight Time)","389316","Untrustworthy,Trustworthy","image-keyboard-response","30","25436","0.0-6.0-2.12","","null","","trustrating_stim/white_00807_941205_fb_edt.bmp","null","","","","","","","","","","",""
"","","","rating","","60f08e2a0d6d27ff93244345","bdp_trlrn","Mon Mar 13 2023 14:25:59 GMT-0400 (Eastern Daylight Time)","389316","Untrustworthy,Trustworthy","image-keyboard-response","31","25873","0.0-6.0-1.13","","335","","trustrating_stim/white_00785_941205_fb_edt.bmp","5","","","","","","","","","","",""
"","","","ratingFB","","60f08e2a0d6d27ff93244345","bdp_trlrn","Mon Mar 13 2023 14:25:59 GMT-0400 (Eastern Daylight Time)","389316","Untrustworthy,Trustworthy","image-keyboard-response","32","26076","0.0-6.0-2.13","","null","","trustrating_stim/white_00785_941205_fb_edt.bmp","null","","","","","","","","","","",""
"","","","rating","","60f08e2a0d6d27ff93244345","bdp_trlrn","Mon Mar 13 2023 14:25:59 GMT-0400 (Eastern Daylight Time)","389316","Untrustworthy,Trustworthy","image-keyboard-response","33","26606","0.0-6.0-1.14","","427","","trustrating_stim/white_00223_940128_fb_edt.bmp","5","","","","","","","","","","",""
"","","","ratingFB","","60f08e2a0d6d27ff93244345","bdp_trlrn","Mon Mar 13 2023 14:25:59 GMT-0400 (Eastern Daylight Time)","389316","Untrustworthy,Trustworthy","image-keyboard-response","34","26808","0.0-6.0-2.14","","null","","trustrating_stim/white_00223_940128_fb_edt.bmp","null","","","","","","","","","","",""
"","","","rating","","60f08e2a0d6d27ff93244345","bdp_trlrn","Mon Mar 13 2023 14:25:59 GMT-0400 (Eastern Daylight Time)","389316","Untrustworthy,Trustworthy","image-keyboard-response","35","27295","0.0-6.0-1.15","","381","","trustrating_stim/white_mw049.bmp","1","","","","","","","","","","",""
"","","","ratingFB","","60f08e2a0d6d27ff93244345","bdp_trlrn","Mon Mar 13 2023 14:25:59 GMT-0400 (Eastern Daylight Time)","389316","Untrustworthy,Trustworthy","image-keyboard-response","36","27498","0.0-6.0-2.15","","null","","trustrating_stim/white_mw049.bmp","null","","","","","","","","","","",""
"","","","rating","","60f08e2a0d6d27ff93244345","bdp_trlrn","Mon Mar 13 2023 14:25:59 GMT-0400 (Eastern Daylight Time)","389316","Untrustworthy,Trustworthy","image-keyboard-response","37","27989","0.0-6.0-1.16","","387","","trustrating_stim/white_mw033.bmp","7","","","","","","","","","","",""
"","","","ratingFB","","60f08e2a0d6d27ff93244345","bdp_trlrn","Mon Mar 13 2023 14:25:59 GMT-0400 (Eastern Daylight Time)","389316","Untrustworthy,Trustworthy","image-keyboard-response","38","28189","0.0-6.0-2.16","","null","","trustrating_stim/white_mw033.bmp","null","","","","","","","","","","",""
"","","","rating","","60f08e2a0d6d27ff93244345","bdp_trlrn","Mon Mar 13 2023 14:25:59 GMT-0400 (Eastern Daylight Time)","389316","Untrustworthy,Trustworthy","image-keyboard-response","39","28715","0.0-6.0-1.17","","425","","trustrating_stim/white_00659_941121_fa_edt.bmp","6","","","","","","","","","","",""
"","","","ratingFB","","60f08e2a0d6d27ff93244345","bdp_trlrn","Mon Mar 13 2023 14:25:59 GMT-0400 (Eastern Daylight Time)","389316","Untrustworthy,Trustworthy","image-keyboard-response","40","28919","0.0-6.0-2.17","","null","","trustrating_stim/white_00659_941121_fa_edt.bmp","null","","","","","","","","","","",""
"","","","rating","","60f08e2a0d6d27ff93244345","bdp_trlrn","Mon Mar 13 2023 14:25:59 GMT-0400 (Eastern Daylight Time)","389316","Untrustworthy,Trustworthy","image-keyboard-response","41","29373","0.0-6.0-1.18","","352","","trustrating_stim/white_mw084.bmp","3","","","","","","","","","","",""
"","","","ratingFB","","60f08e2a0d6d27ff93244345","bdp_trlrn","Mon Mar 13 2023 14:25:59 GMT-0400 (Eastern Daylight Time)","389316","Untrustworthy,Trustworthy","image-keyboard-response","42","29578","0.0-6.0-2.18","","null","","trustrating_stim/white_mw084.bmp","null","","","","","","","","","","",""
"","","","rating","","60f08e2a0d6d27ff93244345","bdp_trlrn","Mon Mar 13 2023 14:25:59 GMT-0400 (Eastern Daylight Time)","389316","Untrustworthy,Trustworthy","image-keyboard-response","43","30179","0.0-6.0-1.19","","497","","trustrating_stim/white_mw071.bmp","5","","","","","","","","","","",""
"","","","ratingFB","","60f08e2a0d6d27ff93244345","bdp_trlrn","Mon Mar 13 2023 14:25:59 GMT-0400 (Eastern Daylight Time)","389316","Untrustworthy,Trustworthy","image-keyboard-response","44","30383","0.0-6.0-2.19","","null","","trustrating_stim/white_mw071.bmp","null","","","","","","","","","","",""
"","","","rating","","60f08e2a0d6d27ff93244345","bdp_trlrn","Mon Mar 13 2023 14:25:59 GMT-0400 (Eastern Daylight Time)","389316","Untrustworthy,Trustworthy","image-keyboard-response","45","30905","0.0-6.0-1.20","","418","","trustrating_stim/white_00129_931230_fb_edt.bmp","5","","","","","","","","","","",""
"","","","ratingFB","","60f08e2a0d6d27ff93244345","bdp_trlrn","Mon Mar 13 2023 14:25:59 GMT-0400 (Eastern Daylight Time)","389316","Untrustworthy,Trustworthy","image-keyboard-response","46","31107","0.0-6.0-2.20","","null","","trustrating_stim/white_00129_931230_fb_edt.bmp","null","","","","","","","","","","",""
"","","","rating","","60f08e2a0d6d27ff93244345","bdp_trlrn","Mon Mar 13 2023 14:25:59 GMT-0400 (Eastern Daylight Time)","389316","Untrustworthy,Trustworthy","image-keyboard-response","47","31456","0.0-6.0-1.21","","244","","trustrating_stim/white_mw063.bmp","1","","","","","","","","","","",""
"","","","ratingFB","","60f08e2a0d6d27ff93244345","bdp_trlrn","Mon Mar 13 2023 14:25:59 GMT-0400 (Eastern Daylight Time)","389316","Untrustworthy,Trustworthy","image-keyboard-response","48","31661","0.0-6.0-2.21","","null","","trustrating_stim/white_mw063.bmp","null","","","","","","","","","","",""
"","","","rating","","60f08e2a0d6d27ff93244345","bdp_trlrn","Mon Mar 13 2023 14:25:59 GMT-0400 (Eastern Daylight Time)","389316","Untrustworthy,Trustworthy","image-keyboard-response","49","32581","0.0-6.0-1.22","","818","","trustrating_stim/white_00120_931230_fa_edt.bmp","7","","","","","","","","","","",""
"","","","ratingFB","","60f08e2a0d6d27ff93244345","bdp_trlrn","Mon Mar 13 2023 14:25:59 GMT-0400 (Eastern Daylight Time)","389316","Untrustworthy,Trustworthy","image-keyboard-response","50","32785","0.0-6.0-2.22","","null","","trustrating_stim/white_00120_931230_fa_edt.bmp","null","","","","","","","","","","",""
"","","","rating","","60f08e2a0d6d27ff93244345","bdp_trlrn","Mon Mar 13 2023 14:25:59 GMT-0400 (Eastern Daylight Time)","389316","Untrustworthy,Trustworthy","image-keyboard-response","51","33316","0.0-6.0-1.23","","427","","trustrating_stim/white_00299_940422_fa_edt.bmp","6","","","","","","","","","","",""
"","","","ratingFB","","60f08e2a0d6d27ff93244345","bdp_trlrn","Mon Mar 13 2023 14:25:59 GMT-0400 (Eastern Daylight Time)","389316","Untrustworthy,Trustworthy","image-keyboard-response","52","33521","0.0-6.0-2.23","","null","","trustrating_stim/white_00299_940422_fa_edt.bmp","null","","","","","","","","","","",""
"","","","rating","","60f08e2a0d6d27ff93244345","bdp_trlrn","Mon Mar 13 2023 14:25:59 GMT-0400 (Eastern Daylight Time)","389316","Untrustworthy,Trustworthy","image-keyboard-response","53","33943","0.0-6.0-1.24","","318","","trustrating_stim/white_00577_940928_fa_edt.bmp","5","","","","","","","","","","",""
"","","","ratingFB","","60f08e2a0d6d27ff93244345","bdp_trlrn","Mon Mar 13 2023 14:25:59 GMT-0400 (Eastern Daylight Time)","389316","Untrustworthy,Trustworthy","image-keyboard-response","54","34149","0.0-6.0-2.24","","null","","trustrating_stim/white_00577_940928_fa_edt.bmp","null","","","","","","","","","","",""
"","","","rating","","60f08e2a0d6d27ff93244345","bdp_trlrn","Mon Mar 13 2023 14:25:59 GMT-0400 (Eastern Daylight Time)","389316","Untrustworthy,Trustworthy","image-keyboard-response","55","34599","0.0-6.0-1.25","","347","","trustrating_stim/white_mw046.bmp","8","","","","","","","","","","",""
"","","","ratingFB","","60f08e2a0d6d27ff93244345","bdp_trlrn","Mon Mar 13 2023 14:25:59 GMT-0400 (Eastern Daylight Time)","389316","Untrustworthy,Trustworthy","image-keyboard-response","56","34802","0.0-6.0-2.25","","null","","trustrating_stim/white_mw046.bmp","null","","","","","","","","","","",""
"","","","rating","","60f08e2a0d6d27ff93244345","bdp_trlrn","Mon Mar 13 2023 14:25:59 GMT-0400 (Eastern Daylight Time)","389316","Untrustworthy,Trustworthy","image-keyboard-response","57","35733","0.0-6.0-1.26","","825","","trustrating_stim/white_00761_941201_fb_edt.bmp","3","","","","","","","","","","",""
"","","","ratingFB","","60f08e2a0d6d27ff93244345","bdp_trlrn","Mon Mar 13 2023 14:25:59 GMT-0400 (Eastern Daylight Time)","389316","Untrustworthy,Trustworthy","image-keyboard-response","58","35938","0.0-6.0-2.26","","null","","trustrating_stim/white_00761_941201_fb_edt.bmp","null","","","","","","","","","","",""
"","","","rating","","60f08e2a0d6d27ff93244345","bdp_trlrn","Mon Mar 13 2023 14:25:59 GMT-0400 (Eastern Daylight Time)","389316","Untrustworthy,Trustworthy","image-keyboard-response","59","36602","0.0-6.0-1.27","","560","","trustrating_stim/white_mw097.bmp","6","","","","","","","","","","",""
"","","","ratingFB","","60f08e2a0d6d27ff93244345","bdp_trlrn","Mon Mar 13 2023 14:25:59 GMT-0400 (Eastern Daylight Time)","389316","Untrustworthy,Trustworthy","image-keyboard-response","60","36807","0.0-6.0-2.27","","null","","trustrating_stim/white_mw097.bmp","null","","","","","","","","","","",""
"","","","rating","","60f08e2a0d6d27ff93244345","bdp_trlrn","Mon Mar 13 2023 14:25:59 GMT-0400 (Eastern Daylight Time)","389316","Untrustworthy,Trustworthy","image-keyboard-response","61","37671","0.0-6.0-1.28","","760","","trustrating_stim/white_mw048.bmp","3","","","","","","","","","","",""
"","","","ratingFB","","60f08e2a0d6d27ff93244345","bdp_trlrn","Mon Mar 13 2023 14:25:59 GMT-0400 (Eastern Daylight Time)","389316","Untrustworthy,Trustworthy","image-keyboard-response","62","37873","0.0-6.0-2.28","","null","","trustrating_stim/white_mw048.bmp","null","","","","","","","","","","",""
"","","","rating","","60f08e2a0d6d27ff93244345","bdp_trlrn","Mon Mar 13 2023 14:25:59 GMT-0400 (Eastern Daylight Time)","389316","Untrustworthy,Trustworthy","image-keyboard-response","63","39099","0.0-6.0-1.29","","1121","","trustrating_stim/white_mw060.bmp","1","","","","","","","","","","",""
"","","","ratingFB","","60f08e2a0d6d27ff93244345","bdp_trlrn","Mon Mar 13 2023 14:25:59 GMT-0400 (Eastern Daylight Time)","389316","Untrustworthy,Trustworthy","image-keyboard-response","64","39302","0.0-6.0-2.29","","null","","trustrating_stim/white_mw060.bmp","null","","","","","","","","","","",""
"","","","rating","","60f08e2a0d6d27ff93244345","bdp_trlrn","Mon Mar 13 2023 14:25:59 GMT-0400 (Eastern Daylight Time)","389316","Untrustworthy,Trustworthy","image-keyboard-response","65","40488","0.0-6.0-1.30","","1083","","trustrating_stim/white_mw053.bmp","7","","","","","","","","","","",""
"","","","ratingFB","","60f08e2a0d6d27ff93244345","bdp_trlrn","Mon Mar 13 2023 14:25:59 GMT-0400 (Eastern Daylight Time)","389316","Untrustworthy,Trustworthy","image-keyboard-response","66","40689","0.0-6.0-2.30","","null","","trustrating_stim/white_mw053.bmp","null","","","","","","","","","","",""
"","","","rating","","60f08e2a0d6d27ff93244345","bdp_trlrn","Mon Mar 13 2023 14:25:59 GMT-0400 (Eastern Daylight Time)","389316","Untrustworthy,Trustworthy","image-keyboard-response","67","41447","0.0-6.0-1.31","","656","","trustrating_stim/white_00807_941205_fb_edt.bmp","1","","","","","","","","","","",""
"","","","ratingFB","","60f08e2a0d6d27ff93244345","bdp_trlrn","Mon Mar 13 2023 14:25:59 GMT-0400 (Eastern Daylight Time)","389316","Untrustworthy,Trustworthy","image-keyboard-response","68","41652","0.0-6.0-2.31","","null","","trustrating_stim/white_00807_941205_fb_edt.bmp","null","","","","","","","","","","",""
"","","","rating","","60f08e2a0d6d27ff93244345","bdp_trlrn","Mon Mar 13 2023 14:25:59 GMT-0400 (Eastern Daylight Time)","389316","Untrustworthy,Trustworthy","image-keyboard-response","69","42508","0.0-6.0-1.32","","753","","trustrating_stim/white_00785_941205_fb_edt.bmp","1","","","","","","","","","","",""
"","","","ratingFB","","60f08e2a0d6d27ff93244345","bdp_trlrn","Mon Mar 13 2023 14:25:59 GMT-0400 (Eastern Daylight Time)","389316","Untrustworthy,Trustworthy","image-keyboard-response","70","42713","0.0-6.0-2.32","","null","","trustrating_stim/white_00785_941205_fb_edt.bmp","null","","","","","","","","","","",""
"","","","rating","","60f08e2a0d6d27ff93244345","bdp_trlrn","Mon Mar 13 2023 14:25:59 GMT-0400 (Eastern Daylight Time)","389316","Untrustworthy,Trustworthy","image-keyboard-response","71","43685","0.0-6.0-1.33","","866","","trustrating_stim/white_00757_941201_fa_edt.bmp","6","","","","","","","","","","",""
"","","","ratingFB","","60f08e2a0d6d27ff93244345","bdp_trlrn","Mon Mar 13 2023 14:25:59 GMT-0400 (Eastern Daylight Time)","389316","Untrustworthy,Trustworthy","image-keyboard-response","72","43888","0.0-6.0-2.33","","null","","trustrating_stim/white_00757_941201_fa_edt.bmp","null","","","","","","","","","","",""
"","","","rating","","60f08e2a0d6d27ff93244345","bdp_trlrn","Mon Mar 13 2023 14:25:59 GMT-0400 (Eastern Daylight Time)","389316","Untrustworthy,Trustworthy","image-keyboard-response","73","49997","0.0-6.0-1.34","","6007","","trustrating_stim/white_00761_941201_fb_edt.bmp","2","","","","","","","","","","",""
"","","","ratingFB","","60f08e2a0d6d27ff93244345","bdp_trlrn","Mon Mar 13 2023 14:25:59 GMT-0400 (Eastern Daylight Time)","389316","Untrustworthy,Trustworthy","image-keyboard-response","74","50199","0.0-6.0-2.34","","null","","trustrating_stim/white_00761_941201_fb_edt.bmp","null","","","","","","","","","","",""
"","","","rating","","60f08e2a0d6d27ff93244345","bdp_trlrn","Mon Mar 13 2023 14:25:59 GMT-0400 (Eastern Daylight Time)","389316","Untrustworthy,Trustworthy","image-keyboard-response","75","50957","0.0-6.0-1.35","","655","","trustrating_stim/white_mw056.bmp","1","","","","","","","","","","",""
"","","","ratingFB","","60f08e2a0d6d27ff93244345","bdp_trlrn","Mon Mar 13 2023 14:25:59 GMT-0400 (Eastern Daylight Time)","389316","Untrustworthy,Trustworthy","image-keyboard-response","76","51161","0.0-6.0-2.35","","null","","trustrating_stim/white_mw056.bmp","null","","","","","","","","","","",""
"","","","rating","","60f08e2a0d6d27ff93244345","bdp_trlrn","Mon Mar 13 2023 14:25:59 GMT-0400 (Eastern Daylight Time)","389316","Untrustworthy,Trustworthy","image-keyboard-response","77","51943","0.0-6.0-1.36","","677","","trustrating_stim/white_mw097.bmp","1","","","","","","","","","","",""
"","","","ratingFB","","60f08e2a0d6d27ff93244345","bdp_trlrn","Mon Mar 13 2023 14:25:59 GMT-0400 (Eastern Daylight Time)","389316","Untrustworthy,Trustworthy","image-keyboard-response","78","52145","0.0-6.0-2.36","","null","","trustrating_stim/white_mw097.bmp","null","","","","","","","","","","",""
"","","","rating","","60f08e2a0d6d27ff93244345","bdp_trlrn","Mon Mar 13 2023 14:25:59 GMT-0400 (Eastern Daylight Time)","389316","Untrustworthy,Trustworthy","image-keyboard-response","79","53107","0.0-6.0-1.37","","855","","trustrating_stim/white_mw099.bmp","1","","","","","","","","","","",""
"","","","ratingFB","","60f08e2a0d6d27ff93244345","bdp_trlrn","Mon Mar 13 2023 14:25:59 GMT-0400 (Eastern Daylight Time)","389316","Untrustworthy,Trustworthy","image-keyboard-response","80","53313","0.0-6.0-2.37","","null","","trustrating_stim/white_mw099.bmp","null","","","","","","","","","","",""
"","","","rating","","60f08e2a0d6d27ff93244345","bdp_trlrn","Mon Mar 13 2023 14:25:59 GMT-0400 (Eastern Daylight Time)","389316","Untrustworthy,Trustworthy","image-keyboard-response","81","54188","0.0-6.0-1.38","","767","","trustrating_stim/white_mw046.bmp","2","","","","","","","","","","",""
"","","","ratingFB","","60f08e2a0d6d27ff93244345","bdp_trlrn","Mon Mar 13 2023 14:25:59 GMT-0400 (Eastern Daylight Time)","389316","Untrustworthy,Trustworthy","image-keyboard-response","82","54389","0.0-6.0-2.38","","null","","trustrating_stim/white_mw046.bmp","null","","","","","","","","","","",""
"","","","rating","","60f08e2a0d6d27ff93244345","bdp_trlrn","Mon Mar 13 2023 14:25:59 GMT-0400 (Eastern Daylight Time)","389316","Untrustworthy,Trustworthy","image-keyboard-response","83","55110","0.0-6.0-1.39","","620","","trustrating_stim/white_mw089.bmp","3","","","","","","","","","","",""
"","","","ratingFB","","60f08e2a0d6d27ff93244345","bdp_trlrn","Mon Mar 13 2023 14:25:59 GMT-0400 (Eastern Daylight Time)","389316","Untrustworthy,Trustworthy","image-keyboard-response","84","55314","0.0-6.0-2.39","","null","","trustrating_stim/white_mw089.bmp","null","","","","","","","","","","",""
"","","","rating","","60f08e2a0d6d27ff93244345","bdp_trlrn","Mon Mar 13 2023 14:25:59 GMT-0400 (Eastern Daylight Time)","389316","Untrustworthy,Trustworthy","image-keyboard-response","85","55790","0.0-6.0-1.40","","370","","trustrating_stim/white_mw033.bmp","5","","","","","","","","","","",""
"","","","ratingFB","","60f08e2a0d6d27ff93244345","bdp_trlrn","Mon Mar 13 2023 14:25:59 GMT-0400 (Eastern Daylight Time)","389316","Untrustworthy,Trustworthy","image-keyboard-response","86","55991","0.0-6.0-2.40","","null","","trustrating_stim/white_mw033.bmp","null","","","","","","","","","","",""
"","","","rating","","60f08e2a0d6d27ff93244345","bdp_trlrn","Mon Mar 13 2023 14:25:59 GMT-0400 (Eastern Daylight Time)","389316","Untrustworthy,Trustworthy","image-keyboard-response","87","56895","0.0-6.0-1.41","","803","","trustrating_stim/white_00109_931230_fa_edt.bmp","6","","","","","","","","","","",""
"","","","ratingFB","","60f08e2a0d6d27ff93244345","bdp_trlrn","Mon Mar 13 2023 14:25:59 GMT-0400 (Eastern Daylight Time)","389316","Untrustworthy,Trustworthy","image-keyboard-response","88","57097","0.0-6.0-2.41","","null","","trustrating_stim/white_00109_931230_fa_edt.bmp","null","","","","","","","","","","",""
"","","","rating","","60f08e2a0d6d27ff93244345","bdp_trlrn","Mon Mar 13 2023 14:25:59 GMT-0400 (Eastern Daylight Time)","389316","Untrustworthy,Trustworthy","image-keyboard-response","89","58083","0.0-6.0-1.42","","881","","trustrating_stim/white_00659_941121_fa_edt.bmp","5","","","","","","","","","","",""
"","","","ratingFB","","60f08e2a0d6d27ff93244345","bdp_trlrn","Mon Mar 13 2023 14:25:59 GMT-0400 (Eastern Daylight Time)","389316","Untrustworthy,Trustworthy","image-keyboard-response","90","58285","0.0-6.0-2.42","","null","","trustrating_stim/white_00659_941121_fa_edt.bmp","null","","","","","","","","","","",""
"","","","rating","","60f08e2a0d6d27ff93244345","bdp_trlrn","Mon Mar 13 2023 14:25:59 GMT-0400 (Eastern Daylight Time)","389316","Untrustworthy,Trustworthy","image-keyboard-response","91","59110","0.0-6.0-1.43","","722","","trustrating_stim/white_mw035.bmp","6","","","","","","","","","","",""
"","","","ratingFB","","60f08e2a0d6d27ff93244345","bdp_trlrn","Mon Mar 13 2023 14:25:59 GMT-0400 (Eastern Daylight Time)","389316","Untrustworthy,Trustworthy","image-keyboard-response","92","59314","0.0-6.0-2.43","","null","","trustrating_stim/white_mw035.bmp","null","","","","","","","","","","",""
"","","","rating","","60f08e2a0d6d27ff93244345","bdp_trlrn","Mon Mar 13 2023 14:25:59 GMT-0400 (Eastern Daylight Time)","389316","Untrustworthy,Trustworthy","image-keyboard-response","93","59863","0.0-6.0-1.44","","442","","trustrating_stim/white_mw066.bmp","3","","","","","","","","","","",""
"","","","ratingFB","","60f08e2a0d6d27ff93244345","bdp_trlrn","Mon Mar 13 2023 14:25:59 GMT-0400 (Eastern Daylight Time)","389316","Untrustworthy,Trustworthy","image-keyboard-response","94","60068","0.0-6.0-2.44","","null","","trustrating_stim/white_mw066.bmp","null","","","","","","","","","","",""
"","","","rating","","60f08e2a0d6d27ff93244345","bdp_trlrn","Mon Mar 13 2023 14:25:59 GMT-0400 (Eastern Daylight Time)","389316","Untrustworthy,Trustworthy","image-keyboard-response","95","60821","0.0-6.0-1.45","","649","","trustrating_stim/white_00577_940928_fa_edt.bmp","3","","","","","","","","","","",""
"","","","ratingFB","","60f08e2a0d6d27ff93244345","bdp_trlrn","Mon Mar 13 2023 14:25:59 GMT-0400 (Eastern Daylight Time)","389316","Untrustworthy,Trustworthy","image-keyboard-response","96","61024","0.0-6.0-2.45","","null","","trustrating_stim/white_00577_940928_fa_edt.bmp","null","","","","","","","","","","",""
"","","","rating","","60f08e2a0d6d27ff93244345","bdp_trlrn","Mon Mar 13 2023 14:25:59 GMT-0400 (Eastern Daylight Time)","389316","Untrustworthy,Trustworthy","image-keyboard-response","97","61740","0.0-6.0-1.46","","609","","trustrating_stim/white_mw084.bmp","3","","","","","","","","","","",""
"","","","ratingFB","","60f08e2a0d6d27ff93244345","bdp_trlrn","Mon Mar 13 2023 14:25:59 GMT-0400 (Eastern Daylight Time)","389316","Untrustworthy,Trustworthy","image-keyboard-response","98","61944","0.0-6.0-2.46","","null","","trustrating_stim/white_mw084.bmp","null","","","","","","","","","","",""
"","","","rating","","60f08e2a0d6d27ff93244345","bdp_trlrn","Mon Mar 13 2023 14:25:59 GMT-0400 (Eastern Daylight Time)","389316","Untrustworthy,Trustworthy","image-keyboard-response","99","62529","0.0-6.0-1.47","","479","","trustrating_stim/white_mw048.bmp","2","","","","","","","","","","",""
"","","","ratingFB","","60f08e2a0d6d27ff93244345","bdp_trlrn","Mon Mar 13 2023 14:25:59 GMT-0400 (Eastern Daylight Time)","389316","Untrustworthy,Trustworthy","image-keyboard-response","100","62731","0.0-6.0-2.47","","null","","trustrating_stim/white_mw048.bmp","null","","","","","","","","","","",""
"","","","rating","","60f08e2a0d6d27ff93244345","bdp_trlrn","Mon Mar 13 2023 14:25:59 GMT-0400 (Eastern Daylight Time)","389316","Untrustworthy,Trustworthy","image-keyboard-response","101","63484","0.0-6.0-1.48","","649","","trustrating_stim/white_mw063.bmp","3","","","","","","","","","","",""
"","","","ratingFB","","60f08e2a0d6d27ff93244345","bdp_trlrn","Mon Mar 13 2023 14:25:59 GMT-0400 (Eastern Daylight Time)","389316","Untrustworthy,Trustworthy","image-keyboard-response","102","63686","0.0-6.0-2.48","","null","","trustrating_stim/white_mw063.bmp","null","","","","","","","","","","",""
"","","","rating","","60f08e2a0d6d27ff93244345","bdp_trlrn","Mon Mar 13 2023 14:25:59 GMT-0400 (Eastern Daylight Time)","389316","Untrustworthy,Trustworthy","image-keyboard-response","103","64433","0.0-6.0-1.49","","645","","trustrating_stim/white_00120_931230_fa_edt.bmp","3","","","","","","","","","","",""
"","","","ratingFB","","60f08e2a0d6d27ff93244345","bdp_trlrn","Mon Mar 13 2023 14:25:59 GMT-0400 (Eastern Daylight Time)","389316","Untrustworthy,Trustworthy","image-keyboard-response","104","64637","0.0-6.0-2.49","","null","","trustrating_stim/white_00120_931230_fa_edt.bmp","null","","","","","","","","","","",""
"","","","rating","","60f08e2a0d6d27ff93244345","bdp_trlrn","Mon Mar 13 2023 14:25:59 GMT-0400 (Eastern Daylight Time)","389316","Untrustworthy,Trustworthy","image-keyboard-response","105","65038","0.0-6.0-1.50","","295","","trustrating_stim/white_00519_940519_fb_edt.bmp","2","","","","","","","","","","",""
"","","","ratingFB","","60f08e2a0d6d27ff93244345","bdp_trlrn","Mon Mar 13 2023 14:25:59 GMT-0400 (Eastern Daylight Time)","389316","Untrustworthy,Trustworthy","image-keyboard-response","106","65240","0.0-6.0-2.50","","null","","trustrating_stim/white_00519_940519_fb_edt.bmp","null","","","","","","","","","","",""
"","","","rating","","60f08e2a0d6d27ff93244345","bdp_trlrn","Mon Mar 13 2023 14:25:59 GMT-0400 (Eastern Daylight Time)","389316","Untrustworthy,Trustworthy","image-keyboard-response","107","66640","0.0-6.0-1.51","","1292","","trustrating_stim/white_00898_960530_fa_edt.bmp","2","","","","","","","","","","",""
"","","","ratingFB","","60f08e2a0d6d27ff93244345","bdp_trlrn","Mon Mar 13 2023 14:25:59 GMT-0400 (Eastern Daylight Time)","389316","Untrustworthy,Trustworthy","image-keyboard-response","108","66845","0.0-6.0-2.51","","null","","trustrating_stim/white_00898_960530_fa_edt.bmp","null","","","","","","","","","","",""
"","","","rating","","60f08e2a0d6d27ff93244345","bdp_trlrn","Mon Mar 13 2023 14:25:59 GMT-0400 (Eastern Daylight Time)","389316","Untrustworthy,Trustworthy","image-keyboard-response","109","68019","0.0-6.0-1.52","","1068","","trustrating_stim/white_00299_940422_fa_edt.bmp","1","","","","","","","","","","",""
"","","","ratingFB","","60f08e2a0d6d27ff93244345","bdp_trlrn","Mon Mar 13 2023 14:25:59 GMT-0400 (Eastern Daylight Time)","389316","Untrustworthy,Trustworthy","image-keyboard-response","110","68225","0.0-6.0-2.52","","null","","trustrating_stim/white_00299_940422_fa_edt.bmp","null","","","","","","","","","","",""
"","","","rating","","60f08e2a0d6d27ff93244345","bdp_trlrn","Mon Mar 13 2023 14:25:59 GMT-0400 (Eastern Daylight Time)","389316","Untrustworthy,Trustworthy","image-keyboard-response","111","68870","0.0-6.0-1.53","","541","","trustrating_stim/white_mw071.bmp","2","","","","","","","","","","",""
"","","","ratingFB","","60f08e2a0d6d27ff93244345","bdp_trlrn","Mon Mar 13 2023 14:25:59 GMT-0400 (Eastern Daylight Time)","389316","Untrustworthy,Trustworthy","image-keyboard-response","112","69073","0.0-6.0-2.53","","null","","trustrating_stim/white_mw071.bmp","null","","","","","","","","","","",""
"","","","rating","","60f08e2a0d6d27ff93244345","bdp_trlrn","Mon Mar 13 2023 14:25:59 GMT-0400 (Eastern Daylight Time)","389316","Untrustworthy,Trustworthy","image-keyboard-response","113","69897","0.0-6.0-1.54","","718","","trustrating_stim/white_00223_940128_fb_edt.bmp","6","","","","","","","","","","",""
"","","","ratingFB","","60f08e2a0d6d27ff93244345","bdp_trlrn","Mon Mar 13 2023 14:25:59 GMT-0400 (Eastern Daylight Time)","389316","Untrustworthy,Trustworthy","image-keyboard-response","114","70100","0.0-6.0-2.54","","null","","trustrating_stim/white_00223_940128_fb_edt.bmp","null","","","","","","","","","","",""
"","","","rating","","60f08e2a0d6d27ff93244345","bdp_trlrn","Mon Mar 13 2023 14:25:59 GMT-0400 (Eastern Daylight Time)","389316","Untrustworthy,Trustworthy","image-keyboard-response","115","71037","0.0-6.0-1.55","","832","","trustrating_stim/white_mw060.bmp","2","","","","","","","","","","",""
"","","","ratingFB","","60f08e2a0d6d27ff93244345","bdp_trlrn","Mon Mar 13 2023 14:25:59 GMT-0400 (Eastern Daylight Time)","389316","Untrustworthy,Trustworthy","image-keyboard-response","116","71239","0.0-6.0-2.55","","null","","trustrating_stim/white_mw060.bmp","null","","","","","","","","","","",""
"","","","rating","","60f08e2a0d6d27ff93244345","bdp_trlrn","Mon Mar 13 2023 14:25:59 GMT-0400 (Eastern Daylight Time)","389316","Untrustworthy,Trustworthy","image-keyboard-response","117","72103","0.0-6.0-1.56","","762","","trustrating_stim/white_mw049.bmp","3","","","","","","","","","","",""
"","","","ratingFB","","60f08e2a0d6d27ff93244345","bdp_trlrn","Mon Mar 13 2023 14:25:59 GMT-0400 (Eastern Daylight Time)","389316","Untrustworthy,Trustworthy","image-keyboard-response","118","72305","0.0-6.0-2.56","","null","","trustrating_stim/white_mw049.bmp","null","","","","","","","","","","",""
"","","","rating","","60f08e2a0d6d27ff93244345","bdp_trlrn","Mon Mar 13 2023 14:25:59 GMT-0400 (Eastern Daylight Time)","389316","Untrustworthy,Trustworthy","image-keyboard-response","119","73303","0.0-6.0-1.57","","893","","trustrating_stim/white_00129_931230_fb_edt.bmp","7","","","","","","","","","","",""
"","","","ratingFB","","60f08e2a0d6d27ff93244345","bdp_trlrn","Mon Mar 13 2023 14:25:59 GMT-0400 (Eastern Daylight Time)","389316","Untrustworthy,Trustworthy","image-keyboard-response","120","73506","0.0-6.0-2.57","","null","","trustrating_stim/white_00129_931230_fb_edt.bmp","null","","","","","","","","","","",""
"","","","rating","","60f08e2a0d6d27ff93244345","bdp_trlrn","Mon Mar 13 2023 14:25:59 GMT-0400 (Eastern Daylight Time)","389316","Untrustworthy,Trustworthy","image-keyboard-response","121","74492","0.0-6.0-1.58","","879","","trustrating_stim/white_00602_940928_fb_edt.bmp","7","","","","","","","","","","",""
"","","","ratingFB","","60f08e2a0d6d27ff93244345","bdp_trlrn","Mon Mar 13 2023 14:25:59 GMT-0400 (Eastern Daylight Time)","389316","Untrustworthy,Trustworthy","image-keyboard-response","122","74694","0.0-6.0-2.58","","null","","trustrating_stim/white_00602_940928_fb_edt.bmp","null","","","","","","","","","","",""
"","","","rating","","60f08e2a0d6d27ff93244345","bdp_trlrn","Mon Mar 13 2023 14:25:59 GMT-0400 (Eastern Daylight Time)","389316","Untrustworthy,Trustworthy","image-keyboard-response","123","75745","0.0-6.0-1.59","","945","","trustrating_stim/white_00340_940422_fa_edt.bmp","3","","","","","","","","","","",""
"","","","ratingFB","","60f08e2a0d6d27ff93244345","bdp_trlrn","Mon Mar 13 2023 14:25:59 GMT-0400 (Eastern Daylight Time)","389316","Untrustworthy,Trustworthy","image-keyboard-response","124","75950","0.0-6.0-2.59","","null","","trustrating_stim/white_00340_940422_fa_edt.bmp","null","","","","","","","","","","",""
"","","","","","60f08e2a0d6d27ff93244345","bdp_trlrn","Mon Mar 13 2023 14:25:59 GMT-0400 (Eastern Daylight Time)","389316","Untrustworthy,Trustworthy","instructions","125","78179","0.0-7.0","[{""page_index"":0,""viewing_time"":2127}]","2127","","","","","","","","","","","","","",""
"","","","","","60f08e2a0d6d27ff93244345","bdp_trlrn","Mon Mar 13 2023 14:25:59 GMT-0400 (Eastern Daylight Time)","389316","Untrustworthy,Trustworthy","instructions","126","117379","0.0-8.0","[{""page_index"":0,""viewing_time"":19350},{""page_index"":1,""viewing_time"":2023},{""page_index"":2,""viewing_time"":3204},{""page_index"":3,""viewing_time"":5133},{""page_index"":4,""viewing_time"":1954},{""page_index"":5,""viewing_time"":1883},{""page_index"":6,""viewing_time"":2788},{""page_index"":7,""viewing_time"":2761}]","39096","","","","","","","","","","","","","",""
"","","","","","60f08e2a0d6d27ff93244345","bdp_trlrn","Mon Mar 13 2023 14:25:59 GMT-0400 (Eastern Daylight Time)","389316","Untrustworthy,Trustworthy","html-keyboard-response","127","120585","0.0-9.0","","3204","","<div class='header' style='text-align:left; position: absolute; top: 5%; left: 5%;'><small>Task 3 of 5</small></div><div class='instruxDiv'><p><strong>1) What is the minimum number of points you can choose to send to your partner?</strong></p><p>a) 0</p><p>b) 1</p><p>c) 5</p>","C","","","","","","","","","","",""
"","","","","","60f08e2a0d6d27ff93244345","bdp_trlrn","Mon Mar 13 2023 14:25:59 GMT-0400 (Eastern Daylight Time)","389316","Untrustworthy,Trustworthy","html-keyboard-response","128","125634","0.0-10.0","","4948","","<div class='header' style='text-align:left; position: absolute; top: 5%; left: 5%;'><small>Task 3 of 5</small></div><div class='instruxDiv'><p><strong>1) What is the minimum number of points you can choose to send to your partner?</strong></p><p>a) 1</p><p>b) 1</p><p style='color:#FF0000'>c) 5</p><h3 style='color:#FF0000'>Incorrect!</h3><h3 class='center-content'>The correct response is b).</h3><h3 class='center-content'>The minimum number of points you can choose to send to your partner is 1 point.</h3><p><em>Press SPACEBAR to continue</em></p></div>"," ","","","","","","","","","","",""
"","","","","","60f08e2a0d6d27ff93244345","bdp_trlrn","Mon Mar 13 2023 14:25:59 GMT-0400 (Eastern Daylight Time)","389316","Untrustworthy,Trustworthy","html-keyboard-response","129","130716","0.0-11.0","","4977","","<div class='header' style='text-align:left; position: absolute; top: 5%; left: 5%;'><small>Task 3 of 5</small></div><div class='instruxDiv'><p><strong>2) What is the maximum number of points you can choose to send to your partner?</strong></p><p>a) 8</p><p>b) 5</p><p>c) 3</p>","B","","","","","","","","","","",""
"","","","","","60f08e2a0d6d27ff93244345","bdp_trlrn","Mon Mar 13 2023 14:25:59 GMT-0400 (Eastern Daylight Time)","389316","Untrustworthy,Trustworthy","html-keyboard-response","130","131952","0.0-12.0","","1130","","<div class='header' style='text-align:left; position: absolute; top: 5%; left: 5%;'><small>Task 3 of 5</small></div><div class='instruxDiv'><p><strong>2) What is the maximum number of points you can choose to send to your partner?</strong></p><p>a) 8</p><p style='color:#00FF00'>b) 5</p><p>c) 3</p><h3 style='color:#00FF00'>Correct!</h3><h3 class='center-content'>The correct response is b).</h3><h3 class='center-content'>The maximum number of points you can choose to send to your partner is 5 points.</h3><p><em>Press SPACEBAR to continue</em></p></div>"," ","","","","","","","","","","",""
"","","","","","60f08e2a0d6d27ff93244345","bdp_trlrn","Mon Mar 13 2023 14:25:59 GMT-0400 (Eastern Daylight Time)","389316","Untrustworthy,Trustworthy","html-keyboard-response","131","134866","0.0-13.0","","2811","","<div class='header' style='text-align:left; position: absolute; top: 5%; left: 5%;'><small>Task 3 of 5</small></div><div class='instruxDiv'><p><strong>3) What happens to the amount of points you send to your partner?</strong></p><p>a) Nothing</p><p>b) It doubles</p><p>c) It quadruples</p>","C","","","","","","","","","","",""
"","","","","","60f08e2a0d6d27ff93244345","bdp_trlrn","Mon Mar 13 2023 14:25:59 GMT-0400 (Eastern Daylight Time)","389316","Untrustworthy,Trustworthy","html-keyboard-response","132","135547","0.0-14.0","","576","","<div class='header' style='text-align:left; position: absolute; top: 5%; left: 5%;'><small>Task 3 of 5</small></div><div class='instruxDiv'><p><strong>3) What happens to the amount of points you send to your partner?</strong></p><p>a) Nothing</p><p>b) It doubles</p><p style='color:#00FF00'>c) It quadruples</p><h3 style='color:#00FF00'>Correct!</h3><h3 class='center-content'>The correct response is c).</h3><h3 class='center-content'>The amount of points you send to your partner quadruples.</h3><p><em>Press SPACEBAR to continue</em></p></div>"," ","","","","","","","","","","",""
"","","","","","60f08e2a0d6d27ff93244345","bdp_trlrn","Mon Mar 13 2023 14:25:59 GMT-0400 (Eastern Daylight Time)","389316","Untrustworthy,Trustworthy","html-keyboard-response","133","147916","0.0-15.0","","12266","","<div class='header' style='text-align:left; position: absolute; top: 5%; left: 5%;'><small>Task 3 of 5</small></div><div class='instruxDiv'><p><strong>4) If you decided to share 4 out of 5 points with your partner, and they decided to share half of the amount they received with you, how many points would you receive back from them on this round?</strong></p><p>a) 16</p><p>b) 0</p><p>c) 8</p>","C","","","","","","","","","","",""
"","","","","","60f08e2a0d6d27ff93244345","bdp_trlrn","Mon Mar 13 2023 14:25:59 GMT-0400 (Eastern Daylight Time)","389316","Untrustworthy,Trustworthy","html-keyboard-response","134","149048","0.0-16.0","","1031","","<div class='header' style='text-align:left; position: absolute; top: 5%; left: 5%;'><small>Task 3 of 5</small></div><div class='instruxDiv'><p><strong>4) If you decided to share 4 out of 5 points with your partner, and they decided to share half of the amount they received with you, how many points would you receive back from them on this round?</strong></p><p>a) 16</p><p>b) 0</p><p style='color:#00FF00'>c) 8</p><h3 style='color:#00FF00'>Correct!</h3><h3 class='center-content'>The correct response is c).</h3><h3 class='center-content'>If you shared 4 out of 5 points with your partner and they decided to share half of the amount they received with you, you would receive 8 points back (i.e. (4 x 4)/2 = 8).</h3><p><em>Press SPACEBAR to continue</em></p></div>"," ","","","","","","","","","","",""
"","","","","","60f08e2a0d6d27ff93244345","bdp_trlrn","Mon Mar 13 2023 14:25:59 GMT-0400 (Eastern Daylight Time)","389316","Untrustworthy,Trustworthy","html-keyboard-response","135","154157","0.0-17.0","","null","","<div class='header' style='text-align:left; position: absolute; top: 5%; left: 5%;'><small>Task 3 of 5</small></div><div class='instruxDiv'><p>Thank you for completing the quiz<p>These are the actual partners you will be interacting with in the next block:<p><div class='tc' align='center'><img class='introPic' src='trustrating_stim/white_mw060.bmp'><br><strong>Devin</strong></div><div class='bl' align='center'><img class='introPic' src='trustrating_stim/white_00807_941205_fb_edt.bmp'><br><strong>Lucas</strong></div><div class='br' align='center'><img class='introPic' src='trustrating_stim/white_00602_940928_fb_edt.bmp'><br><strong>Matthew</strong></div></div><p>Across <strong>66 rounds</strong> you will interact with each partner <strong>22 times</strong> (in random order).<p style='align:center; color:white'><font <em>Press SPACEBAR to continue</em></p>","null","","","","","","","","","","",""
"","","","","","60f08e2a0d6d27ff93244345","bdp_trlrn","Mon Mar 13 2023 14:25:59 GMT-0400 (Eastern Daylight Time)","389316","Untrustworthy,Trustworthy","instructions","136","156460","0.0-18.0","[{""page_index"":0,""viewing_time"":1286},{""page_index"":1,""viewing_time"":1016}]","2302","","","","","","","","","","","","","",""
"","","","decision","","60f08e2a0d6d27ff93244345","bdp_trlrn","Mon Mar 13 2023 14:25:59 GMT-0400 (Eastern Daylight Time)","389316","Untrustworthy,Trustworthy","html-keyboard-response","137","157586","0.0-19.0-1.0","","1021","","<div class='trialDiv'><img src='trustrating_stim/white_00602_940928_fb_edt.bmp'><br><font class='baseline'><strong>Matthew</strong><p>Choose number of points to send.</font><div class='respPicDiv'><img src='img/responseButtonOffersNo0L.png' class='respPic'></div></div>","3","1","Matthew","11","Kept","0.2,0.65","10","0.2","trustrating_stim/white_00602_940928_fb_edt.bmp","7","5","1"
"","","","decisionFB","","60f08e2a0d6d27ff93244345","bdp_trlrn","Mon Mar 13 2023 14:25:59 GMT-0400 (Eastern Daylight Time)","389316","Untrustworthy,Trustworthy","html-keyboard-response","138","157838","0.0-19.0-2.0","","null","","<div class='trialDiv'><img src='trustrating_stim/white_00602_940928_fb_edt.bmp'><br><font class='baseline'><strong>Matthew</strong><p>Choose number of points to send.</font><div class='respPicDiv'><img src='img/responseButtonOffersNo0L3.png' class='respPic'></div></div>","null","1","Matthew","11","Kept","0.2,0.65","10","0.2","trustrating_stim/white_00602_940928_fb_edt.bmp","7","2","1"
"","","","feedback","","60f08e2a0d6d27ff93244345","bdp_trlrn","Mon Mar 13 2023 14:25:59 GMT-0400 (Eastern Daylight Time)","389316","Untrustworthy,Trustworthy","html-keyboard-response","139","158843","0.0-19.0-3.0","","null","","<div class='trialDiv'><img src='trustrating_stim/white_00602_940928_fb_edt.bmp'><br><font class='baseline'><strong>Matthew</strong><p>Received: <strong>12</strong></font> &nbsp; &nbsp; &nbsp; &nbsp; &nbsp; &nbsp;<font class='negOutcome'>Shared back: <strong>0</strong></font></font><div class='respPicDiv'><img src='img/responseButtonOffersNo0_wht.png' class='respPic'></div></div>","null","1","Matthew","11","Kept","0.2,0.65","10","0.2","trustrating_stim/white_00602_940928_fb_edt.bmp","7","2","1"
"","","","decision","","60f08e2a0d6d27ff93244345","bdp_trlrn","Mon Mar 13 2023 14:25:59 GMT-0400 (Eastern Daylight Time)","389316","Untrustworthy,Trustworthy","html-keyboard-response","140","159261","0.0-19.0-1.1","","418","","<div class='trialDiv'><img src='trustrating_stim/white_mw060.bmp'><br><font class='baseline'><strong>Devin</strong><p>Choose number of points to send.</font><div class='respPicDiv'><img src='img/responseButtonOffersNo0L.png' class='respPic'></div></div>","4","1","Devin","0","Kept","0.8,0.35","10","0.8","trustrating_stim/white_mw060.bmp","1.5","7","2"
"","","","decisionFB","","60f08e2a0d6d27ff93244345","bdp_trlrn","Mon Mar 13 2023 14:25:59 GMT-0400 (Eastern Daylight Time)","389316","Untrustworthy,Trustworthy","html-keyboard-response","141","159517","0.0-19.0-2.1","","null","","<div class='trialDiv'><img src='trustrating_stim/white_mw060.bmp'><br><font class='baseline'><strong>Devin</strong><p>Choose number of points to send.</font><div class='respPicDiv'><img src='img/responseButtonOffersNo0L4.png' class='respPic'></div></div>","null","1","Devin","0","Kept","0.8,0.35","10","0.8","trustrating_stim/white_mw060.bmp","1.5","3","2"
"","","","feedback","","60f08e2a0d6d27ff93244345","bdp_trlrn","Mon Mar 13 2023 14:25:59 GMT-0400 (Eastern Daylight Time)","389316","Untrustworthy,Trustworthy","html-keyboard-response","142","160521","0.0-19.0-3.1","","null","","<div class='trialDiv'><img src='trustrating_stim/white_mw060.bmp'><br><font class='baseline'><strong>Devin</strong><p>Received: <strong>16</strong></font> &nbsp; &nbsp; &nbsp; &nbsp; &nbsp; &nbsp;<font class='negOutcome'>Shared back: <strong>0</strong></font></font><div class='respPicDiv'><img src='img/responseButtonOffersNo0_wht.png' class='respPic'></div></div>","null","1","Devin","0","Kept","0.8,0.35","10","0.8","trustrating_stim/white_mw060.bmp","1.5","3","2"
"","","","decision","","60f08e2a0d6d27ff93244345","bdp_trlrn","Mon Mar 13 2023 14:25:59 GMT-0400 (Eastern Daylight Time)","389316","Untrustworthy,Trustworthy","html-keyboard-response","143","160868","0.0-19.0-1.2","","346","","<div class='trialDiv'><img src='trustrating_stim/white_00807_941205_fb_edt.bmp'><br><font class='baseline'><strong>Lucas</strong><p>Choose number of points to send.</font><div class='respPicDiv'><img src='img/responseButtonOffersNo0L.png' class='respPic'></div></div>","3","1","Lucas","5","Kept","0.2,0.8","12","0.2","trustrating_stim/white_00807_941205_fb_edt.bmp","4","8","3"
"","","","decisionFB","","60f08e2a0d6d27ff93244345","bdp_trlrn","Mon Mar 13 2023 14:25:59 GMT-0400 (Eastern Daylight Time)","389316","Untrustworthy,Trustworthy","html-keyboard-response","144","161124","0.0-19.0-2.2","","null","","<div class='trialDiv'><img src='trustrating_stim/white_00807_941205_fb_edt.bmp'><br><font class='baseline'><strong>Lucas</strong><p>Choose number of points to send.</font><div class='respPicDiv'><img src='img/responseButtonOffersNo0L3.png' class='respPic'></div></div>","null","1","Lucas","5","Kept","0.2,0.8","12","0.2","trustrating_stim/white_00807_941205_fb_edt.bmp","4","5","3"
"","","","feedback","","60f08e2a0d6d27ff93244345","bdp_trlrn","Mon Mar 13 2023 14:25:59 GMT-0400 (Eastern Daylight Time)","389316","Untrustworthy,Trustworthy","html-keyboard-response","145","162128","0.0-19.0-3.2","","null","","<div class='trialDiv'><img src='trustrating_stim/white_00807_941205_fb_edt.bmp'><br><font class='baseline'><strong>Lucas</strong><p>Received: <strong>12</strong></font> &nbsp; &nbsp; &nbsp; &nbsp; &nbsp; &nbsp;<font class='negOutcome'>Shared back: <strong>0</strong></font></font><div class='respPicDiv'><img src='img/responseButtonOffersNo0_wht.png' class='respPic'></div></div>","null","1","Lucas","5","Kept","0.2,0.8","12","0.2","trustrating_stim/white_00807_941205_fb_edt.bmp","4","5","3"
"","","","decision","","60f08e2a0d6d27ff93244345","bdp_trlrn","Mon Mar 13 2023 14:25:59 GMT-0400 (Eastern Daylight Time)","389316","Untrustworthy,Trustworthy","html-keyboard-response","146","162135","0.0-19.0-1.3","","5","","<div class='trialDiv'><img src='trustrating_stim/white_mw060.bmp'><br><font class='baseline'><strong>Devin</strong><p>Choose number of points to send.</font><div class='respPicDiv'><img src='img/responseButtonOffersNo0L.png' class='respPic'></div></div>","2","2","Devin","0","Kept","0.8,0.35","10","0.8","trustrating_stim/white_mw060.bmp","1.5","10","4"
"","","","decisionFB","","60f08e2a0d6d27ff93244345","bdp_trlrn","Mon Mar 13 2023 14:25:59 GMT-0400 (Eastern Daylight Time)","389316","Untrustworthy,Trustworthy","html-keyboard-response","147","162388","0.0-19.0-2.3","","null","","<div class='trialDiv'><img src='trustrating_stim/white_mw060.bmp'><br><font class='baseline'><strong>Devin</strong><p>Choose number of points to send.</font><div class='respPicDiv'><img src='img/responseButtonOffersNo0L2.png' class='respPic'></div></div>","null","2","Devin","0","Kept","0.8,0.35","10","0.8","trustrating_stim/white_mw060.bmp","1.5","8","4"
"","","","feedback","","60f08e2a0d6d27ff93244345","bdp_trlrn","Mon Mar 13 2023 14:25:59 GMT-0400 (Eastern Daylight Time)","389316","Untrustworthy,Trustworthy","html-keyboard-response","148","163390","0.0-19.0-3.3","","null","","<div class='trialDiv'><img src='trustrating_stim/white_mw060.bmp'><br><font class='baseline'><strong>Devin</strong><p>Received: <strong>8</strong></font> &nbsp; &nbsp; &nbsp; &nbsp; &nbsp; &nbsp;<font class='negOutcome'>Shared back: <strong>0</strong></font></font><div class='respPicDiv'><img src='img/responseButtonOffersNo0_wht.png' class='respPic'></div></div>","null","2","Devin","0","Kept","0.8,0.35","10","0.8","trustrating_stim/white_mw060.bmp","1.5","8","4"
"","","","decision","","60f08e2a0d6d27ff93244345","bdp_trlrn","Mon Mar 13 2023 14:25:59 GMT-0400 (Eastern Daylight Time)","389316","Untrustworthy,Trustworthy","html-keyboard-response","149","164393","0.0-19.0-1.4","","1002","","<div class='trialDiv'><img src='trustrating_stim/white_00807_941205_fb_edt.bmp'><br><font class='baseline'><strong>Lucas</strong><p>Choose number of points to send.</font><div class='respPicDiv'><img src='img/responseButtonOffersNo0L.png' class='respPic'></div></div>","5","2","Lucas","5","Kept","0.2,0.8","12","0.2","trustrating_stim/white_00807_941205_fb_edt.bmp","4","13","5"
"","","","decisionFB","","60f08e2a0d6d27ff93244345","bdp_trlrn","Mon Mar 13 2023 14:25:59 GMT-0400 (Eastern Daylight Time)","389316","Untrustworthy,Trustworthy","html-keyboard-response","150","164647","0.0-19.0-2.4","","null","","<div class='trialDiv'><img src='trustrating_stim/white_00807_941205_fb_edt.bmp'><br><font class='baseline'><strong>Lucas</strong><p>Choose number of points to send.</font><div class='respPicDiv'><img src='img/responseButtonOffersNo0L5.png' class='respPic'></div></div>","null","2","Lucas","5","Kept","0.2,0.8","12","0.2","trustrating_stim/white_00807_941205_fb_edt.bmp","4","8","5"
"","","","feedback","","60f08e2a0d6d27ff93244345","bdp_trlrn","Mon Mar 13 2023 14:25:59 GMT-0400 (Eastern Daylight Time)","389316","Untrustworthy,Trustworthy","html-keyboard-response","151","165653","0.0-19.0-3.4","","null","","<div class='trialDiv'><img src='trustrating_stim/white_00807_941205_fb_edt.bmp'><br><font class='baseline'><strong>Lucas</strong><p>Received: <strong>20</strong></font> &nbsp; &nbsp; &nbsp; &nbsp; &nbsp; &nbsp;<font class='negOutcome'>Shared back: <strong>0</strong></font></font><div class='respPicDiv'><img src='img/responseButtonOffersNo0_wht.png' class='respPic'></div></div>","null","2","Lucas","5","Kept","0.2,0.8","12","0.2","trustrating_stim/white_00807_941205_fb_edt.bmp","4","8","5"
"","","","decision","","60f08e2a0d6d27ff93244345","bdp_trlrn","Mon Mar 13 2023 14:25:59 GMT-0400 (Eastern Daylight Time)","389316","Untrustworthy,Trustworthy","html-keyboard-response","152","165720","0.0-19.0-1.5","","66","","<div class='trialDiv'><img src='trustrating_stim/white_00602_940928_fb_edt.bmp'><br><font class='baseline'><strong>Matthew</strong><p>Choose number of points to send.</font><div class='respPicDiv'><img src='img/responseButtonOffersNo0L.png' class='respPic'></div></div>","1","2","Matthew","11","Shared","0.2,0.65","10","0.2","trustrating_stim/white_00602_940928_fb_edt.bmp","7","13","6"
"","","","decisionFB","","60f08e2a0d6d27ff93244345","bdp_trlrn","Mon Mar 13 2023 14:25:59 GMT-0400 (Eastern Daylight Time)","389316","Untrustworthy,Trustworthy","html-keyboard-response","153","165976","0.0-19.0-2.5","","null","","<div class='trialDiv'><img src='trustrating_stim/white_00602_940928_fb_edt.bmp'><br><font class='baseline'><strong>Matthew</strong><p>Choose number of points to send.</font><div class='respPicDiv'><img src='img/responseButtonOffersNo0L1.png' class='respPic'></div></div>","null","2","Matthew","11","Shared","0.2,0.65","10","0.2","trustrating_stim/white_00602_940928_fb_edt.bmp","7","12","6"
"","","","feedback","","60f08e2a0d6d27ff93244345","bdp_trlrn","Mon Mar 13 2023 14:25:59 GMT-0400 (Eastern Daylight Time)","389316","Untrustworthy,Trustworthy","html-keyboard-response","154","166981","0.0-19.0-3.5","","null","","<div class='trialDiv'><img src='trustrating_stim/white_00602_940928_fb_edt.bmp'><br><font class='baseline'><strong>Matthew</strong><p>Received: <strong>4</strong></font> &nbsp; &nbsp; &nbsp; &nbsp; &nbsp; &nbsp;<font class='posOutcome'>Shared back: <strong>2</strong></font></font><div class='respPicDiv'><img src='img/responseButtonOffersNo0_wht.png' class='respPic'></div></div>","null","2","Matthew","11","Shared","0.2,0.65","10","0.2","trustrating_stim/white_00602_940928_fb_edt.bmp","7","14","6"
"","","","decision","","60f08e2a0d6d27ff93244345","bdp_trlrn","Mon Mar 13 2023 14:25:59 GMT-0400 (Eastern Daylight Time)","389316","Untrustworthy,Trustworthy","html-keyboard-response","155","167133","0.0-19.0-1.6","","152","","<div class='trialDiv'><img src='trustrating_stim/white_00807_941205_fb_edt.bmp'><br><font class='baseline'><strong>Lucas</strong><p>Choose number of points to send.</font><div class='respPicDiv'><img src='img/responseButtonOffersNo0L.png' class='respPic'></div></div>","2","3","Lucas","5","Shared","0.2,0.8","12","0.2","trustrating_stim/white_00807_941205_fb_edt.bmp","4","19","7"
"","","","decisionFB","","60f08e2a0d6d27ff93244345","bdp_trlrn","Mon Mar 13 2023 14:25:59 GMT-0400 (Eastern Daylight Time)","389316","Untrustworthy,Trustworthy","html-keyboard-response","156","167387","0.0-19.0-2.6","","null","","<div class='trialDiv'><img src='trustrating_stim/white_00807_941205_fb_edt.bmp'><br><font class='baseline'><strong>Lucas</strong><p>Choose number of points to send.</font><div class='respPicDiv'><img src='img/responseButtonOffersNo0L2.png' class='respPic'></div></div>","null","3","Lucas","5","Shared","0.2,0.8","12","0.2","trustrating_stim/white_00807_941205_fb_edt.bmp","4","17","7"
"","","","feedback","","60f08e2a0d6d27ff93244345","bdp_trlrn","Mon Mar 13 2023 14:25:59 GMT-0400 (Eastern Daylight Time)","389316","Untrustworthy,Trustworthy","html-keyboard-response","157","168389","0.0-19.0-3.6","","null","","<div class='trialDiv'><img src='trustrating_stim/white_00807_941205_fb_edt.bmp'><br><font class='baseline'><strong>Lucas</strong><p>Received: <strong>8</strong></font> &nbsp; &nbsp; &nbsp; &nbsp; &nbsp; &nbsp;<font class='posOutcome'>Shared back: <strong>4</strong></font></font><div class='respPicDiv'><img src='img/responseButtonOffersNo0_wht.png' class='respPic'></div></div>","null","3","Lucas","5","Shared","0.2,0.8","12","0.2","trustrating_stim/white_00807_941205_fb_edt.bmp","4","21","7"
"","","","decision","","60f08e2a0d6d27ff93244345","bdp_trlrn","Mon Mar 13 2023 14:25:59 GMT-0400 (Eastern Daylight Time)","389316","Untrustworthy,Trustworthy","html-keyboard-response","158","168419","0.0-19.0-1.7","","28","","<div class='trialDiv'><img src='trustrating_stim/white_00602_940928_fb_edt.bmp'><br><font class='baseline'><strong>Matthew</strong><p>Choose number of points to send.</font><div class='respPicDiv'><img src='img/responseButtonOffersNo0L.png' class='respPic'></div></div>","3","3","Matthew","11","Kept","0.2,0.65","10","0.2","trustrating_stim/white_00602_940928_fb_edt.bmp","7","26","8"
"","","","decisionFB","","60f08e2a0d6d27ff93244345","bdp_trlrn","Mon Mar 13 2023 14:25:59 GMT-0400 (Eastern Daylight Time)","389316","Untrustworthy,Trustworthy","html-keyboard-response","159","168672","0.0-19.0-2.7","","null","","<div class='trialDiv'><img src='trustrating_stim/white_00602_940928_fb_edt.bmp'><br><font class='baseline'><strong>Matthew</strong><p>Choose number of points to send.</font><div class='respPicDiv'><img src='img/responseButtonOffersNo0L3.png' class='respPic'></div></div>","null","3","Matthew","11","Kept","0.2,0.65","10","0.2","trustrating_stim/white_00602_940928_fb_edt.bmp","7","23","8"
"","","","feedback","","60f08e2a0d6d27ff93244345","bdp_trlrn","Mon Mar 13 2023 14:25:59 GMT-0400 (Eastern Daylight Time)","389316","Untrustworthy,Trustworthy","html-keyboard-response","160","169678","0.0-19.0-3.7","","null","","<div class='trialDiv'><img src='trustrating_stim/white_00602_940928_fb_edt.bmp'><br><font class='baseline'><strong>Matthew</strong><p>Received: <strong>12</strong></font> &nbsp; &nbsp; &nbsp; &nbsp; &nbsp; &nbsp;<font class='negOutcome'>Shared back: <strong>0</strong></font></font><div class='respPicDiv'><img src='img/responseButtonOffersNo0_wht.png' class='respPic'></div></div>","null","3","Matthew","11","Kept","0.2,0.65","10","0.2","trustrating_stim/white_00602_940928_fb_edt.bmp","7","23","8"
"","","","decision","","60f08e2a0d6d27ff93244345","bdp_trlrn","Mon Mar 13 2023 14:25:59 GMT-0400 (Eastern Daylight Time)","389316","Untrustworthy,Trustworthy","html-keyboard-response","161","170260","0.0-19.0-1.8","","581","","<div class='trialDiv'><img src='trustrating_stim/white_mw060.bmp'><br><font class='baseline'><strong>Devin</strong><p>Choose number of points to send.</font><div class='respPicDiv'><img src='img/responseButtonOffersNo0L.png' class='respPic'></div></div>","2","3","Devin","0","Shared","0.8,0.35","10","0.8","trustrating_stim/white_mw060.bmp","1.5","28","9"
"","","","decisionFB","","60f08e2a0d6d27ff93244345","bdp_trlrn","Mon Mar 13 2023 14:25:59 GMT-0400 (Eastern Daylight Time)","389316","Untrustworthy,Trustworthy","html-keyboard-response","162","170515","0.0-19.0-2.8","","null","","<div class='trialDiv'><img src='trustrating_stim/white_mw060.bmp'><br><font class='baseline'><strong>Devin</strong><p>Choose number of points to send.</font><div class='respPicDiv'><img src='img/responseButtonOffersNo0L2.png' class='respPic'></div></div>","null","3","Devin","0","Shared","0.8,0.35","10","0.8","trustrating_stim/white_mw060.bmp","1.5","26","9"
"","","","feedback","","60f08e2a0d6d27ff93244345","bdp_trlrn","Mon Mar 13 2023 14:25:59 GMT-0400 (Eastern Daylight Time)","389316","Untrustworthy,Trustworthy","html-keyboard-response","163","171521","0.0-19.0-3.8","","null","","<div class='trialDiv'><img src='trustrating_stim/white_mw060.bmp'><br><font class='baseline'><strong>Devin</strong><p>Received: <strong>8</strong></font> &nbsp; &nbsp; &nbsp; &nbsp; &nbsp; &nbsp;<font class='posOutcome'>Shared back: <strong>4</strong></font></font><div class='respPicDiv'><img src='img/responseButtonOffersNo0_wht.png' class='respPic'></div></div>","null","3","Devin","0","Shared","0.8,0.35","10","0.8","trustrating_stim/white_mw060.bmp","1.5","30","9"
"","","","decision","","60f08e2a0d6d27ff93244345","bdp_trlrn","Mon Mar 13 2023 14:25:59 GMT-0400 (Eastern Daylight Time)","389316","Untrustworthy,Trustworthy","html-keyboard-response","164","171690","0.0-19.0-1.9","","169","","<div class='trialDiv'><img src='trustrating_stim/white_00807_941205_fb_edt.bmp'><br><font class='baseline'><strong>Lucas</strong><p>Choose number of points to send.</font><div class='respPicDiv'><img src='img/responseButtonOffersNo0L.png' class='respPic'></div></div>","1","4","Lucas","5","Shared","0.2,0.8","12","0.2","trustrating_stim/white_00807_941205_fb_edt.bmp","4","35","10"
"","","","decisionFB","","60f08e2a0d6d27ff93244345","bdp_trlrn","Mon Mar 13 2023 14:25:59 GMT-0400 (Eastern Daylight Time)","389316","Untrustworthy,Trustworthy","html-keyboard-response","165","171945","0.0-19.0-2.9","","null","","<div class='trialDiv'><img src='trustrating_stim/white_00807_941205_fb_edt.bmp'><br><font class='baseline'><strong>Lucas</strong><p>Choose number of points to send.</font><div class='respPicDiv'><img src='img/responseButtonOffersNo0L1.png' class='respPic'></div></div>","null","4","Lucas","5","Shared","0.2,0.8","12","0.2","trustrating_stim/white_00807_941205_fb_edt.bmp","4","34","10"
"","","","feedback","","60f08e2a0d6d27ff93244345","bdp_trlrn","Mon Mar 13 2023 14:25:59 GMT-0400 (Eastern Daylight Time)","389316","Untrustworthy,Trustworthy","html-keyboard-response","166","172950","0.0-19.0-3.9","","null","","<div class='trialDiv'><img src='trustrating_stim/white_00807_941205_fb_edt.bmp'><br><font class='baseline'><strong>Lucas</strong><p>Received: <strong>4</strong></font> &nbsp; &nbsp; &nbsp; &nbsp; &nbsp; &nbsp;<font class='posOutcome'>Shared back: <strong>2</strong></font></font><div class='respPicDiv'><img src='img/responseButtonOffersNo0_wht.png' class='respPic'></div></div>","null","4","Lucas","5","Shared","0.2,0.8","12","0.2","trustrating_stim/white_00807_941205_fb_edt.bmp","4","36","10"
"","","","decision","","60f08e2a0d6d27ff93244345","bdp_trlrn","Mon Mar 13 2023 14:25:59 GMT-0400 (Eastern Daylight Time)","389316","Untrustworthy,Trustworthy","html-keyboard-response","167","173072","0.0-19.0-1.10","","122","","<div class='trialDiv'><img src='trustrating_stim/white_00602_940928_fb_edt.bmp'><br><font class='baseline'><strong>Matthew</strong><p>Choose number of points to send.</font><div class='respPicDiv'><img src='img/responseButtonOffersNo0L.png' class='respPic'></div></div>","2","4","Matthew","11","Kept","0.2,0.65","10","0.2","trustrating_stim/white_00602_940928_fb_edt.bmp","7","41","11"
"","","","decisionFB","","60f08e2a0d6d27ff93244345","bdp_trlrn","Mon Mar 13 2023 14:25:59 GMT-0400 (Eastern Daylight Time)","389316","Untrustworthy,Trustworthy","html-keyboard-response","168","173324","0.0-19.0-2.10","","null","","<div class='trialDiv'><img src='trustrating_stim/white_00602_940928_fb_edt.bmp'><br><font class='baseline'><strong>Matthew</strong><p>Choose number of points to send.</font><div class='respPicDiv'><img src='img/responseButtonOffersNo0L2.png' class='respPic'></div></div>","null","4","Matthew","11","Kept","0.2,0.65","10","0.2","trustrating_stim/white_00602_940928_fb_edt.bmp","7","39","11"
"","","","feedback","","60f08e2a0d6d27ff93244345","bdp_trlrn","Mon Mar 13 2023 14:25:59 GMT-0400 (Eastern Daylight Time)","389316","Untrustworthy,Trustworthy","html-keyboard-response","169","174329","0.0-19.0-3.10","","null","","<div class='trialDiv'><img src='trustrating_stim/white_00602_940928_fb_edt.bmp'><br><font class='baseline'><strong>Matthew</strong><p>Received: <strong>8</strong></font> &nbsp; &nbsp; &nbsp; &nbsp; &nbsp; &nbsp;<font class='negOutcome'>Shared back: <strong>0</strong></font></font><div class='respPicDiv'><img src='img/responseButtonOffersNo0_wht.png' class='respPic'></div></div>","null","4","Matthew","11","Kept","0.2,0.65","10","0.2","trustrating_stim/white_00602_940928_fb_edt.bmp","7","39","11"
"","","","decision","","60f08e2a0d6d27ff93244345","bdp_trlrn","Mon Mar 13 2023 14:25:59 GMT-0400 (Eastern Daylight Time)","389316","Untrustworthy,Trustworthy","html-keyboard-response","170","174339","0.0-19.0-1.11","","10","","<div class='trialDiv'><img src='trustrating_stim/white_mw060.bmp'><br><font class='baseline'><strong>Devin</strong><p>Choose number of points to send.</font><div class='respPicDiv'><img src='img/responseButtonOffersNo0L.png' class='respPic'></div></div>","1","4","Devin","0","Kept","0.8,0.35","10","0.8","trustrating_stim/white_mw060.bmp","1.5","44","12"
"","","","decisionFB","","60f08e2a0d6d27ff93244345","bdp_trlrn","Mon Mar 13 2023 14:25:59 GMT-0400 (Eastern Daylight Time)","389316","Untrustworthy,Trustworthy","html-keyboard-response","171","174590","0.0-19.0-2.11","","null","","<div class='trialDiv'><img src='trustrating_stim/white_mw060.bmp'><br><font class='baseline'><strong>Devin</strong><p>Choose number of points to send.</font><div class='respPicDiv'><img src='img/responseButtonOffersNo0L1.png' class='respPic'></div></div>","null","4","Devin","0","Kept","0.8,0.35","10","0.8","trustrating_stim/white_mw060.bmp","1.5","43","12"
"","","","feedback","","60f08e2a0d6d27ff93244345","bdp_trlrn","Mon Mar 13 2023 14:25:59 GMT-0400 (Eastern Daylight Time)","389316","Untrustworthy,Trustworthy","html-keyboard-response","172","175591","0.0-19.0-3.11","","null","","<div class='trialDiv'><img src='trustrating_stim/white_mw060.bmp'><br><font class='baseline'><strong>Devin</strong><p>Received: <strong>4</strong></font> &nbsp; &nbsp; &nbsp; &nbsp; &nbsp; &nbsp;<font class='negOutcome'>Shared back: <strong>0</strong></font></font><div class='respPicDiv'><img src='img/responseButtonOffersNo0_wht.png' class='respPic'></div></div>","null","4","Devin","0","Kept","0.8,0.35","10","0.8","trustrating_stim/white_mw060.bmp","1.5","43","12"
"","","","decision","","60f08e2a0d6d27ff93244345","bdp_trlrn","Mon Mar 13 2023 14:25:59 GMT-0400 (Eastern Daylight Time)","389316","Untrustworthy,Trustworthy","html-keyboard-response","173","175592","0.0-19.0-1.12","","0","","<div class='trialDiv'><img src='trustrating_stim/white_00602_940928_fb_edt.bmp'><br><font class='baseline'><strong>Matthew</strong><p>Choose number of points to send.</font><div class='respPicDiv'><img src='img/responseButtonOffersNo0L.png' class='respPic'></div></div>","4","5","Matthew","11","Kept","0.2,0.65","10","0.2","trustrating_stim/white_00602_940928_fb_edt.bmp","7","48","13"
"","","","decisionFB","","60f08e2a0d6d27ff93244345","bdp_trlrn","Mon Mar 13 2023 14:25:59 GMT-0400 (Eastern Daylight Time)","389316","Untrustworthy,Trustworthy","html-keyboard-response","174","175846","0.0-19.0-2.12","","null","","<div class='trialDiv'><img src='trustrating_stim/white_00602_940928_fb_edt.bmp'><br><font class='baseline'><strong>Matthew</strong><p>Choose number of points to send.</font><div class='respPicDiv'><img src='img/responseButtonOffersNo0L4.png' class='respPic'></div></div>","null","5","Matthew","11","Kept","0.2,0.65","10","0.2","trustrating_stim/white_00602_940928_fb_edt.bmp","7","44","13"
"","","","feedback","","60f08e2a0d6d27ff93244345","bdp_trlrn","Mon Mar 13 2023 14:25:59 GMT-0400 (Eastern Daylight Time)","389316","Untrustworthy,Trustworthy","html-keyboard-response","175","176851","0.0-19.0-3.12","","null","","<div class='trialDiv'><img src='trustrating_stim/white_00602_940928_fb_edt.bmp'><br><font class='baseline'><strong>Matthew</strong><p>Received: <strong>16</strong></font> &nbsp; &nbsp; &nbsp; &nbsp; &nbsp; &nbsp;<font class='negOutcome'>Shared back: <strong>0</strong></font></font><div class='respPicDiv'><img src='img/responseButtonOffersNo0_wht.png' class='respPic'></div></div>","null","5","Matthew","11","Kept","0.2,0.65","10","0.2","trustrating_stim/white_00602_940928_fb_edt.bmp","7","44","13"
"","","","decision","","60f08e2a0d6d27ff93244345","bdp_trlrn","Mon Mar 13 2023 14:25:59 GMT-0400 (Eastern Daylight Time)","389316","Untrustworthy,Trustworthy","html-keyboard-response","176","177167","0.0-19.0-1.13","","314","","<div class='trialDiv'><img src='trustrating_stim/white_00807_941205_fb_edt.bmp'><br><font class='baseline'><strong>Lucas</strong><p>Choose number of points to send.</font><div class='respPicDiv'><img src='img/responseButtonOffersNo0L.png' class='respPic'></div></div>","5","5","Lucas","5","Kept","0.2,0.8","12","0.2","trustrating_stim/white_00807_941205_fb_edt.bmp","4","49","14"
"","","","decisionFB","","60f08e2a0d6d27ff93244345","bdp_trlrn","Mon Mar 13 2023 14:25:59 GMT-0400 (Eastern Daylight Time)","389316","Untrustworthy,Trustworthy","html-keyboard-response","177","177422","0.0-19.0-2.13","","null","","<div class='trialDiv'><img src='trustrating_stim/white_00807_941205_fb_edt.bmp'><br><font class='baseline'><strong>Lucas</strong><p>Choose number of points to send.</font><div class='respPicDiv'><img src='img/responseButtonOffersNo0L5.png' class='respPic'></div></div>","null","5","Lucas","5","Kept","0.2,0.8","12","0.2","trustrating_stim/white_00807_941205_fb_edt.bmp","4","44","14"
"","","","feedback","","60f08e2a0d6d27ff93244345","bdp_trlrn","Mon Mar 13 2023 14:25:59 GMT-0400 (Eastern Daylight Time)","389316","Untrustworthy,Trustworthy","html-keyboard-response","178","178427","0.0-19.0-3.13","","null","","<div class='trialDiv'><img src='trustrating_stim/white_00807_941205_fb_edt.bmp'><br><font class='baseline'><strong>Lucas</strong><p>Received: <strong>20</strong></font> &nbsp; &nbsp; &nbsp; &nbsp; &nbsp; &nbsp;<font class='negOutcome'>Shared back: <strong>0</strong></font></font><div class='respPicDiv'><img src='img/responseButtonOffersNo0_wht.png' class='respPic'></div></div>","null","5","Lucas","5","Kept","0.2,0.8","12","0.2","trustrating_stim/white_00807_941205_fb_edt.bmp","4","44","14"
"","","","decision","","60f08e2a0d6d27ff93244345","bdp_trlrn","Mon Mar 13 2023 14:25:59 GMT-0400 (Eastern Daylight Time)","389316","Untrustworthy,Trustworthy","html-keyboard-response","179","178456","0.0-19.0-1.14","","28","","<div class='trialDiv'><img src='trustrating_stim/white_mw060.bmp'><br><font class='baseline'><strong>Devin</strong><p>Choose number of points to send.</font><div class='respPicDiv'><img src='img/responseButtonOffersNo0L.png' class='respPic'></div></div>","3","5","Devin","0","Kept","0.8,0.35","10","0.8","trustrating_stim/white_mw060.bmp","1.5","49","15"
"","","","decisionFB","","60f08e2a0d6d27ff93244345","bdp_trlrn","Mon Mar 13 2023 14:25:59 GMT-0400 (Eastern Daylight Time)","389316","Untrustworthy,Trustworthy","html-keyboard-response","180","178708","0.0-19.0-2.14","","null","","<div class='trialDiv'><img src='trustrating_stim/white_mw060.bmp'><br><font class='baseline'><strong>Devin</strong><p>Choose number of points to send.</font><div class='respPicDiv'><img src='img/responseButtonOffersNo0L3.png' class='respPic'></div></div>","null","5","Devin","0","Kept","0.8,0.35","10","0.8","trustrating_stim/white_mw060.bmp","1.5","46","15"
"","","","feedback","","60f08e2a0d6d27ff93244345","bdp_trlrn","Mon Mar 13 2023 14:25:59 GMT-0400 (Eastern Daylight Time)","389316","Untrustworthy,Trustworthy","html-keyboard-response","181","179713","0.0-19.0-3.14","","null","","<div class='trialDiv'><img src='trustrating_stim/white_mw060.bmp'><br><font class='baseline'><strong>Devin</strong><p>Received: <strong>12</strong></font> &nbsp; &nbsp; &nbsp; &nbsp; &nbsp; &nbsp;<font class='negOutcome'>Shared back: <strong>0</strong></font></font><div class='respPicDiv'><img src='img/responseButtonOffersNo0_wht.png' class='respPic'></div></div>","null","5","Devin","0","Kept","0.8,0.35","10","0.8","trustrating_stim/white_mw060.bmp","1.5","46","15"
"","","","decision","","60f08e2a0d6d27ff93244345","bdp_trlrn","Mon Mar 13 2023 14:25:59 GMT-0400 (Eastern Daylight Time)","389316","Untrustworthy,Trustworthy","html-keyboard-response","182","179827","0.0-19.0-1.15","","113","","<div class='trialDiv'><img src='trustrating_stim/white_00602_940928_fb_edt.bmp'><br><font class='baseline'><strong>Matthew</strong><p>Choose number of points to send.</font><div class='respPicDiv'><img src='img/responseButtonOffersNo0L.png' class='respPic'></div></div>","2","6","Matthew","11","Kept","0.2,0.65","10","0.2","trustrating_stim/white_00602_940928_fb_edt.bmp","7","51","16"
"","","","decisionFB","","60f08e2a0d6d27ff93244345","bdp_trlrn","Mon Mar 13 2023 14:25:59 GMT-0400 (Eastern Daylight Time)","389316","Untrustworthy,Trustworthy","html-keyboard-response","183","180083","0.0-19.0-2.15","","null","","<div class='trialDiv'><img src='trustrating_stim/white_00602_940928_fb_edt.bmp'><br><font class='baseline'><strong>Matthew</strong><p>Choose number of points to send.</font><div class='respPicDiv'><img src='img/responseButtonOffersNo0L2.png' class='respPic'></div></div>","null","6","Matthew","11","Kept","0.2,0.65","10","0.2","trustrating_stim/white_00602_940928_fb_edt.bmp","7","49","16"
"","","","feedback","","60f08e2a0d6d27ff93244345","bdp_trlrn","Mon Mar 13 2023 14:25:59 GMT-0400 (Eastern Daylight Time)","389316","Untrustworthy,Trustworthy","html-keyboard-response","184","181088","0.0-19.0-3.15","","null","","<div class='trialDiv'><img src='trustrating_stim/white_00602_940928_fb_edt.bmp'><br><font class='baseline'><strong>Matthew</strong><p>Received: <strong>8</strong></font> &nbsp; &nbsp; &nbsp; &nbsp; &nbsp; &nbsp;<font class='negOutcome'>Shared back: <strong>0</strong></font></font><div class='respPicDiv'><img src='img/responseButtonOffersNo0_wht.png' class='respPic'></div></div>","null","6","Matthew","11","Kept","0.2,0.65","10","0.2","trustrating_stim/white_00602_940928_fb_edt.bmp","7","49","16"
"","","","decision","","60f08e2a0d6d27ff93244345","bdp_trlrn","Mon Mar 13 2023 14:25:59 GMT-0400 (Eastern Daylight Time)","389316","Untrustworthy,Trustworthy","html-keyboard-response","185","181101","0.0-19.0-1.16","","12","","<div class='trialDiv'><img src='trustrating_stim/white_00807_941205_fb_edt.bmp'><br><font class='baseline'><strong>Lucas</strong><p>Choose number of points to send.</font><div class='respPicDiv'><img src='img/responseButtonOffersNo0L.png' class='respPic'></div></div>","1","6","Lucas","5","Kept","0.2,0.8","12","0.2","trustrating_stim/white_00807_941205_fb_edt.bmp","4","54","17"
"","","","decisionFB","","60f08e2a0d6d27ff93244345","bdp_trlrn","Mon Mar 13 2023 14:25:59 GMT-0400 (Eastern Daylight Time)","389316","Untrustworthy,Trustworthy","html-keyboard-response","186","181354","0.0-19.0-2.16","","null","","<div class='trialDiv'><img src='trustrating_stim/white_00807_941205_fb_edt.bmp'><br><font class='baseline'><strong>Lucas</strong><p>Choose number of points to send.</font><div class='respPicDiv'><img src='img/responseButtonOffersNo0L1.png' class='respPic'></div></div>","null","6","Lucas","5","Kept","0.2,0.8","12","0.2","trustrating_stim/white_00807_941205_fb_edt.bmp","4","53","17"
"","","","feedback","","60f08e2a0d6d27ff93244345","bdp_trlrn","Mon Mar 13 2023 14:25:59 GMT-0400 (Eastern Daylight Time)","389316","Untrustworthy,Trustworthy","html-keyboard-response","187","182359","0.0-19.0-3.16","","null","","<div class='trialDiv'><img src='trustrating_stim/white_00807_941205_fb_edt.bmp'><br><font class='baseline'><strong>Lucas</strong><p>Received: <strong>4</strong></font> &nbsp; &nbsp; &nbsp; &nbsp; &nbsp; &nbsp;<font class='negOutcome'>Shared back: <strong>0</strong></font></font><div class='respPicDiv'><img src='img/responseButtonOffersNo0_wht.png' class='respPic'></div></div>","null","6","Lucas","5","Kept","0.2,0.8","12","0.2","trustrating_stim/white_00807_941205_fb_edt.bmp","4","53","17"
"","","","decision","","60f08e2a0d6d27ff93244345","bdp_trlrn","Mon Mar 13 2023 14:25:59 GMT-0400 (Eastern Daylight Time)","389316","Untrustworthy,Trustworthy","html-keyboard-response","188","182673","0.0-19.0-1.17","","313","","<div class='trialDiv'><img src='trustrating_stim/white_mw060.bmp'><br><font class='baseline'><strong>Devin</strong><p>Choose number of points to send.</font><div class='respPicDiv'><img src='img/responseButtonOffersNo0L.png' class='respPic'></div></div>","2","6","Devin","0","Shared","0.8,0.35","10","0.8","trustrating_stim/white_mw060.bmp","1.5","58","18"
"","","","decisionFB","","60f08e2a0d6d27ff93244345","bdp_trlrn","Mon Mar 13 2023 14:25:59 GMT-0400 (Eastern Daylight Time)","389316","Untrustworthy,Trustworthy","html-keyboard-response","189","182928","0.0-19.0-2.17","","null","","<div class='trialDiv'><img src='trustrating_stim/white_mw060.bmp'><br><font class='baseline'><strong>Devin</strong><p>Choose number of points to send.</font><div class='respPicDiv'><img src='img/responseButtonOffersNo0L2.png' class='respPic'></div></div>","null","6","Devin","0","Shared","0.8,0.35","10","0.8","trustrating_stim/white_mw060.bmp","1.5","56","18"
"","","","feedback","","60f08e2a0d6d27ff93244345","bdp_trlrn","Mon Mar 13 2023 14:25:59 GMT-0400 (Eastern Daylight Time)","389316","Untrustworthy,Trustworthy","html-keyboard-response","190","183934","0.0-19.0-3.17","","null","","<div class='trialDiv'><img src='trustrating_stim/white_mw060.bmp'><br><font class='baseline'><strong>Devin</strong><p>Received: <strong>8</strong></font> &nbsp; &nbsp; &nbsp; &nbsp; &nbsp; &nbsp;<font class='posOutcome'>Shared back: <strong>4</strong></font></font><div class='respPicDiv'><img src='img/responseButtonOffersNo0_wht.png' class='respPic'></div></div>","null","6","Devin","0","Shared","0.8,0.35","10","0.8","trustrating_stim/white_mw060.bmp","1.5","60","18"
"","","","decision","","60f08e2a0d6d27ff93244345","bdp_trlrn","Mon Mar 13 2023 14:25:59 GMT-0400 (Eastern Daylight Time)","389316","Untrustworthy,Trustworthy","html-keyboard-response","191","184185","0.0-19.0-1.18","","250","","<div class='trialDiv'><img src='trustrating_stim/white_00602_940928_fb_edt.bmp'><br><font class='baseline'><strong>Matthew</strong><p>Choose number of points to send.</font><div class='respPicDiv'><img src='img/responseButtonOffersNo0L.png' class='respPic'></div></div>","2","7","Matthew","11","Kept","0.2,0.65","10","0.2","trustrating_stim/white_00602_940928_fb_edt.bmp","7","65","19"
"","","","decisionFB","","60f08e2a0d6d27ff93244345","bdp_trlrn","Mon Mar 13 2023 14:25:59 GMT-0400 (Eastern Daylight Time)","389316","Untrustworthy,Trustworthy","html-keyboard-response","192","184440","0.0-19.0-2.18","","null","","<div class='trialDiv'><img src='trustrating_stim/white_00602_940928_fb_edt.bmp'><br><font class='baseline'><strong>Matthew</strong><p>Choose number of points to send.</font><div class='respPicDiv'><img src='img/responseButtonOffersNo0L2.png' class='respPic'></div></div>","null","7","Matthew","11","Kept","0.2,0.65","10","0.2","trustrating_stim/white_00602_940928_fb_edt.bmp","7","63","19"
"","","","feedback","","60f08e2a0d6d27ff93244345","bdp_trlrn","Mon Mar 13 2023 14:25:59 GMT-0400 (Eastern Daylight Time)","389316","Untrustworthy,Trustworthy","html-keyboard-response","193","185445","0.0-19.0-3.18","","null","","<div class='trialDiv'><img src='trustrating_stim/white_00602_940928_fb_edt.bmp'><br><font class='baseline'><strong>Matthew</strong><p>Received: <strong>8</strong></font> &nbsp; &nbsp; &nbsp; &nbsp; &nbsp; &nbsp;<font class='negOutcome'>Shared back: <strong>0</strong></font></font><div class='respPicDiv'><img src='img/responseButtonOffersNo0_wht.png' class='respPic'></div></div>","null","7","Matthew","11","Kept","0.2,0.65","10","0.2","trustrating_stim/white_00602_940928_fb_edt.bmp","7","63","19"
"","","","decision","","60f08e2a0d6d27ff93244345","bdp_trlrn","Mon Mar 13 2023 14:25:59 GMT-0400 (Eastern Daylight Time)","389316","Untrustworthy,Trustworthy","html-keyboard-response","194","185511","0.0-19.0-1.19","","65","","<div class='trialDiv'><img src='trustrating_stim/white_00807_941205_fb_edt.bmp'><br><font class='baseline'><strong>Lucas</strong><p>Choose number of points to send.</font><div class='respPicDiv'><img src='img/responseButtonOffersNo0L.png' class='respPic'></div></div>","3","7","Lucas","5","Kept","0.2,0.8","12","0.2","trustrating_stim/white_00807_941205_fb_edt.bmp","4","68","20"
"","","","decisionFB","","60f08e2a0d6d27ff93244345","bdp_trlrn","Mon Mar 13 2023 14:25:59 GMT-0400 (Eastern Daylight Time)","389316","Untrustworthy,Trustworthy","html-keyboard-response","195","185764","0.0-19.0-2.19","","null","","<div class='trialDiv'><img src='trustrating_stim/white_00807_941205_fb_edt.bmp'><br><font class='baseline'><strong>Lucas</strong><p>Choose number of points to send.</font><div class='respPicDiv'><img src='img/responseButtonOffersNo0L3.png' class='respPic'></div></div>","null","7","Lucas","5","Kept","0.2,0.8","12","0.2","trustrating_stim/white_00807_941205_fb_edt.bmp","4","65","20"
"","","","feedback","","60f08e2a0d6d27ff93244345","bdp_trlrn","Mon Mar 13 2023 14:25:59 GMT-0400 (Eastern Daylight Time)","389316","Untrustworthy,Trustworthy","html-keyboard-response","196","186769","0.0-19.0-3.19","","null","","<div class='trialDiv'><img src='trustrating_stim/white_00807_941205_fb_edt.bmp'><br><font class='baseline'><strong>Lucas</strong><p>Received: <strong>12</strong></font> &nbsp; &nbsp; &nbsp; &nbsp; &nbsp; &nbsp;<font class='negOutcome'>Shared back: <strong>0</strong></font></font><div class='respPicDiv'><img src='img/responseButtonOffersNo0_wht.png' class='respPic'></div></div>","null","7","Lucas","5","Kept","0.2,0.8","12","0.2","trustrating_stim/white_00807_941205_fb_edt.bmp","4","65","20"
"","","","decision","","60f08e2a0d6d27ff93244345","bdp_trlrn","Mon Mar 13 2023 14:25:59 GMT-0400 (Eastern Daylight Time)","389316","Untrustworthy,Trustworthy","html-keyboard-response","197","186871","0.0-19.0-1.20","","101","","<div class='trialDiv'><img src='trustrating_stim/white_mw060.bmp'><br><font class='baseline'><strong>Devin</strong><p>Choose number of points to send.</font><div class='respPicDiv'><img src='img/responseButtonOffersNo0L.png' class='respPic'></div></div>","4","7","Devin","0","Shared","0.8,0.35","10","0.8","trustrating_stim/white_mw060.bmp","1.5","70","21"
"","","","decisionFB","","60f08e2a0d6d27ff93244345","bdp_trlrn","Mon Mar 13 2023 14:25:59 GMT-0400 (Eastern Daylight Time)","389316","Untrustworthy,Trustworthy","html-keyboard-response","198","187123","0.0-19.0-2.20","","null","","<div class='trialDiv'><img src='trustrating_stim/white_mw060.bmp'><br><font class='baseline'><strong>Devin</strong><p>Choose number of points to send.</font><div class='respPicDiv'><img src='img/responseButtonOffersNo0L4.png' class='respPic'></div></div>","null","7","Devin","0","Shared","0.8,0.35","10","0.8","trustrating_stim/white_mw060.bmp","1.5","66","21"
"","","","feedback","","60f08e2a0d6d27ff93244345","bdp_trlrn","Mon Mar 13 2023 14:25:59 GMT-0400 (Eastern Daylight Time)","389316","Untrustworthy,Trustworthy","html-keyboard-response","199","188126","0.0-19.0-3.20","","null","","<div class='trialDiv'><img src='trustrating_stim/white_mw060.bmp'><br><font class='baseline'><strong>Devin</strong><p>Received: <strong>16</strong></font> &nbsp; &nbsp; &nbsp; &nbsp; &nbsp; &nbsp;<font class='posOutcome'>Shared back: <strong>8</strong></font></font><div class='respPicDiv'><img src='img/responseButtonOffersNo0_wht.png' class='respPic'></div></div>","null","7","Devin","0","Shared","0.8,0.35","10","0.8","trustrating_stim/white_mw060.bmp","1.5","74","21"
"","","","decision","","60f08e2a0d6d27ff93244345","bdp_trlrn","Mon Mar 13 2023 14:25:59 GMT-0400 (Eastern Daylight Time)","389316","Untrustworthy,Trustworthy","html-keyboard-response","200","188224","0.0-19.0-1.21","","98","","<div class='trialDiv'><img src='trustrating_stim/white_00807_941205_fb_edt.bmp'><br><font class='baseline'><strong>Lucas</strong><p>Choose number of points to send.</font><div class='respPicDiv'><img src='img/responseButtonOffersNo0L.png' class='respPic'></div></div>","4","8","Lucas","5","Kept","0.2,0.8","12","0.2","trustrating_stim/white_00807_941205_fb_edt.bmp","4","79","22"
"","","","decisionFB","","60f08e2a0d6d27ff93244345","bdp_trlrn","Mon Mar 13 2023 14:25:59 GMT-0400 (Eastern Daylight Time)","389316","Untrustworthy,Trustworthy","html-keyboard-response","201","188478","0.0-19.0-2.21","","null","","<div class='trialDiv'><img src='trustrating_stim/white_00807_941205_fb_edt.bmp'><br><font class='baseline'><strong>Lucas</strong><p>Choose number of points to send.</font><div class='respPicDiv'><img src='img/responseButtonOffersNo0L4.png' class='respPic'></div></div>","null","8","Lucas","5","Kept","0.2,0.8","12","0.2","trustrating_stim/white_00807_941205_fb_edt.bmp","4","75","22"
"","","","feedback","","60f08e2a0d6d27ff93244345","bdp_trlrn","Mon Mar 13 2023 14:25:59 GMT-0400 (Eastern Daylight Time)","389316","Untrustworthy,Trustworthy","html-keyboard-response","202","189481","0.0-19.0-3.21","","null","","<div class='trialDiv'><img src='trustrating_stim/white_00807_941205_fb_edt.bmp'><br><font class='baseline'><strong>Lucas</strong><p>Received: <strong>16</strong></font> &nbsp; &nbsp; &nbsp; &nbsp; &nbsp; &nbsp;<font class='negOutcome'>Shared back: <strong>0</strong></font></font><div class='respPicDiv'><img src='img/responseButtonOffersNo0_wht.png' class='respPic'></div></div>","null","8","Lucas","5","Kept","0.2,0.8","12","0.2","trustrating_stim/white_00807_941205_fb_edt.bmp","4","75","22"
"","","","decision","","60f08e2a0d6d27ff93244345","bdp_trlrn","Mon Mar 13 2023 14:25:59 GMT-0400 (Eastern Daylight Time)","389316","Untrustworthy,Trustworthy","html-keyboard-response","203","189567","0.0-19.0-1.22","","86","","<div class='trialDiv'><img src='trustrating_stim/white_mw060.bmp'><br><font class='baseline'><strong>Devin</strong><p>Choose number of points to send.</font><div class='respPicDiv'><img src='img/responseButtonOffersNo0L.png' class='respPic'></div></div>","5","8","Devin","0","Shared","0.8,0.35","10","0.8","trustrating_stim/white_mw060.bmp","1.5","80","23"
"","","","decisionFB","","60f08e2a0d6d27ff93244345","bdp_trlrn","Mon Mar 13 2023 14:25:59 GMT-0400 (Eastern Daylight Time)","389316","Untrustworthy,Trustworthy","html-keyboard-response","204","189822","0.0-19.0-2.22","","null","","<div class='trialDiv'><img src='trustrating_stim/white_mw060.bmp'><br><font class='baseline'><strong>Devin</strong><p>Choose number of points to send.</font><div class='respPicDiv'><img src='img/responseButtonOffersNo0L5.png' class='respPic'></div></div>","null","8","Devin","0","Shared","0.8,0.35","10","0.8","trustrating_stim/white_mw060.bmp","1.5","75","23"
"","","","feedback","","60f08e2a0d6d27ff93244345","bdp_trlrn","Mon Mar 13 2023 14:25:59 GMT-0400 (Eastern Daylight Time)","389316","Untrustworthy,Trustworthy","html-keyboard-response","205","190825","0.0-19.0-3.22","","null","","<div class='trialDiv'><img src='trustrating_stim/white_mw060.bmp'><br><font class='baseline'><strong>Devin</strong><p>Received: <strong>20</strong></font> &nbsp; &nbsp; &nbsp; &nbsp; &nbsp; &nbsp;<font class='posOutcome'>Shared back: <strong>10</strong></font></font><div class='respPicDiv'><img src='img/responseButtonOffersNo0_wht.png' class='respPic'></div></div>","null","8","Devin","0","Shared","0.8,0.35","10","0.8","trustrating_stim/white_mw060.bmp","1.5","85","23"
"","","","decision","","60f08e2a0d6d27ff93244345","bdp_trlrn","Mon Mar 13 2023 14:25:59 GMT-0400 (Eastern Daylight Time)","389316","Untrustworthy,Trustworthy","html-keyboard-response","206","191145","0.0-19.0-1.23","","319","","<div class='trialDiv'><img src='trustrating_stim/white_00602_940928_fb_edt.bmp'><br><font class='baseline'><strong>Matthew</strong><p>Choose number of points to send.</font><div class='respPicDiv'><img src='img/responseButtonOffersNo0L.png' class='respPic'></div></div>","5","8","Matthew","11","Kept","0.2,0.65","10","0.2","trustrating_stim/white_00602_940928_fb_edt.bmp","7","90","24"
"","","","decisionFB","","60f08e2a0d6d27ff93244345","bdp_trlrn","Mon Mar 13 2023 14:25:59 GMT-0400 (Eastern Daylight Time)","389316","Untrustworthy,Trustworthy","html-keyboard-response","207","191397","0.0-19.0-2.23","","null","","<div class='trialDiv'><img src='trustrating_stim/white_00602_940928_fb_edt.bmp'><br><font class='baseline'><strong>Matthew</strong><p>Choose number of points to send.</font><div class='respPicDiv'><img src='img/responseButtonOffersNo0L5.png' class='respPic'></div></div>","null","8","Matthew","11","Kept","0.2,0.65","10","0.2","trustrating_stim/white_00602_940928_fb_edt.bmp","7","85","24"
"","","","feedback","","60f08e2a0d6d27ff93244345","bdp_trlrn","Mon Mar 13 2023 14:25:59 GMT-0400 (Eastern Daylight Time)","389316","Untrustworthy,Trustworthy","html-keyboard-response","208","192398","0.0-19.0-3.23","","null","","<div class='trialDiv'><img src='trustrating_stim/white_00602_940928_fb_edt.bmp'><br><font class='baseline'><strong>Matthew</strong><p>Received: <strong>20</strong></font> &nbsp; &nbsp; &nbsp; &nbsp; &nbsp; &nbsp;<font class='negOutcome'>Shared back: <strong>0</strong></font></font><div class='respPicDiv'><img src='img/responseButtonOffersNo0_wht.png' class='respPic'></div></div>","null","8","Matthew","11","Kept","0.2,0.65","10","0.2","trustrating_stim/white_00602_940928_fb_edt.bmp","7","85","24"
"","","","decision","","60f08e2a0d6d27ff93244345","bdp_trlrn","Mon Mar 13 2023 14:25:59 GMT-0400 (Eastern Daylight Time)","389316","Untrustworthy,Trustworthy","html-keyboard-response","209","192713","0.0-19.0-1.24","","315","","<div class='trialDiv'><img src='trustrating_stim/white_00807_941205_fb_edt.bmp'><br><font class='baseline'><strong>Lucas</strong><p>Choose number of points to send.</font><div class='respPicDiv'><img src='img/responseButtonOffersNo0L.png' class='respPic'></div></div>","5","9","Lucas","5","Shared","0.2,0.8","12","0.2","trustrating_stim/white_00807_941205_fb_edt.bmp","4","90","25"
"","","","decisionFB","","60f08e2a0d6d27ff93244345","bdp_trlrn","Mon Mar 13 2023 14:25:59 GMT-0400 (Eastern Daylight Time)","389316","Untrustworthy,Trustworthy","html-keyboard-response","210","192969","0.0-19.0-2.24","","null","","<div class='trialDiv'><img src='trustrating_stim/white_00807_941205_fb_edt.bmp'><br><font class='baseline'><strong>Lucas</strong><p>Choose number of points to send.</font><div class='respPicDiv'><img src='img/responseButtonOffersNo0L5.png' class='respPic'></div></div>","null","9","Lucas","5","Shared","0.2,0.8","12","0.2","trustrating_stim/white_00807_941205_fb_edt.bmp","4","85","25"
"","","","feedback","","60f08e2a0d6d27ff93244345","bdp_trlrn","Mon Mar 13 2023 14:25:59 GMT-0400 (Eastern Daylight Time)","389316","Untrustworthy,Trustworthy","html-keyboard-response","211","193974","0.0-19.0-3.24","","null","","<div class='trialDiv'><img src='trustrating_stim/white_00807_941205_fb_edt.bmp'><br><font class='baseline'><strong>Lucas</strong><p>Received: <strong>20</strong></font> &nbsp; &nbsp; &nbsp; &nbsp; &nbsp; &nbsp;<font class='posOutcome'>Shared back: <strong>10</strong></font></font><div class='respPicDiv'><img src='img/responseButtonOffersNo0_wht.png' class='respPic'></div></div>","null","9","Lucas","5","Shared","0.2,0.8","12","0.2","trustrating_stim/white_00807_941205_fb_edt.bmp","4","95","25"
"","","","decision","","60f08e2a0d6d27ff93244345","bdp_trlrn","Mon Mar 13 2023 14:25:59 GMT-0400 (Eastern Daylight Time)","389316","Untrustworthy,Trustworthy","html-keyboard-response","212","194282","0.0-19.0-1.25","","307","","<div class='trialDiv'><img src='trustrating_stim/white_00602_940928_fb_edt.bmp'><br><font class='baseline'><strong>Matthew</strong><p>Choose number of points to send.</font><div class='respPicDiv'><img src='img/responseButtonOffersNo0L.png' class='respPic'></div></div>","5","9","Matthew","11","Shared","0.2,0.65","10","0.2","trustrating_stim/white_00602_940928_fb_edt.bmp","7","100","26"
"","","","decisionFB","","60f08e2a0d6d27ff93244345","bdp_trlrn","Mon Mar 13 2023 14:25:59 GMT-0400 (Eastern Daylight Time)","389316","Untrustworthy,Trustworthy","html-keyboard-response","213","194533","0.0-19.0-2.25","","null","","<div class='trialDiv'><img src='trustrating_stim/white_00602_940928_fb_edt.bmp'><br><font class='baseline'><strong>Matthew</strong><p>Choose number of points to send.</font><div class='respPicDiv'><img src='img/responseButtonOffersNo0L5.png' class='respPic'></div></div>","null","9","Matthew","11","Shared","0.2,0.65","10","0.2","trustrating_stim/white_00602_940928_fb_edt.bmp","7","95","26"
"","","","feedback","","60f08e2a0d6d27ff93244345","bdp_trlrn","Mon Mar 13 2023 14:25:59 GMT-0400 (Eastern Daylight Time)","389316","Untrustworthy,Trustworthy","html-keyboard-response","214","195539","0.0-19.0-3.25","","null","","<div class='trialDiv'><img src='trustrating_stim/white_00602_940928_fb_edt.bmp'><br><font class='baseline'><strong>Matthew</strong><p>Received: <strong>20</strong></font> &nbsp; &nbsp; &nbsp; &nbsp; &nbsp; &nbsp;<font class='posOutcome'>Shared back: <strong>10</strong></font></font><div class='respPicDiv'><img src='img/responseButtonOffersNo0_wht.png' class='respPic'></div></div>","null","9","Matthew","11","Shared","0.2,0.65","10","0.2","trustrating_stim/white_00602_940928_fb_edt.bmp","7","105","26"
"","","","decision","","60f08e2a0d6d27ff93244345","bdp_trlrn","Mon Mar 13 2023 14:25:59 GMT-0400 (Eastern Daylight Time)","389316","Untrustworthy,Trustworthy","html-keyboard-response","215","195824","0.0-19.0-1.26","","284","","<div class='trialDiv'><img src='trustrating_stim/white_mw060.bmp'><br><font class='baseline'><strong>Devin</strong><p>Choose number of points to send.</font><div class='respPicDiv'><img src='img/responseButtonOffersNo0L.png' class='respPic'></div></div>","5","9","Devin","0","Shared","0.8,0.35","10","0.8","trustrating_stim/white_mw060.bmp","1.5","110","27"
"","","","decisionFB","","60f08e2a0d6d27ff93244345","bdp_trlrn","Mon Mar 13 2023 14:25:59 GMT-0400 (Eastern Daylight Time)","389316","Untrustworthy,Trustworthy","html-keyboard-response","216","196079","0.0-19.0-2.26","","null","","<div class='trialDiv'><img src='trustrating_stim/white_mw060.bmp'><br><font class='baseline'><strong>Devin</strong><p>Choose number of points to send.</font><div class='respPicDiv'><img src='img/responseButtonOffersNo0L5.png' class='respPic'></div></div>","null","9","Devin","0","Shared","0.8,0.35","10","0.8","trustrating_stim/white_mw060.bmp","1.5","105","27"
"","","","feedback","","60f08e2a0d6d27ff93244345","bdp_trlrn","Mon Mar 13 2023 14:25:59 GMT-0400 (Eastern Daylight Time)","389316","Untrustworthy,Trustworthy","html-keyboard-response","217","197085","0.0-19.0-3.26","","null","","<div class='trialDiv'><img src='trustrating_stim/white_mw060.bmp'><br><font class='baseline'><strong>Devin</strong><p>Received: <strong>20</strong></font> &nbsp; &nbsp; &nbsp; &nbsp; &nbsp; &nbsp;<font class='posOutcome'>Shared back: <strong>10</strong></font></font><div class='respPicDiv'><img src='img/responseButtonOffersNo0_wht.png' class='respPic'></div></div>","null","9","Devin","0","Shared","0.8,0.35","10","0.8","trustrating_stim/white_mw060.bmp","1.5","115","27"
"","","","decision","","60f08e2a0d6d27ff93244345","bdp_trlrn","Mon Mar 13 2023 14:25:59 GMT-0400 (Eastern Daylight Time)","389316","Untrustworthy,Trustworthy","html-keyboard-response","218","197354","0.0-19.0-1.27","","268","","<div class='trialDiv'><img src='trustrating_stim/white_00807_941205_fb_edt.bmp'><br><font class='baseline'><strong>Lucas</strong><p>Choose number of points to send.</font><div class='respPicDiv'><img src='img/responseButtonOffersNo0L.png' class='respPic'></div></div>","5","10","Lucas","5","Kept","0.2,0.8","12","0.2","trustrating_stim/white_00807_941205_fb_edt.bmp","4","120","28"
