"trial_type","trial_index","time_elapsed","internal_node_id","subject_id","task","startTime","totalTime","labels","view_history","rt","event","trial","time","trialtype","success","stimulus","key_press","aground","name","faceID","outcome","agenttype","agentswpt","agentcurrpshare","face","avgRating","point_total","round"
"pavlovia","0","5","0.0-0.0","60ce8efd3dc93c8607362691","bdp_trlrn","Wed Mar 15 2023 23:00:27 GMT-0400 (Eastern Daylight Time)","831363","Trustworthy,Untrustworthy","","","","","","","","","","","","","","","","","","","",""
"instructions","1","10711","0.0-1.0","60ce8efd3dc93c8607362691","bdp_trlrn","Wed Mar 15 2023 23:00:27 GMT-0400 (Eastern Daylight Time)","831363","Trustworthy,Untrustworthy","[{""page_index"":0,""viewing_time"":10705}]","10705","","","","","","","","","","","","","","","","","",""
"","","","","60ce8efd3dc93c8607362691","bdp_trlrn","Wed Mar 15 2023 23:00:27 GMT-0400 (Eastern Daylight Time)","831363","Trustworthy,Untrustworthy","","","fullscreenenter","2","18848","fullscreenenter","","","","","","","","","","","","","",""
"fullscreen","2","19831","0.0-2.0","60ce8efd3dc93c8607362691","bdp_trlrn","Wed Mar 15 2023 23:00:27 GMT-0400 (Eastern Daylight Time)","831363","Trustworthy,Untrustworthy","","","","","","","true","","","","","","","","","","","","",""
"instructions","3","62725","0.0-4.0","60ce8efd3dc93c8607362691","bdp_trlrn","Wed Mar 15 2023 23:00:27 GMT-0400 (Eastern Daylight Time)","831363","Trustworthy,Untrustworthy","[{""page_index"":0,""viewing_time"":12788},{""page_index"":1,""viewing_time"":30104}]","42892","","","","","","","","","","","","","","","","","",""
"instructions","4","64372","0.0-5.0","60ce8efd3dc93c8607362691","bdp_trlrn","Wed Mar 15 2023 23:00:27 GMT-0400 (Eastern Daylight Time)","831363","Trustworthy,Untrustworthy","[{""page_index"":0,""viewing_time"":1647}]","1647","","","","","","","","","","","","","","","","","",""
"image-keyboard-response","5","68429","0.0-6.0-1.0","60ce8efd3dc93c8607362691","bdp_trlrn","Wed Mar 15 2023 23:00:27 GMT-0400 (Eastern Daylight Time)","831363","Trustworthy,Untrustworthy","","3949","","","","rating","","trustrating_stim/white_00898_960530_fa_edt.bmp","5","","","","","","","","","","",""
"image-keyboard-response","6","68635","0.0-6.0-2.0","60ce8efd3dc93c8607362691","bdp_trlrn","Wed Mar 15 2023 23:00:27 GMT-0400 (Eastern Daylight Time)","831363","Trustworthy,Untrustworthy","","null","","","","ratingFB","","trustrating_stim/white_00898_960530_fa_edt.bmp","null","","","","","","","","","","",""
"image-keyboard-response","7","71532","0.0-6.0-1.1","60ce8efd3dc93c8607362691","bdp_trlrn","Wed Mar 15 2023 23:00:27 GMT-0400 (Eastern Daylight Time)","831363","Trustworthy,Untrustworthy","","2789","","","","rating","","trustrating_stim/white_mw089.bmp","6","","","","","","","","","","",""
"image-keyboard-response","8","71734","0.0-6.0-2.1","60ce8efd3dc93c8607362691","bdp_trlrn","Wed Mar 15 2023 23:00:27 GMT-0400 (Eastern Daylight Time)","831363","Trustworthy,Untrustworthy","","null","","","","ratingFB","","trustrating_stim/white_mw089.bmp","null","","","","","","","","","","",""
"image-keyboard-response","9","75948","0.0-6.0-1.2","60ce8efd3dc93c8607362691","bdp_trlrn","Wed Mar 15 2023 23:00:27 GMT-0400 (Eastern Daylight Time)","831363","Trustworthy,Untrustworthy","","4107","","","","rating","","trustrating_stim/white_00120_931230_fa_edt.bmp","8","","","","","","","","","","",""
"image-keyboard-response","10","76155","0.0-6.0-2.2","60ce8efd3dc93c8607362691","bdp_trlrn","Wed Mar 15 2023 23:00:27 GMT-0400 (Eastern Daylight Time)","831363","Trustworthy,Untrustworthy","","null","","","","ratingFB","","trustrating_stim/white_00120_931230_fa_edt.bmp","null","","","","","","","","","","",""
"image-keyboard-response","11","78770","0.0-6.0-1.3","60ce8efd3dc93c8607362691","bdp_trlrn","Wed Mar 15 2023 23:00:27 GMT-0400 (Eastern Daylight Time)","831363","Trustworthy,Untrustworthy","","2512","","","","rating","","trustrating_stim/white_mw060.bmp","3","","","","","","","","","","",""
"image-keyboard-response","12","78972","0.0-6.0-2.3","60ce8efd3dc93c8607362691","bdp_trlrn","Wed Mar 15 2023 23:00:27 GMT-0400 (Eastern Daylight Time)","831363","Trustworthy,Untrustworthy","","null","","","","ratingFB","","trustrating_stim/white_mw060.bmp","null","","","","","","","","","","",""
"image-keyboard-response","13","81763","0.0-6.0-1.4","60ce8efd3dc93c8607362691","bdp_trlrn","Wed Mar 15 2023 23:00:27 GMT-0400 (Eastern Daylight Time)","831363","Trustworthy,Untrustworthy","","2687","","","","rating","","trustrating_stim/white_mw066.bmp","6","","","","","","","","","","",""
"image-keyboard-response","14","81969","0.0-6.0-2.4","60ce8efd3dc93c8607362691","bdp_trlrn","Wed Mar 15 2023 23:00:27 GMT-0400 (Eastern Daylight Time)","831363","Trustworthy,Untrustworthy","","null","","","","ratingFB","","trustrating_stim/white_mw066.bmp","null","","","","","","","","","","",""
"image-keyboard-response","15","84731","0.0-6.0-1.5","60ce8efd3dc93c8607362691","bdp_trlrn","Wed Mar 15 2023 23:00:27 GMT-0400 (Eastern Daylight Time)","831363","Trustworthy,Untrustworthy","","2660","","","","rating","","trustrating_stim/white_mw048.bmp","3","","","","","","","","","","",""
"image-keyboard-response","16","84935","0.0-6.0-2.5","60ce8efd3dc93c8607362691","bdp_trlrn","Wed Mar 15 2023 23:00:27 GMT-0400 (Eastern Daylight Time)","831363","Trustworthy,Untrustworthy","","null","","","","ratingFB","","trustrating_stim/white_mw048.bmp","null","","","","","","","","","","",""
"image-keyboard-response","17","87492","0.0-6.0-1.6","60ce8efd3dc93c8607362691","bdp_trlrn","Wed Mar 15 2023 23:00:27 GMT-0400 (Eastern Daylight Time)","831363","Trustworthy,Untrustworthy","","2450","","","","rating","","trustrating_stim/white_00577_940928_fa_edt.bmp","8","","","","","","","","","","",""
"image-keyboard-response","18","87696","0.0-6.0-2.6","60ce8efd3dc93c8607362691","bdp_trlrn","Wed Mar 15 2023 23:00:27 GMT-0400 (Eastern Daylight Time)","831363","Trustworthy,Untrustworthy","","null","","","","ratingFB","","trustrating_stim/white_00577_940928_fa_edt.bmp","null","","","","","","","","","","",""
"image-keyboard-response","19","89988","0.0-6.0-1.7","60ce8efd3dc93c8607362691","bdp_trlrn","Wed Mar 15 2023 23:00:27 GMT-0400 (Eastern Daylight Time)","831363","Trustworthy,Untrustworthy","","2187","","","","rating","","trustrating_stim/white_mw053.bmp","9","","","","","","","","","","",""
"image-keyboard-response","20","90194","0.0-6.0-2.7","60ce8efd3dc93c8607362691","bdp_trlrn","Wed Mar 15 2023 23:00:27 GMT-0400 (Eastern Daylight Time)","831363","Trustworthy,Untrustworthy","","null","","","","ratingFB","","trustrating_stim/white_mw053.bmp","null","","","","","","","","","","",""
"image-keyboard-response","21","92475","0.0-6.0-1.8","60ce8efd3dc93c8607362691","bdp_trlrn","Wed Mar 15 2023 23:00:27 GMT-0400 (Eastern Daylight Time)","831363","Trustworthy,Untrustworthy","","2175","","","","rating","","trustrating_stim/white_00299_940422_fa_edt.bmp","8","","","","","","","","","","",""
"image-keyboard-response","22","92682","0.0-6.0-2.8","60ce8efd3dc93c8607362691","bdp_trlrn","Wed Mar 15 2023 23:00:27 GMT-0400 (Eastern Daylight Time)","831363","Trustworthy,Untrustworthy","","null","","","","ratingFB","","trustrating_stim/white_00299_940422_fa_edt.bmp","null","","","","","","","","","","",""
"image-keyboard-response","23","94644","0.0-6.0-1.9","60ce8efd3dc93c8607362691","bdp_trlrn","Wed Mar 15 2023 23:00:27 GMT-0400 (Eastern Daylight Time)","831363","Trustworthy,Untrustworthy","","1859","","","","rating","","trustrating_stim/white_mw084.bmp","6","","","","","","","","","","",""
"image-keyboard-response","24","94850","0.0-6.0-2.9","60ce8efd3dc93c8607362691","bdp_trlrn","Wed Mar 15 2023 23:00:27 GMT-0400 (Eastern Daylight Time)","831363","Trustworthy,Untrustworthy","","null","","","","ratingFB","","trustrating_stim/white_mw084.bmp","null","","","","","","","","","","",""
"image-keyboard-response","25","97644","0.0-6.0-1.10","60ce8efd3dc93c8607362691","bdp_trlrn","Wed Mar 15 2023 23:00:27 GMT-0400 (Eastern Daylight Time)","831363","Trustworthy,Untrustworthy","","2691","","","","rating","","trustrating_stim/white_mw046.bmp","4","","","","","","","","","","",""
"image-keyboard-response","26","97851","0.0-6.0-2.10","60ce8efd3dc93c8607362691","bdp_trlrn","Wed Mar 15 2023 23:00:27 GMT-0400 (Eastern Daylight Time)","831363","Trustworthy,Untrustworthy","","null","","","","ratingFB","","trustrating_stim/white_mw046.bmp","null","","","","","","","","","","",""
"image-keyboard-response","27","99867","0.0-6.0-1.11","60ce8efd3dc93c8607362691","bdp_trlrn","Wed Mar 15 2023 23:00:27 GMT-0400 (Eastern Daylight Time)","831363","Trustworthy,Untrustworthy","","1910","","","","rating","","trustrating_stim/white_00129_931230_fb_edt.bmp","6","","","","","","","","","","",""
"image-keyboard-response","28","100074","0.0-6.0-2.11","60ce8efd3dc93c8607362691","bdp_trlrn","Wed Mar 15 2023 23:00:27 GMT-0400 (Eastern Daylight Time)","831363","Trustworthy,Untrustworthy","","null","","","","ratingFB","","trustrating_stim/white_00129_931230_fb_edt.bmp","null","","","","","","","","","","",""
"image-keyboard-response","29","101283","0.0-6.0-1.12","60ce8efd3dc93c8607362691","bdp_trlrn","Wed Mar 15 2023 23:00:27 GMT-0400 (Eastern Daylight Time)","831363","Trustworthy,Untrustworthy","","1106","","","","rating","","trustrating_stim/white_mw035.bmp","6","","","","","","","","","","",""
"image-keyboard-response","30","101485","0.0-6.0-2.12","60ce8efd3dc93c8607362691","bdp_trlrn","Wed Mar 15 2023 23:00:27 GMT-0400 (Eastern Daylight Time)","831363","Trustworthy,Untrustworthy","","null","","","","ratingFB","","trustrating_stim/white_mw035.bmp","null","","","","","","","","","","",""
"image-keyboard-response","31","103795","0.0-6.0-1.13","60ce8efd3dc93c8607362691","bdp_trlrn","Wed Mar 15 2023 23:00:27 GMT-0400 (Eastern Daylight Time)","831363","Trustworthy,Untrustworthy","","2203","","","","rating","","trustrating_stim/white_mw033.bmp","6","","","","","","","","","","",""
"image-keyboard-response","32","103999","0.0-6.0-2.13","60ce8efd3dc93c8607362691","bdp_trlrn","Wed Mar 15 2023 23:00:27 GMT-0400 (Eastern Daylight Time)","831363","Trustworthy,Untrustworthy","","null","","","","ratingFB","","trustrating_stim/white_mw033.bmp","null","","","","","","","","","","",""
"image-keyboard-response","33","106019","0.0-6.0-1.14","60ce8efd3dc93c8607362691","bdp_trlrn","Wed Mar 15 2023 23:00:27 GMT-0400 (Eastern Daylight Time)","831363","Trustworthy,Untrustworthy","","1914","","","","rating","","trustrating_stim/white_mw097.bmp","6","","","","","","","","","","",""
"image-keyboard-response","34","106226","0.0-6.0-2.14","60ce8efd3dc93c8607362691","bdp_trlrn","Wed Mar 15 2023 23:00:27 GMT-0400 (Eastern Daylight Time)","831363","Trustworthy,Untrustworthy","","null","","","","ratingFB","","trustrating_stim/white_mw097.bmp","null","","","","","","","","","","",""
"image-keyboard-response","35","108428","0.0-6.0-1.15","60ce8efd3dc93c8607362691","bdp_trlrn","Wed Mar 15 2023 23:00:27 GMT-0400 (Eastern Daylight Time)","831363","Trustworthy,Untrustworthy","","2100","","","","rating","","trustrating_stim/white_00659_941121_fa_edt.bmp","5","","","","","","","","","","",""
"image-keyboard-response","36","108630","0.0-6.0-2.15","60ce8efd3dc93c8607362691","bdp_trlrn","Wed Mar 15 2023 23:00:27 GMT-0400 (Eastern Daylight Time)","831363","Trustworthy,Untrustworthy","","null","","","","ratingFB","","trustrating_stim/white_00659_941121_fa_edt.bmp","null","","","","","","","","","","",""
"image-keyboard-response","37","110275","0.0-6.0-1.16","60ce8efd3dc93c8607362691","bdp_trlrn","Wed Mar 15 2023 23:00:27 GMT-0400 (Eastern Daylight Time)","831363","Trustworthy,Untrustworthy","","1539","","","","rating","","trustrating_stim/white_mw099.bmp","5","","","","","","","","","","",""
"image-keyboard-response","38","110481","0.0-6.0-2.16","60ce8efd3dc93c8607362691","bdp_trlrn","Wed Mar 15 2023 23:00:27 GMT-0400 (Eastern Daylight Time)","831363","Trustworthy,Untrustworthy","","null","","","","ratingFB","","trustrating_stim/white_mw099.bmp","null","","","","","","","","","","",""
"image-keyboard-response","39","113315","0.0-6.0-1.17","60ce8efd3dc93c8607362691","bdp_trlrn","Wed Mar 15 2023 23:00:27 GMT-0400 (Eastern Daylight Time)","831363","Trustworthy,Untrustworthy","","2730","","","","rating","","trustrating_stim/white_00223_940128_fb_edt.bmp","7","","","","","","","","","","",""
"image-keyboard-response","40","113522","0.0-6.0-2.17","60ce8efd3dc93c8607362691","bdp_trlrn","Wed Mar 15 2023 23:00:27 GMT-0400 (Eastern Daylight Time)","831363","Trustworthy,Untrustworthy","","null","","","","ratingFB","","trustrating_stim/white_00223_940128_fb_edt.bmp","null","","","","","","","","","","",""
"image-keyboard-response","41","117539","0.0-6.0-1.18","60ce8efd3dc93c8607362691","bdp_trlrn","Wed Mar 15 2023 23:00:27 GMT-0400 (Eastern Daylight Time)","831363","Trustworthy,Untrustworthy","","3910","","","","rating","","trustrating_stim/white_00807_941205_fb_edt.bmp","6","","","","","","","","","","",""
"image-keyboard-response","42","117746","0.0-6.0-2.18","60ce8efd3dc93c8607362691","bdp_trlrn","Wed Mar 15 2023 23:00:27 GMT-0400 (Eastern Daylight Time)","831363","Trustworthy,Untrustworthy","","null","","","","ratingFB","","trustrating_stim/white_00807_941205_fb_edt.bmp","null","","","","","","","","","","",""
"image-keyboard-response","43","119980","0.0-6.0-1.19","60ce8efd3dc93c8607362691","bdp_trlrn","Wed Mar 15 2023 23:00:27 GMT-0400 (Eastern Daylight Time)","831363","Trustworthy,Untrustworthy","","2126","","","","rating","","trustrating_stim/white_00340_940422_fa_edt.bmp","4","","","","","","","","","","",""
"image-keyboard-response","44","120181","0.0-6.0-2.19","60ce8efd3dc93c8607362691","bdp_trlrn","Wed Mar 15 2023 23:00:27 GMT-0400 (Eastern Daylight Time)","831363","Trustworthy,Untrustworthy","","null","","","","ratingFB","","trustrating_stim/white_00340_940422_fa_edt.bmp","null","","","","","","","","","","",""
"image-keyboard-response","45","122219","0.0-6.0-1.20","60ce8efd3dc93c8607362691","bdp_trlrn","Wed Mar 15 2023 23:00:27 GMT-0400 (Eastern Daylight Time)","831363","Trustworthy,Untrustworthy","","1933","","","","rating","","trustrating_stim/white_00109_931230_fa_edt.bmp","7","","","","","","","","","","",""
"image-keyboard-response","46","122421","0.0-6.0-2.20","60ce8efd3dc93c8607362691","bdp_trlrn","Wed Mar 15 2023 23:00:27 GMT-0400 (Eastern Daylight Time)","831363","Trustworthy,Untrustworthy","","null","","","","ratingFB","","trustrating_stim/white_00109_931230_fa_edt.bmp","null","","","","","","","","","","",""
"image-keyboard-response","47","125275","0.0-6.0-1.21","60ce8efd3dc93c8607362691","bdp_trlrn","Wed Mar 15 2023 23:00:27 GMT-0400 (Eastern Daylight Time)","831363","Trustworthy,Untrustworthy","","2748","","","","rating","","trustrating_stim/white_00785_941205_fb_edt.bmp","4","","","","","","","","","","",""
"image-keyboard-response","48","125482","0.0-6.0-2.21","60ce8efd3dc93c8607362691","bdp_trlrn","Wed Mar 15 2023 23:00:27 GMT-0400 (Eastern Daylight Time)","831363","Trustworthy,Untrustworthy","","null","","","","ratingFB","","trustrating_stim/white_00785_941205_fb_edt.bmp","null","","","","","","","","","","",""
"image-keyboard-response","49","127139","0.0-6.0-1.22","60ce8efd3dc93c8607362691","bdp_trlrn","Wed Mar 15 2023 23:00:27 GMT-0400 (Eastern Daylight Time)","831363","Trustworthy,Untrustworthy","","1553","","","","rating","","trustrating_stim/white_mw049.bmp","6","","","","","","","","","","",""
"image-keyboard-response","50","127345","0.0-6.0-2.22","60ce8efd3dc93c8607362691","bdp_trlrn","Wed Mar 15 2023 23:00:27 GMT-0400 (Eastern Daylight Time)","831363","Trustworthy,Untrustworthy","","null","","","","ratingFB","","trustrating_stim/white_mw049.bmp","null","","","","","","","","","","",""
"image-keyboard-response","51","129700","0.0-6.0-1.23","60ce8efd3dc93c8607362691","bdp_trlrn","Wed Mar 15 2023 23:00:27 GMT-0400 (Eastern Daylight Time)","831363","Trustworthy,Untrustworthy","","2249","","","","rating","","trustrating_stim/white_mw071.bmp","6","","","","","","","","","","",""
"image-keyboard-response","52","129906","0.0-6.0-2.23","60ce8efd3dc93c8607362691","bdp_trlrn","Wed Mar 15 2023 23:00:27 GMT-0400 (Eastern Daylight Time)","831363","Trustworthy,Untrustworthy","","null","","","","ratingFB","","trustrating_stim/white_mw071.bmp","null","","","","","","","","","","",""
"image-keyboard-response","53","131347","0.0-6.0-1.24","60ce8efd3dc93c8607362691","bdp_trlrn","Wed Mar 15 2023 23:00:27 GMT-0400 (Eastern Daylight Time)","831363","Trustworthy,Untrustworthy","","1334","","","","rating","","trustrating_stim/white_00602_940928_fb_edt.bmp","6","","","","","","","","","","",""
"image-keyboard-response","54","131554","0.0-6.0-2.24","60ce8efd3dc93c8607362691","bdp_trlrn","Wed Mar 15 2023 23:00:27 GMT-0400 (Eastern Daylight Time)","831363","Trustworthy,Untrustworthy","","null","","","","ratingFB","","trustrating_stim/white_00602_940928_fb_edt.bmp","null","","","","","","","","","","",""
"image-keyboard-response","55","133507","0.0-6.0-1.25","60ce8efd3dc93c8607362691","bdp_trlrn","Wed Mar 15 2023 23:00:27 GMT-0400 (Eastern Daylight Time)","831363","Trustworthy,Untrustworthy","","1848","","","","rating","","trustrating_stim/white_00519_940519_fb_edt.bmp","7","","","","","","","","","","",""
"image-keyboard-response","56","133713","0.0-6.0-2.25","60ce8efd3dc93c8607362691","bdp_trlrn","Wed Mar 15 2023 23:00:27 GMT-0400 (Eastern Daylight Time)","831363","Trustworthy,Untrustworthy","","null","","","","ratingFB","","trustrating_stim/white_00519_940519_fb_edt.bmp","null","","","","","","","","","","",""
"image-keyboard-response","57","135435","0.0-6.0-1.26","60ce8efd3dc93c8607362691","bdp_trlrn","Wed Mar 15 2023 23:00:27 GMT-0400 (Eastern Daylight Time)","831363","Trustworthy,Untrustworthy","","1617","","","","rating","","trustrating_stim/white_mw063.bmp","4","","","","","","","","","","",""
"image-keyboard-response","58","135641","0.0-6.0-2.26","60ce8efd3dc93c8607362691","bdp_trlrn","Wed Mar 15 2023 23:00:27 GMT-0400 (Eastern Daylight Time)","831363","Trustworthy,Untrustworthy","","null","","","","ratingFB","","trustrating_stim/white_mw063.bmp","null","","","","","","","","","","",""
"image-keyboard-response","59","137507","0.0-6.0-1.27","60ce8efd3dc93c8607362691","bdp_trlrn","Wed Mar 15 2023 23:00:27 GMT-0400 (Eastern Daylight Time)","831363","Trustworthy,Untrustworthy","","1761","","","","rating","","trustrating_stim/white_mw056.bmp","5","","","","","","","","","","",""
"image-keyboard-response","60","137712","0.0-6.0-2.27","60ce8efd3dc93c8607362691","bdp_trlrn","Wed Mar 15 2023 23:00:27 GMT-0400 (Eastern Daylight Time)","831363","Trustworthy,Untrustworthy","","null","","","","ratingFB","","trustrating_stim/white_mw056.bmp","null","","","","","","","","","","",""
"image-keyboard-response","61","140034","0.0-6.0-1.28","60ce8efd3dc93c8607362691","bdp_trlrn","Wed Mar 15 2023 23:00:27 GMT-0400 (Eastern Daylight Time)","831363","Trustworthy,Untrustworthy","","2215","","","","rating","","trustrating_stim/white_00757_941201_fa_edt.bmp","6","","","","","","","","","","",""
"image-keyboard-response","62","140241","0.0-6.0-2.28","60ce8efd3dc93c8607362691","bdp_trlrn","Wed Mar 15 2023 23:00:27 GMT-0400 (Eastern Daylight Time)","831363","Trustworthy,Untrustworthy","","null","","","","ratingFB","","trustrating_stim/white_00757_941201_fa_edt.bmp","null","","","","","","","","","","",""
"image-keyboard-response","63","142507","0.0-6.0-1.29","60ce8efd3dc93c8607362691","bdp_trlrn","Wed Mar 15 2023 23:00:27 GMT-0400 (Eastern Daylight Time)","831363","Trustworthy,Untrustworthy","","2159","","","","rating","","trustrating_stim/white_00761_941201_fb_edt.bmp","7","","","","","","","","","","",""
"image-keyboard-response","64","142713","0.0-6.0-2.29","60ce8efd3dc93c8607362691","bdp_trlrn","Wed Mar 15 2023 23:00:27 GMT-0400 (Eastern Daylight Time)","831363","Trustworthy,Untrustworthy","","null","","","","ratingFB","","trustrating_stim/white_00761_941201_fb_edt.bmp","null","","","","","","","","","","",""
"image-keyboard-response","65","144067","0.0-6.0-1.30","60ce8efd3dc93c8607362691","bdp_trlrn","Wed Mar 15 2023 23:00:27 GMT-0400 (Eastern Daylight Time)","831363","Trustworthy,Untrustworthy","","1248","","","","rating","","trustrating_stim/white_00120_931230_fa_edt.bmp","7","","","","","","","","","","",""
"image-keyboard-response","66","144271","0.0-6.0-2.30","60ce8efd3dc93c8607362691","bdp_trlrn","Wed Mar 15 2023 23:00:27 GMT-0400 (Eastern Daylight Time)","831363","Trustworthy,Untrustworthy","","null","","","","ratingFB","","trustrating_stim/white_00120_931230_fa_edt.bmp","null","","","","","","","","","","",""
"image-keyboard-response","67","148411","0.0-6.0-1.31","60ce8efd3dc93c8607362691","bdp_trlrn","Wed Mar 15 2023 23:00:27 GMT-0400 (Eastern Daylight Time)","831363","Trustworthy,Untrustworthy","","4032","","","","rating","","trustrating_stim/white_00898_960530_fa_edt.bmp","6","","","","","","","","","","",""
"image-keyboard-response","68","148617","0.0-6.0-2.31","60ce8efd3dc93c8607362691","bdp_trlrn","Wed Mar 15 2023 23:00:27 GMT-0400 (Eastern Daylight Time)","831363","Trustworthy,Untrustworthy","","null","","","","ratingFB","","trustrating_stim/white_00898_960530_fa_edt.bmp","null","","","","","","","","","","",""
"image-keyboard-response","69","151219","0.0-6.0-1.32","60ce8efd3dc93c8607362691","bdp_trlrn","Wed Mar 15 2023 23:00:27 GMT-0400 (Eastern Daylight Time)","831363","Trustworthy,Untrustworthy","","2493","","","","rating","","trustrating_stim/white_00340_940422_fa_edt.bmp","7","","","","","","","","","","",""
"image-keyboard-response","70","151424","0.0-6.0-2.32","60ce8efd3dc93c8607362691","bdp_trlrn","Wed Mar 15 2023 23:00:27 GMT-0400 (Eastern Daylight Time)","831363","Trustworthy,Untrustworthy","","null","","","","ratingFB","","trustrating_stim/white_00340_940422_fa_edt.bmp","null","","","","","","","","","","",""
"image-keyboard-response","71","159619","0.0-6.0-1.33","60ce8efd3dc93c8607362691","bdp_trlrn","Wed Mar 15 2023 23:00:27 GMT-0400 (Eastern Daylight Time)","831363","Trustworthy,Untrustworthy","","8087","","","","rating","","trustrating_stim/white_00577_940928_fa_edt.bmp","6","","","","","","","","","","",""
"image-keyboard-response","72","159824","0.0-6.0-2.33","60ce8efd3dc93c8607362691","bdp_trlrn","Wed Mar 15 2023 23:00:27 GMT-0400 (Eastern Daylight Time)","831363","Trustworthy,Untrustworthy","","null","","","","ratingFB","","trustrating_stim/white_00577_940928_fa_edt.bmp","null","","","","","","","","","","",""
"image-keyboard-response","73","162058","0.0-6.0-1.34","60ce8efd3dc93c8607362691","bdp_trlrn","Wed Mar 15 2023 23:00:27 GMT-0400 (Eastern Daylight Time)","831363","Trustworthy,Untrustworthy","","2127","","","","rating","","trustrating_stim/white_00129_931230_fb_edt.bmp","7","","","","","","","","","","",""
"image-keyboard-response","74","162262","0.0-6.0-2.34","60ce8efd3dc93c8607362691","bdp_trlrn","Wed Mar 15 2023 23:00:27 GMT-0400 (Eastern Daylight Time)","831363","Trustworthy,Untrustworthy","","null","","","","ratingFB","","trustrating_stim/white_00129_931230_fb_edt.bmp","null","","","","","","","","","","",""
"image-keyboard-response","75","164162","0.0-6.0-1.35","60ce8efd3dc93c8607362691","bdp_trlrn","Wed Mar 15 2023 23:00:27 GMT-0400 (Eastern Daylight Time)","831363","Trustworthy,Untrustworthy","","1792","","","","rating","","trustrating_stim/white_mw056.bmp","6","","","","","","","","","","",""
"image-keyboard-response","76","164369","0.0-6.0-2.35","60ce8efd3dc93c8607362691","bdp_trlrn","Wed Mar 15 2023 23:00:27 GMT-0400 (Eastern Daylight Time)","831363","Trustworthy,Untrustworthy","","null","","","","ratingFB","","trustrating_stim/white_mw056.bmp","null","","","","","","","","","","",""
"image-keyboard-response","77","166202","0.0-6.0-1.36","60ce8efd3dc93c8607362691","bdp_trlrn","Wed Mar 15 2023 23:00:27 GMT-0400 (Eastern Daylight Time)","831363","Trustworthy,Untrustworthy","","1727","","","","rating","","trustrating_stim/white_00659_941121_fa_edt.bmp","3","","","","","","","","","","",""
"image-keyboard-response","78","166404","0.0-6.0-2.36","60ce8efd3dc93c8607362691","bdp_trlrn","Wed Mar 15 2023 23:00:27 GMT-0400 (Eastern Daylight Time)","831363","Trustworthy,Untrustworthy","","null","","","","ratingFB","","trustrating_stim/white_00659_941121_fa_edt.bmp","null","","","","","","","","","","",""
"image-keyboard-response","79","167786","0.0-6.0-1.37","60ce8efd3dc93c8607362691","bdp_trlrn","Wed Mar 15 2023 23:00:27 GMT-0400 (Eastern Daylight Time)","831363","Trustworthy,Untrustworthy","","1275","","","","rating","","trustrating_stim/white_mw084.bmp","4","","","","","","","","","","",""
"image-keyboard-response","80","167992","0.0-6.0-2.37","60ce8efd3dc93c8607362691","bdp_trlrn","Wed Mar 15 2023 23:00:27 GMT-0400 (Eastern Daylight Time)","831363","Trustworthy,Untrustworthy","","null","","","","ratingFB","","trustrating_stim/white_mw084.bmp","null","","","","","","","","","","",""
"image-keyboard-response","81","169715","0.0-6.0-1.38","60ce8efd3dc93c8607362691","bdp_trlrn","Wed Mar 15 2023 23:00:27 GMT-0400 (Eastern Daylight Time)","831363","Trustworthy,Untrustworthy","","1615","","","","rating","","trustrating_stim/white_00602_940928_fb_edt.bmp","5","","","","","","","","","","",""
"image-keyboard-response","82","169917","0.0-6.0-2.38","60ce8efd3dc93c8607362691","bdp_trlrn","Wed Mar 15 2023 23:00:27 GMT-0400 (Eastern Daylight Time)","831363","Trustworthy,Untrustworthy","","null","","","","ratingFB","","trustrating_stim/white_00602_940928_fb_edt.bmp","null","","","","","","","","","","",""
"image-keyboard-response","83","171946","0.0-6.0-1.39","60ce8efd3dc93c8607362691","bdp_trlrn","Wed Mar 15 2023 23:00:27 GMT-0400 (Eastern Daylight Time)","831363","Trustworthy,Untrustworthy","","1924","","","","rating","","trustrating_stim/white_mw063.bmp","3","","","","","","","","","","",""
"image-keyboard-response","84","172152","0.0-6.0-2.39","60ce8efd3dc93c8607362691","bdp_trlrn","Wed Mar 15 2023 23:00:27 GMT-0400 (Eastern Daylight Time)","831363","Trustworthy,Untrustworthy","","null","","","","ratingFB","","trustrating_stim/white_mw063.bmp","null","","","","","","","","","","",""
"image-keyboard-response","85","174155","0.0-6.0-1.40","60ce8efd3dc93c8607362691","bdp_trlrn","Wed Mar 15 2023 23:00:27 GMT-0400 (Eastern Daylight Time)","831363","Trustworthy,Untrustworthy","","1894","","","","rating","","trustrating_stim/white_mw046.bmp","3","","","","","","","","","","",""
"image-keyboard-response","86","174358","0.0-6.0-2.40","60ce8efd3dc93c8607362691","bdp_trlrn","Wed Mar 15 2023 23:00:27 GMT-0400 (Eastern Daylight Time)","831363","Trustworthy,Untrustworthy","","null","","","","ratingFB","","trustrating_stim/white_mw046.bmp","null","","","","","","","","","","",""
"image-keyboard-response","87","176098","0.0-6.0-1.41","60ce8efd3dc93c8607362691","bdp_trlrn","Wed Mar 15 2023 23:00:27 GMT-0400 (Eastern Daylight Time)","831363","Trustworthy,Untrustworthy","","1631","","","","rating","","trustrating_stim/white_mw048.bmp","2","","","","","","","","","","",""
"image-keyboard-response","88","176301","0.0-6.0-2.41","60ce8efd3dc93c8607362691","bdp_trlrn","Wed Mar 15 2023 23:00:27 GMT-0400 (Eastern Daylight Time)","831363","Trustworthy,Untrustworthy","","null","","","","ratingFB","","trustrating_stim/white_mw048.bmp","null","","","","","","","","","","",""
"image-keyboard-response","89","177786","0.0-6.0-1.42","60ce8efd3dc93c8607362691","bdp_trlrn","Wed Mar 15 2023 23:00:27 GMT-0400 (Eastern Daylight Time)","831363","Trustworthy,Untrustworthy","","1377","","","","rating","","trustrating_stim/white_mw060.bmp","3","","","","","","","","","","",""
"image-keyboard-response","90","177992","0.0-6.0-2.42","60ce8efd3dc93c8607362691","bdp_trlrn","Wed Mar 15 2023 23:00:27 GMT-0400 (Eastern Daylight Time)","831363","Trustworthy,Untrustworthy","","null","","","","ratingFB","","trustrating_stim/white_mw060.bmp","null","","","","","","","","","","",""
"image-keyboard-response","91","180707","0.0-6.0-1.43","60ce8efd3dc93c8607362691","bdp_trlrn","Wed Mar 15 2023 23:00:27 GMT-0400 (Eastern Daylight Time)","831363","Trustworthy,Untrustworthy","","2607","","","","rating","","trustrating_stim/white_mw099.bmp","5","","","","","","","","","","",""
"image-keyboard-response","92","180910","0.0-6.0-2.43","60ce8efd3dc93c8607362691","bdp_trlrn","Wed Mar 15 2023 23:00:27 GMT-0400 (Eastern Daylight Time)","831363","Trustworthy,Untrustworthy","","null","","","","ratingFB","","trustrating_stim/white_mw099.bmp","null","","","","","","","","","","",""
"image-keyboard-response","93","182106","0.0-6.0-1.44","60ce8efd3dc93c8607362691","bdp_trlrn","Wed Mar 15 2023 23:00:27 GMT-0400 (Eastern Daylight Time)","831363","Trustworthy,Untrustworthy","","1089","","","","rating","","trustrating_stim/white_00761_941201_fb_edt.bmp","6","","","","","","","","","","",""
"image-keyboard-response","94","182309","0.0-6.0-2.44","60ce8efd3dc93c8607362691","bdp_trlrn","Wed Mar 15 2023 23:00:27 GMT-0400 (Eastern Daylight Time)","831363","Trustworthy,Untrustworthy","","null","","","","ratingFB","","trustrating_stim/white_00761_941201_fb_edt.bmp","null","","","","","","","","","","",""
"image-keyboard-response","95","185010","0.0-6.0-1.45","60ce8efd3dc93c8607362691","bdp_trlrn","Wed Mar 15 2023 23:00:27 GMT-0400 (Eastern Daylight Time)","831363","Trustworthy,Untrustworthy","","2594","","","","rating","","trustrating_stim/white_00109_931230_fa_edt.bmp","6","","","","","","","","","","",""
"image-keyboard-response","96","185213","0.0-6.0-2.45","60ce8efd3dc93c8607362691","bdp_trlrn","Wed Mar 15 2023 23:00:27 GMT-0400 (Eastern Daylight Time)","831363","Trustworthy,Untrustworthy","","null","","","","ratingFB","","trustrating_stim/white_00109_931230_fa_edt.bmp","null","","","","","","","","","","",""
"image-keyboard-response","97","186491","0.0-6.0-1.46","60ce8efd3dc93c8607362691","bdp_trlrn","Wed Mar 15 2023 23:00:27 GMT-0400 (Eastern Daylight Time)","831363","Trustworthy,Untrustworthy","","1170","","","","rating","","trustrating_stim/white_00299_940422_fa_edt.bmp","6","","","","","","","","","","",""
"image-keyboard-response","98","186697","0.0-6.0-2.46","60ce8efd3dc93c8607362691","bdp_trlrn","Wed Mar 15 2023 23:00:27 GMT-0400 (Eastern Daylight Time)","831363","Trustworthy,Untrustworthy","","null","","","","ratingFB","","trustrating_stim/white_00299_940422_fa_edt.bmp","null","","","","","","","","","","",""
"image-keyboard-response","99","189162","0.0-6.0-1.47","60ce8efd3dc93c8607362691","bdp_trlrn","Wed Mar 15 2023 23:00:27 GMT-0400 (Eastern Daylight Time)","831363","Trustworthy,Untrustworthy","","2357","","","","rating","","trustrating_stim/white_00757_941201_fa_edt.bmp","6","","","","","","","","","","",""
"image-keyboard-response","100","189367","0.0-6.0-2.47","60ce8efd3dc93c8607362691","bdp_trlrn","Wed Mar 15 2023 23:00:27 GMT-0400 (Eastern Daylight Time)","831363","Trustworthy,Untrustworthy","","null","","","","ratingFB","","trustrating_stim/white_00757_941201_fa_edt.bmp","null","","","","","","","","","","",""
"image-keyboard-response","101","191082","0.0-6.0-1.48","60ce8efd3dc93c8607362691","bdp_trlrn","Wed Mar 15 2023 23:00:27 GMT-0400 (Eastern Daylight Time)","831363","Trustworthy,Untrustworthy","","1607","","","","rating","","trustrating_stim/white_mw089.bmp","5","","","","","","","","","","",""
"image-keyboard-response","102","191288","0.0-6.0-2.48","60ce8efd3dc93c8607362691","bdp_trlrn","Wed Mar 15 2023 23:00:27 GMT-0400 (Eastern Daylight Time)","831363","Trustworthy,Untrustworthy","","null","","","","ratingFB","","trustrating_stim/white_mw089.bmp","null","","","","","","","","","","",""
"image-keyboard-response","103","193042","0.0-6.0-1.49","60ce8efd3dc93c8607362691","bdp_trlrn","Wed Mar 15 2023 23:00:27 GMT-0400 (Eastern Daylight Time)","831363","Trustworthy,Untrustworthy","","1645","","","","rating","","trustrating_stim/white_mw035.bmp","5","","","","","","","","","","",""
"image-keyboard-response","104","193248","0.0-6.0-2.49","60ce8efd3dc93c8607362691","bdp_trlrn","Wed Mar 15 2023 23:00:27 GMT-0400 (Eastern Daylight Time)","831363","Trustworthy,Untrustworthy","","null","","","","ratingFB","","trustrating_stim/white_mw035.bmp","null","","","","","","","","","","",""
"image-keyboard-response","105","195226","0.0-6.0-1.50","60ce8efd3dc93c8607362691","bdp_trlrn","Wed Mar 15 2023 23:00:27 GMT-0400 (Eastern Daylight Time)","831363","Trustworthy,Untrustworthy","","1871","","","","rating","","trustrating_stim/white_00223_940128_fb_edt.bmp","5","","","","","","","","","","",""
"image-keyboard-response","106","195432","0.0-6.0-2.50","60ce8efd3dc93c8607362691","bdp_trlrn","Wed Mar 15 2023 23:00:27 GMT-0400 (Eastern Daylight Time)","831363","Trustworthy,Untrustworthy","","null","","","","ratingFB","","trustrating_stim/white_00223_940128_fb_edt.bmp","null","","","","","","","","","","",""
"image-keyboard-response","107","196945","0.0-6.0-1.51","60ce8efd3dc93c8607362691","bdp_trlrn","Wed Mar 15 2023 23:00:27 GMT-0400 (Eastern Daylight Time)","831363","Trustworthy,Untrustworthy","","1407","","","","rating","","trustrating_stim/white_mw097.bmp","6","","","","","","","","","","",""
"image-keyboard-response","108","197151","0.0-6.0-2.51","60ce8efd3dc93c8607362691","bdp_trlrn","Wed Mar 15 2023 23:00:27 GMT-0400 (Eastern Daylight Time)","831363","Trustworthy,Untrustworthy","","null","","","","ratingFB","","trustrating_stim/white_mw097.bmp","null","","","","","","","","","","",""
"image-keyboard-response","109","199025","0.0-6.0-1.52","60ce8efd3dc93c8607362691","bdp_trlrn","Wed Mar 15 2023 23:00:27 GMT-0400 (Eastern Daylight Time)","831363","Trustworthy,Untrustworthy","","1766","","","","rating","","trustrating_stim/white_mw033.bmp","5","","","","","","","","","","",""
"image-keyboard-response","110","199232","0.0-6.0-2.52","60ce8efd3dc93c8607362691","bdp_trlrn","Wed Mar 15 2023 23:00:27 GMT-0400 (Eastern Daylight Time)","831363","Trustworthy,Untrustworthy","","null","","","","ratingFB","","trustrating_stim/white_mw033.bmp","null","","","","","","","","","","",""
"image-keyboard-response","111","202034","0.0-6.0-1.53","60ce8efd3dc93c8607362691","bdp_trlrn","Wed Mar 15 2023 23:00:27 GMT-0400 (Eastern Daylight Time)","831363","Trustworthy,Untrustworthy","","2699","","","","rating","","trustrating_stim/white_mw066.bmp","6","","","","","","","","","","",""
"image-keyboard-response","112","202240","0.0-6.0-2.53","60ce8efd3dc93c8607362691","bdp_trlrn","Wed Mar 15 2023 23:00:27 GMT-0400 (Eastern Daylight Time)","831363","Trustworthy,Untrustworthy","","null","","","","ratingFB","","trustrating_stim/white_mw066.bmp","null","","","","","","","","","","",""
"image-keyboard-response","113","203618","0.0-6.0-1.54","60ce8efd3dc93c8607362691","bdp_trlrn","Wed Mar 15 2023 23:00:27 GMT-0400 (Eastern Daylight Time)","831363","Trustworthy,Untrustworthy","","1274","","","","rating","","trustrating_stim/white_mw071.bmp","6","","","","","","","","","","",""
"image-keyboard-response","114","203822","0.0-6.0-2.54","60ce8efd3dc93c8607362691","bdp_trlrn","Wed Mar 15 2023 23:00:27 GMT-0400 (Eastern Daylight Time)","831363","Trustworthy,Untrustworthy","","null","","","","ratingFB","","trustrating_stim/white_mw071.bmp","null","","","","","","","","","","",""
"image-keyboard-response","115","205833","0.0-6.0-1.55","60ce8efd3dc93c8607362691","bdp_trlrn","Wed Mar 15 2023 23:00:27 GMT-0400 (Eastern Daylight Time)","831363","Trustworthy,Untrustworthy","","1908","","","","rating","","trustrating_stim/white_00785_941205_fb_edt.bmp","5","","","","","","","","","","",""
"image-keyboard-response","116","206035","0.0-6.0-2.55","60ce8efd3dc93c8607362691","bdp_trlrn","Wed Mar 15 2023 23:00:27 GMT-0400 (Eastern Daylight Time)","831363","Trustworthy,Untrustworthy","","null","","","","ratingFB","","trustrating_stim/white_00785_941205_fb_edt.bmp","null","","","","","","","","","","",""
"image-keyboard-response","117","207545","0.0-6.0-1.56","60ce8efd3dc93c8607362691","bdp_trlrn","Wed Mar 15 2023 23:00:27 GMT-0400 (Eastern Daylight Time)","831363","Trustworthy,Untrustworthy","","1401","","","","rating","","trustrating_stim/white_00519_940519_fb_edt.bmp","6","","","","","","","","","","",""
"image-keyboard-response","118","207752","0.0-6.0-2.56","60ce8efd3dc93c8607362691","bdp_trlrn","Wed Mar 15 2023 23:00:27 GMT-0400 (Eastern Daylight Time)","831363","Trustworthy,Untrustworthy","","null","","","","ratingFB","","trustrating_stim/white_00519_940519_fb_edt.bmp","null","","","","","","","","","","",""
"image-keyboard-response","119","209386","0.0-6.0-1.57","60ce8efd3dc93c8607362691","bdp_trlrn","Wed Mar 15 2023 23:00:27 GMT-0400 (Eastern Daylight Time)","831363","Trustworthy,Untrustworthy","","1527","","","","rating","","trustrating_stim/white_mw053.bmp","6","","","","","","","","","","",""
"image-keyboard-response","120","209587","0.0-6.0-2.57","60ce8efd3dc93c8607362691","bdp_trlrn","Wed Mar 15 2023 23:00:27 GMT-0400 (Eastern Daylight Time)","831363","Trustworthy,Untrustworthy","","null","","","","ratingFB","","trustrating_stim/white_mw053.bmp","null","","","","","","","","","","",""
"image-keyboard-response","121","213778","0.0-6.0-1.58","60ce8efd3dc93c8607362691","bdp_trlrn","Wed Mar 15 2023 23:00:27 GMT-0400 (Eastern Daylight Time)","831363","Trustworthy,Untrustworthy","","4089","","","","rating","","trustrating_stim/white_mw049.bmp","6","","","","","","","","","","",""
"image-keyboard-response","122","213980","0.0-6.0-2.58","60ce8efd3dc93c8607362691","bdp_trlrn","Wed Mar 15 2023 23:00:27 GMT-0400 (Eastern Daylight Time)","831363","Trustworthy,Untrustworthy","","null","","","","ratingFB","","trustrating_stim/white_mw049.bmp","null","","","","","","","","","","",""
"image-keyboard-response","123","216729","0.0-6.0-1.59","60ce8efd3dc93c8607362691","bdp_trlrn","Wed Mar 15 2023 23:00:27 GMT-0400 (Eastern Daylight Time)","831363","Trustworthy,Untrustworthy","","2644","","","","rating","","trustrating_stim/white_00807_941205_fb_edt.bmp","6","","","","","","","","","","",""
"image-keyboard-response","124","216935","0.0-6.0-2.59","60ce8efd3dc93c8607362691","bdp_trlrn","Wed Mar 15 2023 23:00:27 GMT-0400 (Eastern Daylight Time)","831363","Trustworthy,Untrustworthy","","null","","","","ratingFB","","trustrating_stim/white_00807_941205_fb_edt.bmp","null","","","","","","","","","","",""
"instructions","125","227937","0.0-7.0","60ce8efd3dc93c8607362691","bdp_trlrn","Wed Mar 15 2023 23:00:27 GMT-0400 (Eastern Daylight Time)","831363","Trustworthy,Untrustworthy","[{""page_index"":0,""viewing_time"":10895}]","10895","","","","","","","","","","","","","","","","","",""
"instructions","126","389279","0.0-8.0","60ce8efd3dc93c8607362691","bdp_trlrn","Wed Mar 15 2023 23:00:27 GMT-0400 (Eastern Daylight Time)","831363","Trustworthy,Untrustworthy","[{""page_index"":0,""viewing_time"":37621},{""page_index"":1,""viewing_time"":27536},{""page_index"":2,""viewing_time"":8615},{""page_index"":3,""viewing_time"":17856},{""page_index"":4,""viewing_time"":10249},{""page_index"":5,""viewing_time"":17591},{""page_index"":6,""viewing_time"":39591},{""page_index"":7,""viewing_time"":2175}]","161235","","","","","","","","","","","","","","","","","",""
"html-keyboard-response","127","402840","0.0-9.0","60ce8efd3dc93c8607362691","bdp_trlrn","Wed Mar 15 2023 23:00:27 GMT-0400 (Eastern Daylight Time)","831363","Trustworthy,Untrustworthy","","13559","","","","","","<div class='header' style='text-align:left; position: absolute; top: 5%; left: 5%;'><small>Task 2 of 5</small></div><div class='instruxDiv'><p><strong>1) What is the minimum number of points you can choose to send to your partner?</strong></p><p>a) 0</p><p>b) 1</p><p>c) 5</p>","A","","","","","","","","","","",""
"html-keyboard-response","128","411110","0.0-10.0","60ce8efd3dc93c8607362691","bdp_trlrn","Wed Mar 15 2023 23:00:27 GMT-0400 (Eastern Daylight Time)","831363","Trustworthy,Untrustworthy","","8163","","","","","","<div class='header' style='text-align:left; position: absolute; top: 5%; left: 5%;'><small>Task 2 of 5</small></div><div class='instruxDiv'><p><strong>1) What is the minimum number of points you can choose to send to your partner?</strong></p><p style='color:#FF0000'>a) 0</p><p>b) 1</p><p>c) 5</p><h3 style='color:#FF0000'>Incorrect!</h3><h3 class='center-content'>The correct response is b).</h3><h3 class='center-content'>The minimum number of points you can choose to send to your partner is 1 point.</h3><p><em>Press SPACEBAR to continue</em></p></div>"," ","","","","","","","","","","",""
"html-keyboard-response","129","417654","0.0-11.0","60ce8efd3dc93c8607362691","bdp_trlrn","Wed Mar 15 2023 23:00:27 GMT-0400 (Eastern Daylight Time)","831363","Trustworthy,Untrustworthy","","6438","","","","","","<div class='header' style='text-align:left; position: absolute; top: 5%; left: 5%;'><small>Task 2 of 5</small></div><div class='instruxDiv'><p><strong>2) What is the maximum number of points you can choose to send to your partner?</strong></p><p>a) 8</p><p>b) 5</p><p>c) 3</p>","B","","","","","","","","","","",""
"html-keyboard-response","130","420606","0.0-12.0","60ce8efd3dc93c8607362691","bdp_trlrn","Wed Mar 15 2023 23:00:27 GMT-0400 (Eastern Daylight Time)","831363","Trustworthy,Untrustworthy","","2846","","","","","","<div class='header' style='text-align:left; position: absolute; top: 5%; left: 5%;'><small>Task 2 of 5</small></div><div class='instruxDiv'><p><strong>2) What is the maximum number of points you can choose to send to your partner?</strong></p><p>a) 8</p><p style='color:#00FF00'>b) 5</p><p>c) 3</p><h3 style='color:#00FF00'>Correct!</h3><h3 class='center-content'>The correct response is b).</h3><h3 class='center-content'>The maximum number of points you can choose to send to your partner is 5 points.</h3><p><em>Press SPACEBAR to continue</em></p></div>"," ","","","","","","","","","","",""
"html-keyboard-response","131","427158","0.0-13.0","60ce8efd3dc93c8607362691","bdp_trlrn","Wed Mar 15 2023 23:00:27 GMT-0400 (Eastern Daylight Time)","831363","Trustworthy,Untrustworthy","","6450","","","","","","<div class='header' style='text-align:left; position: absolute; top: 5%; left: 5%;'><small>Task 2 of 5</small></div><div class='instruxDiv'><p><strong>3) What happens to the amount of points you send to your partner?</strong></p><p>a) Nothing</p><p>b) It doubles</p><p>c) It quadruples</p>","C","","","","","","","","","","",""
"html-keyboard-response","132","428926","0.0-14.0","60ce8efd3dc93c8607362691","bdp_trlrn","Wed Mar 15 2023 23:00:27 GMT-0400 (Eastern Daylight Time)","831363","Trustworthy,Untrustworthy","","1667","","","","","","<div class='header' style='text-align:left; position: absolute; top: 5%; left: 5%;'><small>Task 2 of 5</small></div><div class='instruxDiv'><p><strong>3) What happens to the amount of points you send to your partner?</strong></p><p>a) Nothing</p><p>b) It doubles</p><p style='color:#00FF00'>c) It quadruples</p><h3 style='color:#00FF00'>Correct!</h3><h3 class='center-content'>The correct response is c).</h3><h3 class='center-content'>The amount of points you send to your partner quadruples.</h3><p><em>Press SPACEBAR to continue</em></p></div>"," ","","","","","","","","","","",""
"html-keyboard-response","133","455391","0.0-15.0","60ce8efd3dc93c8607362691","bdp_trlrn","Wed Mar 15 2023 23:00:27 GMT-0400 (Eastern Daylight Time)","831363","Trustworthy,Untrustworthy","","26359","","","","","","<div class='header' style='text-align:left; position: absolute; top: 5%; left: 5%;'><small>Task 2 of 5</small></div><div class='instruxDiv'><p><strong>4) If you decided to share 4 out of 5 points with your partner, and they decided to share half of the amount they received with you, how many points would you receive back from them on this round?</strong></p><p>a) 16</p><p>b) 0</p><p>c) 8</p>","C","","","","","","","","","","",""
"html-keyboard-response","134","456798","0.0-16.0","60ce8efd3dc93c8607362691","bdp_trlrn","Wed Mar 15 2023 23:00:27 GMT-0400 (Eastern Daylight Time)","831363","Trustworthy,Untrustworthy","","1300","","","","","","<div class='header' style='text-align:left; position: absolute; top: 5%; left: 5%;'><small>Task 2 of 5</small></div><div class='instruxDiv'><p><strong>4) If you decided to share 4 out of 5 points with your partner, and they decided to share half of the amount they received with you, how many points would you receive back from them on this round?</strong></p><p>a) 16</p><p>b) 0</p><p style='color:#00FF00'>c) 8</p><h3 style='color:#00FF00'>Correct!</h3><h3 class='center-content'>The correct response is c).</h3><h3 class='center-content'>If you shared 4 out of 5 points with your partner and they decided to share half of the amount they received with you, you would receive 8 points back (i.e. (4 x 4)/2 = 8).</h3><p><em>Press SPACEBAR to continue</em></p></div>"," ","","","","","","","","","","",""
"html-keyboard-response","135","461908","0.0-17.0","60ce8efd3dc93c8607362691","bdp_trlrn","Wed Mar 15 2023 23:00:27 GMT-0400 (Eastern Daylight Time)","831363","Trustworthy,Untrustworthy","","null","","","","","","<div class='header' style='text-align:left; position: absolute; top: 5%; left: 5%;'><small>Task 2 of 5</small></div><div class='instruxDiv'><p>Thank you for completing the quiz<p>These are the actual partners you will be interacting with in the next block:<p><div class='tc' align='center'><img class='introPic' src='trustrating_stim/white_mw046.bmp'><br><strong>Lucas</strong></div><div class='bl' align='center'><img class='introPic' src='trustrating_stim/white_00223_940128_fb_edt.bmp'><br><strong>Ethan</strong></div><div class='br' align='center'><img class='introPic' src='trustrating_stim/white_mw053.bmp'><br><strong>James</strong></div></div><p>Across <strong>66 rounds</strong> you will interact with each partner <strong>22 times</strong> (in random order).<p style='align:center; color:white'><font <em>Press SPACEBAR to continue</em></p>","null","","","","","","","","","","",""
"instructions","136","471582","0.0-18.0","60ce8efd3dc93c8607362691","bdp_trlrn","Wed Mar 15 2023 23:00:27 GMT-0400 (Eastern Daylight Time)","831363","Trustworthy,Untrustworthy","[{""page_index"":0,""viewing_time"":7185},{""page_index"":1,""viewing_time"":2487}]","9673","","","","","","","","","","","","","","","","","",""
"html-keyboard-response","137","475917","0.0-19.0-1.0","60ce8efd3dc93c8607362691","bdp_trlrn","Wed Mar 15 2023 23:00:27 GMT-0400 (Eastern Daylight Time)","831363","Trustworthy,Untrustworthy","","4228","","","","decision","","<div class='trialDiv'><img src='trustrating_stim/white_00223_940128_fb_edt.bmp'><br><font class='baseline'><strong>Ethan</strong><p>Choose number of points to send.</font><div class='respPicDiv'><img src='img/responseButtonOffersNo0L.png' class='respPic'></div></div>","3","1","Ethan","7","Kept","0.35,0.8","9","0.35","trustrating_stim/white_00223_940128_fb_edt.bmp","6","5","1"
"html-keyboard-response","138","476175","0.0-19.0-2.0","60ce8efd3dc93c8607362691","bdp_trlrn","Wed Mar 15 2023 23:00:27 GMT-0400 (Eastern Daylight Time)","831363","Trustworthy,Untrustworthy","","null","","","","decisionFB","","<div class='trialDiv'><img src='trustrating_stim/white_00223_940128_fb_edt.bmp'><br><font class='baseline'><strong>Ethan</strong><p>Choose number of points to send.</font><div class='respPicDiv'><img src='img/responseButtonOffersNo0L3.png' class='respPic'></div></div>","null","1","Ethan","7","Kept","0.35,0.8","9","0.35","trustrating_stim/white_00223_940128_fb_edt.bmp","6","2","1"
"html-keyboard-response","139","477182","0.0-19.0-3.0","60ce8efd3dc93c8607362691","bdp_trlrn","Wed Mar 15 2023 23:00:27 GMT-0400 (Eastern Daylight Time)","831363","Trustworthy,Untrustworthy","","null","","","","feedback","","<div class='trialDiv'><img src='trustrating_stim/white_00223_940128_fb_edt.bmp'><br><font class='baseline'><strong>Ethan</strong><p>Received: <strong>12</strong></font> &nbsp; &nbsp; &nbsp; &nbsp; &nbsp; &nbsp;<font class='negOutcome'>Shared back: <strong>0</strong></font></font><div class='respPicDiv'><img src='img/responseButtonOffersNo0_wht.png' class='respPic'></div></div>","null","1","Ethan","7","Kept","0.35,0.8","9","0.35","trustrating_stim/white_00223_940128_fb_edt.bmp","6","2","1"
"html-keyboard-response","140","481196","0.0-19.0-1.1","60ce8efd3dc93c8607362691","bdp_trlrn","Wed Mar 15 2023 23:00:27 GMT-0400 (Eastern Daylight Time)","831363","Trustworthy,Untrustworthy","","4012","","","","decision","","<div class='trialDiv'><img src='trustrating_stim/white_mw046.bmp'><br><font class='baseline'><strong>Lucas</strong><p>Choose number of points to send.</font><div class='respPicDiv'><img src='img/responseButtonOffersNo0L.png' class='respPic'></div></div>","2","1","Lucas","3","Kept","0.65,0.35","13","0.65","trustrating_stim/white_mw046.bmp","3.5","7","2"
"html-keyboard-response","141","481453","0.0-19.0-2.1","60ce8efd3dc93c8607362691","bdp_trlrn","Wed Mar 15 2023 23:00:27 GMT-0400 (Eastern Daylight Time)","831363","Trustworthy,Untrustworthy","","null","","","","decisionFB","","<div class='trialDiv'><img src='trustrating_stim/white_mw046.bmp'><br><font class='baseline'><strong>Lucas</strong><p>Choose number of points to send.</font><div class='respPicDiv'><img src='img/responseButtonOffersNo0L2.png' class='respPic'></div></div>","null","1","Lucas","3","Kept","0.65,0.35","13","0.65","trustrating_stim/white_mw046.bmp","3.5","5","2"
"html-keyboard-response","142","482460","0.0-19.0-3.1","60ce8efd3dc93c8607362691","bdp_trlrn","Wed Mar 15 2023 23:00:27 GMT-0400 (Eastern Daylight Time)","831363","Trustworthy,Untrustworthy","","null","","","","feedback","","<div class='trialDiv'><img src='trustrating_stim/white_mw046.bmp'><br><font class='baseline'><strong>Lucas</strong><p>Received: <strong>8</strong></font> &nbsp; &nbsp; &nbsp; &nbsp; &nbsp; &nbsp;<font class='negOutcome'>Shared back: <strong>0</strong></font></font><div class='respPicDiv'><img src='img/responseButtonOffersNo0_wht.png' class='respPic'></div></div>","null","1","Lucas","3","Kept","0.65,0.35","13","0.65","trustrating_stim/white_mw046.bmp","3.5","5","2"
"html-keyboard-response","143","486990","0.0-19.0-1.2","60ce8efd3dc93c8607362691","bdp_trlrn","Wed Mar 15 2023 23:00:27 GMT-0400 (Eastern Daylight Time)","831363","Trustworthy,Untrustworthy","","4528","","","","decision","","<div class='trialDiv'><img src='trustrating_stim/white_mw053.bmp'><br><font class='baseline'><strong>James</strong><p>Choose number of points to send.</font><div class='respPicDiv'><img src='img/responseButtonOffersNo0L.png' class='respPic'></div></div>","5","1","James","10","Shared","0.65,0.2","14","0.65","trustrating_stim/white_mw053.bmp","7.5","10","3"
"html-keyboard-response","144","487245","0.0-19.0-2.2","60ce8efd3dc93c8607362691","bdp_trlrn","Wed Mar 15 2023 23:00:27 GMT-0400 (Eastern Daylight Time)","831363","Trustworthy,Untrustworthy","","null","","","","decisionFB","","<div class='trialDiv'><img src='trustrating_stim/white_mw053.bmp'><br><font class='baseline'><strong>James</strong><p>Choose number of points to send.</font><div class='respPicDiv'><img src='img/responseButtonOffersNo0L5.png' class='respPic'></div></div>","null","1","James","10","Shared","0.65,0.2","14","0.65","trustrating_stim/white_mw053.bmp","7.5","5","3"
"html-keyboard-response","145","488252","0.0-19.0-3.2","60ce8efd3dc93c8607362691","bdp_trlrn","Wed Mar 15 2023 23:00:27 GMT-0400 (Eastern Daylight Time)","831363","Trustworthy,Untrustworthy","","null","","","","feedback","","<div class='trialDiv'><img src='trustrating_stim/white_mw053.bmp'><br><font class='baseline'><strong>James</strong><p>Received: <strong>20</strong></font> &nbsp; &nbsp; &nbsp; &nbsp; &nbsp; &nbsp;<font class='posOutcome'>Shared back: <strong>10</strong></font></font><div class='respPicDiv'><img src='img/responseButtonOffersNo0_wht.png' class='respPic'></div></div>","null","1","James","10","Shared","0.65,0.2","14","0.65","trustrating_stim/white_mw053.bmp","7.5","15","3"
"html-keyboard-response","146","491342","0.0-19.0-1.3","60ce8efd3dc93c8607362691","bdp_trlrn","Wed Mar 15 2023 23:00:27 GMT-0400 (Eastern Daylight Time)","831363","Trustworthy,Untrustworthy","","3089","","","","decision","","<div class='trialDiv'><img src='trustrating_stim/white_00223_940128_fb_edt.bmp'><br><font class='baseline'><strong>Ethan</strong><p>Choose number of points to send.</font><div class='respPicDiv'><img src='img/responseButtonOffersNo0L.png' class='respPic'></div></div>","2","2","Ethan","7","Shared","0.35,0.8","9","0.35","trustrating_stim/white_00223_940128_fb_edt.bmp","6","20","4"
"html-keyboard-response","147","491593","0.0-19.0-2.3","60ce8efd3dc93c8607362691","bdp_trlrn","Wed Mar 15 2023 23:00:27 GMT-0400 (Eastern Daylight Time)","831363","Trustworthy,Untrustworthy","","null","","","","decisionFB","","<div class='trialDiv'><img src='trustrating_stim/white_00223_940128_fb_edt.bmp'><br><font class='baseline'><strong>Ethan</strong><p>Choose number of points to send.</font><div class='respPicDiv'><img src='img/responseButtonOffersNo0L2.png' class='respPic'></div></div>","null","2","Ethan","7","Shared","0.35,0.8","9","0.35","trustrating_stim/white_00223_940128_fb_edt.bmp","6","18","4"
"html-keyboard-response","148","492597","0.0-19.0-3.3","60ce8efd3dc93c8607362691","bdp_trlrn","Wed Mar 15 2023 23:00:27 GMT-0400 (Eastern Daylight Time)","831363","Trustworthy,Untrustworthy","","null","","","","feedback","","<div class='trialDiv'><img src='trustrating_stim/white_00223_940128_fb_edt.bmp'><br><font class='baseline'><strong>Ethan</strong><p>Received: <strong>8</strong></font> &nbsp; &nbsp; &nbsp; &nbsp; &nbsp; &nbsp;<font class='posOutcome'>Shared back: <strong>4</strong></font></font><div class='respPicDiv'><img src='img/responseButtonOffersNo0_wht.png' class='respPic'></div></div>","null","2","Ethan","7","Shared","0.35,0.8","9","0.35","trustrating_stim/white_00223_940128_fb_edt.bmp","6","22","4"
"html-keyboard-response","149","497316","0.0-19.0-1.4","60ce8efd3dc93c8607362691","bdp_trlrn","Wed Mar 15 2023 23:00:27 GMT-0400 (Eastern Daylight Time)","831363","Trustworthy,Untrustworthy","","4718","","","","decision","","<div class='trialDiv'><img src='trustrating_stim/white_mw053.bmp'><br><font class='baseline'><strong>James</strong><p>Choose number of points to send.</font><div class='respPicDiv'><img src='img/responseButtonOffersNo0L.png' class='respPic'></div></div>","5","2","James","10","Shared","0.65,0.2","14","0.65","trustrating_stim/white_mw053.bmp","7.5","27","5"
"html-keyboard-response","150","497572","0.0-19.0-2.4","60ce8efd3dc93c8607362691","bdp_trlrn","Wed Mar 15 2023 23:00:27 GMT-0400 (Eastern Daylight Time)","831363","Trustworthy,Untrustworthy","","null","","","","decisionFB","","<div class='trialDiv'><img src='trustrating_stim/white_mw053.bmp'><br><font class='baseline'><strong>James</strong><p>Choose number of points to send.</font><div class='respPicDiv'><img src='img/responseButtonOffersNo0L5.png' class='respPic'></div></div>","null","2","James","10","Shared","0.65,0.2","14","0.65","trustrating_stim/white_mw053.bmp","7.5","22","5"
"html-keyboard-response","151","498576","0.0-19.0-3.4","60ce8efd3dc93c8607362691","bdp_trlrn","Wed Mar 15 2023 23:00:27 GMT-0400 (Eastern Daylight Time)","831363","Trustworthy,Untrustworthy","","null","","","","feedback","","<div class='trialDiv'><img src='trustrating_stim/white_mw053.bmp'><br><font class='baseline'><strong>James</strong><p>Received: <strong>20</strong></font> &nbsp; &nbsp; &nbsp; &nbsp; &nbsp; &nbsp;<font class='posOutcome'>Shared back: <strong>10</strong></font></font><div class='respPicDiv'><img src='img/responseButtonOffersNo0_wht.png' class='respPic'></div></div>","null","2","James","10","Shared","0.65,0.2","14","0.65","trustrating_stim/white_mw053.bmp","7.5","32","5"
"html-keyboard-response","152","502526","0.0-19.0-1.5","60ce8efd3dc93c8607362691","bdp_trlrn","Wed Mar 15 2023 23:00:27 GMT-0400 (Eastern Daylight Time)","831363","Trustworthy,Untrustworthy","","3948","","","","decision","","<div class='trialDiv'><img src='trustrating_stim/white_mw046.bmp'><br><font class='baseline'><strong>Lucas</strong><p>Choose number of points to send.</font><div class='respPicDiv'><img src='img/responseButtonOffersNo0L.png' class='respPic'></div></div>","2","2","Lucas","3","Kept","0.65,0.35","13","0.65","trustrating_stim/white_mw046.bmp","3.5","37","6"
"html-keyboard-response","153","502782","0.0-19.0-2.5","60ce8efd3dc93c8607362691","bdp_trlrn","Wed Mar 15 2023 23:00:27 GMT-0400 (Eastern Daylight Time)","831363","Trustworthy,Untrustworthy","","null","","","","decisionFB","","<div class='trialDiv'><img src='trustrating_stim/white_mw046.bmp'><br><font class='baseline'><strong>Lucas</strong><p>Choose number of points to send.</font><div class='respPicDiv'><img src='img/responseButtonOffersNo0L2.png' class='respPic'></div></div>","null","2","Lucas","3","Kept","0.65,0.35","13","0.65","trustrating_stim/white_mw046.bmp","3.5","35","6"
"html-keyboard-response","154","503787","0.0-19.0-3.5","60ce8efd3dc93c8607362691","bdp_trlrn","Wed Mar 15 2023 23:00:27 GMT-0400 (Eastern Daylight Time)","831363","Trustworthy,Untrustworthy","","null","","","","feedback","","<div class='trialDiv'><img src='trustrating_stim/white_mw046.bmp'><br><font class='baseline'><strong>Lucas</strong><p>Received: <strong>8</strong></font> &nbsp; &nbsp; &nbsp; &nbsp; &nbsp; &nbsp;<font class='negOutcome'>Shared back: <strong>0</strong></font></font><div class='respPicDiv'><img src='img/responseButtonOffersNo0_wht.png' class='respPic'></div></div>","null","2","Lucas","3","Kept","0.65,0.35","13","0.65","trustrating_stim/white_mw046.bmp","3.5","35","6"
"html-keyboard-response","155","505692","0.0-19.0-1.6","60ce8efd3dc93c8607362691","bdp_trlrn","Wed Mar 15 2023 23:00:27 GMT-0400 (Eastern Daylight Time)","831363","Trustworthy,Untrustworthy","","1903","","","","decision","","<div class='trialDiv'><img src='trustrating_stim/white_mw053.bmp'><br><font class='baseline'><strong>James</strong><p>Choose number of points to send.</font><div class='respPicDiv'><img src='img/responseButtonOffersNo0L.png' class='respPic'></div></div>","4","3","James","10","Shared","0.65,0.2","14","0.65","trustrating_stim/white_mw053.bmp","7.5","40","7"
"html-keyboard-response","156","505948","0.0-19.0-2.6","60ce8efd3dc93c8607362691","bdp_trlrn","Wed Mar 15 2023 23:00:27 GMT-0400 (Eastern Daylight Time)","831363","Trustworthy,Untrustworthy","","null","","","","decisionFB","","<div class='trialDiv'><img src='trustrating_stim/white_mw053.bmp'><br><font class='baseline'><strong>James</strong><p>Choose number of points to send.</font><div class='respPicDiv'><img src='img/responseButtonOffersNo0L4.png' class='respPic'></div></div>","null","3","James","10","Shared","0.65,0.2","14","0.65","trustrating_stim/white_mw053.bmp","7.5","36","7"
"html-keyboard-response","157","506954","0.0-19.0-3.6","60ce8efd3dc93c8607362691","bdp_trlrn","Wed Mar 15 2023 23:00:27 GMT-0400 (Eastern Daylight Time)","831363","Trustworthy,Untrustworthy","","null","","","","feedback","","<div class='trialDiv'><img src='trustrating_stim/white_mw053.bmp'><br><font class='baseline'><strong>James</strong><p>Received: <strong>16</strong></font> &nbsp; &nbsp; &nbsp; &nbsp; &nbsp; &nbsp;<font class='posOutcome'>Shared back: <strong>8</strong></font></font><div class='respPicDiv'><img src='img/responseButtonOffersNo0_wht.png' class='respPic'></div></div>","null","3","James","10","Shared","0.65,0.2","14","0.65","trustrating_stim/white_mw053.bmp","7.5","44","7"
"html-keyboard-response","158","509413","0.0-19.0-1.7","60ce8efd3dc93c8607362691","bdp_trlrn","Wed Mar 15 2023 23:00:27 GMT-0400 (Eastern Daylight Time)","831363","Trustworthy,Untrustworthy","","2458","","","","decision","","<div class='trialDiv'><img src='trustrating_stim/white_mw046.bmp'><br><font class='baseline'><strong>Lucas</strong><p>Choose number of points to send.</font><div class='respPicDiv'><img src='img/responseButtonOffersNo0L.png' class='respPic'></div></div>","1","3","Lucas","3","Kept","0.65,0.35","13","0.65","trustrating_stim/white_mw046.bmp","3.5","49","8"
"html-keyboard-response","159","509667","0.0-19.0-2.7","60ce8efd3dc93c8607362691","bdp_trlrn","Wed Mar 15 2023 23:00:27 GMT-0400 (Eastern Daylight Time)","831363","Trustworthy,Untrustworthy","","null","","","","decisionFB","","<div class='trialDiv'><img src='trustrating_stim/white_mw046.bmp'><br><font class='baseline'><strong>Lucas</strong><p>Choose number of points to send.</font><div class='respPicDiv'><img src='img/responseButtonOffersNo0L1.png' class='respPic'></div></div>","null","3","Lucas","3","Kept","0.65,0.35","13","0.65","trustrating_stim/white_mw046.bmp","3.5","48","8"
"html-keyboard-response","160","510672","0.0-19.0-3.7","60ce8efd3dc93c8607362691","bdp_trlrn","Wed Mar 15 2023 23:00:27 GMT-0400 (Eastern Daylight Time)","831363","Trustworthy,Untrustworthy","","null","","","","feedback","","<div class='trialDiv'><img src='trustrating_stim/white_mw046.bmp'><br><font class='baseline'><strong>Lucas</strong><p>Received: <strong>4</strong></font> &nbsp; &nbsp; &nbsp; &nbsp; &nbsp; &nbsp;<font class='negOutcome'>Shared back: <strong>0</strong></font></font><div class='respPicDiv'><img src='img/responseButtonOffersNo0_wht.png' class='respPic'></div></div>","null","3","Lucas","3","Kept","0.65,0.35","13","0.65","trustrating_stim/white_mw046.bmp","3.5","48","8"
"html-keyboard-response","161","511981","0.0-19.0-1.8","60ce8efd3dc93c8607362691","bdp_trlrn","Wed Mar 15 2023 23:00:27 GMT-0400 (Eastern Daylight Time)","831363","Trustworthy,Untrustworthy","","1306","","","","decision","","<div class='trialDiv'><img src='trustrating_stim/white_00223_940128_fb_edt.bmp'><br><font class='baseline'><strong>Ethan</strong><p>Choose number of points to send.</font><div class='respPicDiv'><img src='img/responseButtonOffersNo0L.png' class='respPic'></div></div>","1","3","Ethan","7","Shared","0.35,0.8","9","0.35","trustrating_stim/white_00223_940128_fb_edt.bmp","6","53","9"
"html-keyboard-response","162","512237","0.0-19.0-2.8","60ce8efd3dc93c8607362691","bdp_trlrn","Wed Mar 15 2023 23:00:27 GMT-0400 (Eastern Daylight Time)","831363","Trustworthy,Untrustworthy","","null","","","","decisionFB","","<div class='trialDiv'><img src='trustrating_stim/white_00223_940128_fb_edt.bmp'><br><font class='baseline'><strong>Ethan</strong><p>Choose number of points to send.</font><div class='respPicDiv'><img src='img/responseButtonOffersNo0L1.png' class='respPic'></div></div>","null","3","Ethan","7","Shared","0.35,0.8","9","0.35","trustrating_stim/white_00223_940128_fb_edt.bmp","6","52","9"
"html-keyboard-response","163","513244","0.0-19.0-3.8","60ce8efd3dc93c8607362691","bdp_trlrn","Wed Mar 15 2023 23:00:27 GMT-0400 (Eastern Daylight Time)","831363","Trustworthy,Untrustworthy","","null","","","","feedback","","<div class='trialDiv'><img src='trustrating_stim/white_00223_940128_fb_edt.bmp'><br><font class='baseline'><strong>Ethan</strong><p>Received: <strong>4</strong></font> &nbsp; &nbsp; &nbsp; &nbsp; &nbsp; &nbsp;<font class='posOutcome'>Shared back: <strong>2</strong></font></font><div class='respPicDiv'><img src='img/responseButtonOffersNo0_wht.png' class='respPic'></div></div>","null","3","Ethan","7","Shared","0.35,0.8","9","0.35","trustrating_stim/white_00223_940128_fb_edt.bmp","6","54","9"
"html-keyboard-response","164","514829","0.0-19.0-1.9","60ce8efd3dc93c8607362691","bdp_trlrn","Wed Mar 15 2023 23:00:27 GMT-0400 (Eastern Daylight Time)","831363","Trustworthy,Untrustworthy","","1583","","","","decision","","<div class='trialDiv'><img src='trustrating_stim/white_mw053.bmp'><br><font class='baseline'><strong>James</strong><p>Choose number of points to send.</font><div class='respPicDiv'><img src='img/responseButtonOffersNo0L.png' class='respPic'></div></div>","5","4","James","10","Kept","0.65,0.2","14","0.65","trustrating_stim/white_mw053.bmp","7.5","59","10"
"html-keyboard-response","165","515085","0.0-19.0-2.9","60ce8efd3dc93c8607362691","bdp_trlrn","Wed Mar 15 2023 23:00:27 GMT-0400 (Eastern Daylight Time)","831363","Trustworthy,Untrustworthy","","null","","","","decisionFB","","<div class='trialDiv'><img src='trustrating_stim/white_mw053.bmp'><br><font class='baseline'><strong>James</strong><p>Choose number of points to send.</font><div class='respPicDiv'><img src='img/responseButtonOffersNo0L5.png' class='respPic'></div></div>","null","4","James","10","Kept","0.65,0.2","14","0.65","trustrating_stim/white_mw053.bmp","7.5","54","10"
"html-keyboard-response","166","516092","0.0-19.0-3.9","60ce8efd3dc93c8607362691","bdp_trlrn","Wed Mar 15 2023 23:00:27 GMT-0400 (Eastern Daylight Time)","831363","Trustworthy,Untrustworthy","","null","","","","feedback","","<div class='trialDiv'><img src='trustrating_stim/white_mw053.bmp'><br><font class='baseline'><strong>James</strong><p>Received: <strong>20</strong></font> &nbsp; &nbsp; &nbsp; &nbsp; &nbsp; &nbsp;<font class='negOutcome'>Shared back: <strong>0</strong></font></font><div class='respPicDiv'><img src='img/responseButtonOffersNo0_wht.png' class='respPic'></div></div>","null","4","James","10","Kept","0.65,0.2","14","0.65","trustrating_stim/white_mw053.bmp","7.5","54","10"
"html-keyboard-response","167","519525","0.0-19.0-1.10","60ce8efd3dc93c8607362691","bdp_trlrn","Wed Mar 15 2023 23:00:27 GMT-0400 (Eastern Daylight Time)","831363","Trustworthy,Untrustworthy","","3431","","","","decision","","<div class='trialDiv'><img src='trustrating_stim/white_00223_940128_fb_edt.bmp'><br><font class='baseline'><strong>Ethan</strong><p>Choose number of points to send.</font><div class='respPicDiv'><img src='img/responseButtonOffersNo0L.png' class='respPic'></div></div>","1","4","Ethan","7","Shared","0.35,0.8","9","0.35","trustrating_stim/white_00223_940128_fb_edt.bmp","6","59","11"
"html-keyboard-response","168","519777","0.0-19.0-2.10","60ce8efd3dc93c8607362691","bdp_trlrn","Wed Mar 15 2023 23:00:27 GMT-0400 (Eastern Daylight Time)","831363","Trustworthy,Untrustworthy","","null","","","","decisionFB","","<div class='trialDiv'><img src='trustrating_stim/white_00223_940128_fb_edt.bmp'><br><font class='baseline'><strong>Ethan</strong><p>Choose number of points to send.</font><div class='respPicDiv'><img src='img/responseButtonOffersNo0L1.png' class='respPic'></div></div>","null","4","Ethan","7","Shared","0.35,0.8","9","0.35","trustrating_stim/white_00223_940128_fb_edt.bmp","6","58","11"
"html-keyboard-response","169","520784","0.0-19.0-3.10","60ce8efd3dc93c8607362691","bdp_trlrn","Wed Mar 15 2023 23:00:27 GMT-0400 (Eastern Daylight Time)","831363","Trustworthy,Untrustworthy","","null","","","","feedback","","<div class='trialDiv'><img src='trustrating_stim/white_00223_940128_fb_edt.bmp'><br><font class='baseline'><strong>Ethan</strong><p>Received: <strong>4</strong></font> &nbsp; &nbsp; &nbsp; &nbsp; &nbsp; &nbsp;<font class='posOutcome'>Shared back: <strong>2</strong></font></font><div class='respPicDiv'><img src='img/responseButtonOffersNo0_wht.png' class='respPic'></div></div>","null","4","Ethan","7","Shared","0.35,0.8","9","0.35","trustrating_stim/white_00223_940128_fb_edt.bmp","6","60","11"
"html-keyboard-response","170","522141","0.0-19.0-1.11","60ce8efd3dc93c8607362691","bdp_trlrn","Wed Mar 15 2023 23:00:27 GMT-0400 (Eastern Daylight Time)","831363","Trustworthy,Untrustworthy","","1356","","","","decision","","<div class='trialDiv'><img src='trustrating_stim/white_mw046.bmp'><br><font class='baseline'><strong>Lucas</strong><p>Choose number of points to send.</font><div class='respPicDiv'><img src='img/responseButtonOffersNo0L.png' class='respPic'></div></div>","1","4","Lucas","3","Shared","0.65,0.35","13","0.65","trustrating_stim/white_mw046.bmp","3.5","65","12"
"html-keyboard-response","171","522397","0.0-19.0-2.11","60ce8efd3dc93c8607362691","bdp_trlrn","Wed Mar 15 2023 23:00:27 GMT-0400 (Eastern Daylight Time)","831363","Trustworthy,Untrustworthy","","null","","","","decisionFB","","<div class='trialDiv'><img src='trustrating_stim/white_mw046.bmp'><br><font class='baseline'><strong>Lucas</strong><p>Choose number of points to send.</font><div class='respPicDiv'><img src='img/responseButtonOffersNo0L1.png' class='respPic'></div></div>","null","4","Lucas","3","Shared","0.65,0.35","13","0.65","trustrating_stim/white_mw046.bmp","3.5","64","12"
"html-keyboard-response","172","523404","0.0-19.0-3.11","60ce8efd3dc93c8607362691","bdp_trlrn","Wed Mar 15 2023 23:00:27 GMT-0400 (Eastern Daylight Time)","831363","Trustworthy,Untrustworthy","","null","","","","feedback","","<div class='trialDiv'><img src='trustrating_stim/white_mw046.bmp'><br><font class='baseline'><strong>Lucas</strong><p>Received: <strong>4</strong></font> &nbsp; &nbsp; &nbsp; &nbsp; &nbsp; &nbsp;<font class='posOutcome'>Shared back: <strong>2</strong></font></font><div class='respPicDiv'><img src='img/responseButtonOffersNo0_wht.png' class='respPic'></div></div>","null","4","Lucas","3","Shared","0.65,0.35","13","0.65","trustrating_stim/white_mw046.bmp","3.5","66","12"
"html-keyboard-response","173","525173","0.0-19.0-1.12","60ce8efd3dc93c8607362691","bdp_trlrn","Wed Mar 15 2023 23:00:27 GMT-0400 (Eastern Daylight Time)","831363","Trustworthy,Untrustworthy","","1768","","","","decision","","<div class='trialDiv'><img src='trustrating_stim/white_mw053.bmp'><br><font class='baseline'><strong>James</strong><p>Choose number of points to send.</font><div class='respPicDiv'><img src='img/responseButtonOffersNo0L.png' class='respPic'></div></div>","5","5","James","10","Kept","0.65,0.2","14","0.65","trustrating_stim/white_mw053.bmp","7.5","71","13"
"html-keyboard-response","174","525429","0.0-19.0-2.12","60ce8efd3dc93c8607362691","bdp_trlrn","Wed Mar 15 2023 23:00:27 GMT-0400 (Eastern Daylight Time)","831363","Trustworthy,Untrustworthy","","null","","","","decisionFB","","<div class='trialDiv'><img src='trustrating_stim/white_mw053.bmp'><br><font class='baseline'><strong>James</strong><p>Choose number of points to send.</font><div class='respPicDiv'><img src='img/responseButtonOffersNo0L5.png' class='respPic'></div></div>","null","5","James","10","Kept","0.65,0.2","14","0.65","trustrating_stim/white_mw053.bmp","7.5","66","13"
"html-keyboard-response","175","526436","0.0-19.0-3.12","60ce8efd3dc93c8607362691","bdp_trlrn","Wed Mar 15 2023 23:00:27 GMT-0400 (Eastern Daylight Time)","831363","Trustworthy,Untrustworthy","","null","","","","feedback","","<div class='trialDiv'><img src='trustrating_stim/white_mw053.bmp'><br><font class='baseline'><strong>James</strong><p>Received: <strong>20</strong></font> &nbsp; &nbsp; &nbsp; &nbsp; &nbsp; &nbsp;<font class='negOutcome'>Shared back: <strong>0</strong></font></font><div class='respPicDiv'><img src='img/responseButtonOffersNo0_wht.png' class='respPic'></div></div>","null","5","James","10","Kept","0.65,0.2","14","0.65","trustrating_stim/white_mw053.bmp","7.5","66","13"
"html-keyboard-response","176","529069","0.0-19.0-1.13","60ce8efd3dc93c8607362691","bdp_trlrn","Wed Mar 15 2023 23:00:27 GMT-0400 (Eastern Daylight Time)","831363","Trustworthy,Untrustworthy","","2631","","","","decision","","<div class='trialDiv'><img src='trustrating_stim/white_00223_940128_fb_edt.bmp'><br><font class='baseline'><strong>Ethan</strong><p>Choose number of points to send.</font><div class='respPicDiv'><img src='img/responseButtonOffersNo0L.png' class='respPic'></div></div>","3","5","Ethan","7","Kept","0.35,0.8","9","0.35","trustrating_stim/white_00223_940128_fb_edt.bmp","6","71","14"
"html-keyboard-response","177","529325","0.0-19.0-2.13","60ce8efd3dc93c8607362691","bdp_trlrn","Wed Mar 15 2023 23:00:27 GMT-0400 (Eastern Daylight Time)","831363","Trustworthy,Untrustworthy","","null","","","","decisionFB","","<div class='trialDiv'><img src='trustrating_stim/white_00223_940128_fb_edt.bmp'><br><font class='baseline'><strong>Ethan</strong><p>Choose number of points to send.</font><div class='respPicDiv'><img src='img/responseButtonOffersNo0L3.png' class='respPic'></div></div>","null","5","Ethan","7","Kept","0.35,0.8","9","0.35","trustrating_stim/white_00223_940128_fb_edt.bmp","6","68","14"
"html-keyboard-response","178","530332","0.0-19.0-3.13","60ce8efd3dc93c8607362691","bdp_trlrn","Wed Mar 15 2023 23:00:27 GMT-0400 (Eastern Daylight Time)","831363","Trustworthy,Untrustworthy","","null","","","","feedback","","<div class='trialDiv'><img src='trustrating_stim/white_00223_940128_fb_edt.bmp'><br><font class='baseline'><strong>Ethan</strong><p>Received: <strong>12</strong></font> &nbsp; &nbsp; &nbsp; &nbsp; &nbsp; &nbsp;<font class='negOutcome'>Shared back: <strong>0</strong></font></font><div class='respPicDiv'><img src='img/responseButtonOffersNo0_wht.png' class='respPic'></div></div>","null","5","Ethan","7","Kept","0.35,0.8","9","0.35","trustrating_stim/white_00223_940128_fb_edt.bmp","6","68","14"
"html-keyboard-response","179","531989","0.0-19.0-1.14","60ce8efd3dc93c8607362691","bdp_trlrn","Wed Mar 15 2023 23:00:27 GMT-0400 (Eastern Daylight Time)","831363","Trustworthy,Untrustworthy","","1654","","","","decision","","<div class='trialDiv'><img src='trustrating_stim/white_mw046.bmp'><br><font class='baseline'><strong>Lucas</strong><p>Choose number of points to send.</font><div class='respPicDiv'><img src='img/responseButtonOffersNo0L.png' class='respPic'></div></div>","2","5","Lucas","3","Kept","0.65,0.35","13","0.65","trustrating_stim/white_mw046.bmp","3.5","73","15"
"html-keyboard-response","180","532240","0.0-19.0-2.14","60ce8efd3dc93c8607362691","bdp_trlrn","Wed Mar 15 2023 23:00:27 GMT-0400 (Eastern Daylight Time)","831363","Trustworthy,Untrustworthy","","null","","","","decisionFB","","<div class='trialDiv'><img src='trustrating_stim/white_mw046.bmp'><br><font class='baseline'><strong>Lucas</strong><p>Choose number of points to send.</font><div class='respPicDiv'><img src='img/responseButtonOffersNo0L2.png' class='respPic'></div></div>","null","5","Lucas","3","Kept","0.65,0.35","13","0.65","trustrating_stim/white_mw046.bmp","3.5","71","15"
"html-keyboard-response","181","533247","0.0-19.0-3.14","60ce8efd3dc93c8607362691","bdp_trlrn","Wed Mar 15 2023 23:00:27 GMT-0400 (Eastern Daylight Time)","831363","Trustworthy,Untrustworthy","","null","","","","feedback","","<div class='trialDiv'><img src='trustrating_stim/white_mw046.bmp'><br><font class='baseline'><strong>Lucas</strong><p>Received: <strong>8</strong></font> &nbsp; &nbsp; &nbsp; &nbsp; &nbsp; &nbsp;<font class='negOutcome'>Shared back: <strong>0</strong></font></font><div class='respPicDiv'><img src='img/responseButtonOffersNo0_wht.png' class='respPic'></div></div>","null","5","Lucas","3","Kept","0.65,0.35","13","0.65","trustrating_stim/white_mw046.bmp","3.5","71","15"
"html-keyboard-response","182","534812","0.0-19.0-1.15","60ce8efd3dc93c8607362691","bdp_trlrn","Wed Mar 15 2023 23:00:27 GMT-0400 (Eastern Daylight Time)","831363","Trustworthy,Untrustworthy","","1563","","","","decision","","<div class='trialDiv'><img src='trustrating_stim/white_00223_940128_fb_edt.bmp'><br><font class='baseline'><strong>Ethan</strong><p>Choose number of points to send.</font><div class='respPicDiv'><img src='img/responseButtonOffersNo0L.png' class='respPic'></div></div>","2","6","Ethan","7","Kept","0.35,0.8","9","0.35","trustrating_stim/white_00223_940128_fb_edt.bmp","6","76","16"
"html-keyboard-response","183","535067","0.0-19.0-2.15","60ce8efd3dc93c8607362691","bdp_trlrn","Wed Mar 15 2023 23:00:27 GMT-0400 (Eastern Daylight Time)","831363","Trustworthy,Untrustworthy","","null","","","","decisionFB","","<div class='trialDiv'><img src='trustrating_stim/white_00223_940128_fb_edt.bmp'><br><font class='baseline'><strong>Ethan</strong><p>Choose number of points to send.</font><div class='respPicDiv'><img src='img/responseButtonOffersNo0L2.png' class='respPic'></div></div>","null","6","Ethan","7","Kept","0.35,0.8","9","0.35","trustrating_stim/white_00223_940128_fb_edt.bmp","6","74","16"
"html-keyboard-response","184","536069","0.0-19.0-3.15","60ce8efd3dc93c8607362691","bdp_trlrn","Wed Mar 15 2023 23:00:27 GMT-0400 (Eastern Daylight Time)","831363","Trustworthy,Untrustworthy","","null","","","","feedback","","<div class='trialDiv'><img src='trustrating_stim/white_00223_940128_fb_edt.bmp'><br><font class='baseline'><strong>Ethan</strong><p>Received: <strong>8</strong></font> &nbsp; &nbsp; &nbsp; &nbsp; &nbsp; &nbsp;<font class='negOutcome'>Shared back: <strong>0</strong></font></font><div class='respPicDiv'><img src='img/responseButtonOffersNo0_wht.png' class='respPic'></div></div>","null","6","Ethan","7","Kept","0.35,0.8","9","0.35","trustrating_stim/white_00223_940128_fb_edt.bmp","6","74","16"
"html-keyboard-response","185","537605","0.0-19.0-1.16","60ce8efd3dc93c8607362691","bdp_trlrn","Wed Mar 15 2023 23:00:27 GMT-0400 (Eastern Daylight Time)","831363","Trustworthy,Untrustworthy","","1535","","","","decision","","<div class='trialDiv'><img src='trustrating_stim/white_mw053.bmp'><br><font class='baseline'><strong>James</strong><p>Choose number of points to send.</font><div class='respPicDiv'><img src='img/responseButtonOffersNo0L.png' class='respPic'></div></div>","5","6","James","10","Shared","0.65,0.2","14","0.65","trustrating_stim/white_mw053.bmp","7.5","79","17"
"html-keyboard-response","186","537861","0.0-19.0-2.16","60ce8efd3dc93c8607362691","bdp_trlrn","Wed Mar 15 2023 23:00:27 GMT-0400 (Eastern Daylight Time)","831363","Trustworthy,Untrustworthy","","null","","","","decisionFB","","<div class='trialDiv'><img src='trustrating_stim/white_mw053.bmp'><br><font class='baseline'><strong>James</strong><p>Choose number of points to send.</font><div class='respPicDiv'><img src='img/responseButtonOffersNo0L5.png' class='respPic'></div></div>","null","6","James","10","Shared","0.65,0.2","14","0.65","trustrating_stim/white_mw053.bmp","7.5","74","17"
"html-keyboard-response","187","538866","0.0-19.0-3.16","60ce8efd3dc93c8607362691","bdp_trlrn","Wed Mar 15 2023 23:00:27 GMT-0400 (Eastern Daylight Time)","831363","Trustworthy,Untrustworthy","","null","","","","feedback","","<div class='trialDiv'><img src='trustrating_stim/white_mw053.bmp'><br><font class='baseline'><strong>James</strong><p>Received: <strong>20</strong></font> &nbsp; &nbsp; &nbsp; &nbsp; &nbsp; &nbsp;<font class='posOutcome'>Shared back: <strong>10</strong></font></font><div class='respPicDiv'><img src='img/responseButtonOffersNo0_wht.png' class='respPic'></div></div>","null","6","James","10","Shared","0.65,0.2","14","0.65","trustrating_stim/white_mw053.bmp","7.5","84","17"
"html-keyboard-response","188","541908","0.0-19.0-1.17","60ce8efd3dc93c8607362691","bdp_trlrn","Wed Mar 15 2023 23:00:27 GMT-0400 (Eastern Daylight Time)","831363","Trustworthy,Untrustworthy","","3041","","","","decision","","<div class='trialDiv'><img src='trustrating_stim/white_mw046.bmp'><br><font class='baseline'><strong>Lucas</strong><p>Choose number of points to send.</font><div class='respPicDiv'><img src='img/responseButtonOffersNo0L.png' class='respPic'></div></div>","2","6","Lucas","3","Shared","0.65,0.35","13","0.65","trustrating_stim/white_mw046.bmp","3.5","89","18"
"html-keyboard-response","189","542165","0.0-19.0-2.17","60ce8efd3dc93c8607362691","bdp_trlrn","Wed Mar 15 2023 23:00:27 GMT-0400 (Eastern Daylight Time)","831363","Trustworthy,Untrustworthy","","null","","","","decisionFB","","<div class='trialDiv'><img src='trustrating_stim/white_mw046.bmp'><br><font class='baseline'><strong>Lucas</strong><p>Choose number of points to send.</font><div class='respPicDiv'><img src='img/responseButtonOffersNo0L2.png' class='respPic'></div></div>","null","6","Lucas","3","Shared","0.65,0.35","13","0.65","trustrating_stim/white_mw046.bmp","3.5","87","18"
"html-keyboard-response","190","543171","0.0-19.0-3.17","60ce8efd3dc93c8607362691","bdp_trlrn","Wed Mar 15 2023 23:00:27 GMT-0400 (Eastern Daylight Time)","831363","Trustworthy,Untrustworthy","","null","","","","feedback","","<div class='trialDiv'><img src='trustrating_stim/white_mw046.bmp'><br><font class='baseline'><strong>Lucas</strong><p>Received: <strong>8</strong></font> &nbsp; &nbsp; &nbsp; &nbsp; &nbsp; &nbsp;<font class='posOutcome'>Shared back: <strong>4</strong></font></font><div class='respPicDiv'><img src='img/responseButtonOffersNo0_wht.png' class='respPic'></div></div>","null","6","Lucas","3","Shared","0.65,0.35","13","0.65","trustrating_stim/white_mw046.bmp","3.5","91","18"
"html-keyboard-response","191","545252","0.0-19.0-1.18","60ce8efd3dc93c8607362691","bdp_trlrn","Wed Mar 15 2023 23:00:27 GMT-0400 (Eastern Daylight Time)","831363","Trustworthy,Untrustworthy","","2079","","","","decision","","<div class='trialDiv'><img src='trustrating_stim/white_00223_940128_fb_edt.bmp'><br><font class='baseline'><strong>Ethan</strong><p>Choose number of points to send.</font><div class='respPicDiv'><img src='img/responseButtonOffersNo0L.png' class='respPic'></div></div>","2","7","Ethan","7","Kept","0.35,0.8","9","0.35","trustrating_stim/white_00223_940128_fb_edt.bmp","6","96","19"
"html-keyboard-response","192","545509","0.0-19.0-2.18","60ce8efd3dc93c8607362691","bdp_trlrn","Wed Mar 15 2023 23:00:27 GMT-0400 (Eastern Daylight Time)","831363","Trustworthy,Untrustworthy","","null","","","","decisionFB","","<div class='trialDiv'><img src='trustrating_stim/white_00223_940128_fb_edt.bmp'><br><font class='baseline'><strong>Ethan</strong><p>Choose number of points to send.</font><div class='respPicDiv'><img src='img/responseButtonOffersNo0L2.png' class='respPic'></div></div>","null","7","Ethan","7","Kept","0.35,0.8","9","0.35","trustrating_stim/white_00223_940128_fb_edt.bmp","6","94","19"
"html-keyboard-response","193","546514","0.0-19.0-3.18","60ce8efd3dc93c8607362691","bdp_trlrn","Wed Mar 15 2023 23:00:27 GMT-0400 (Eastern Daylight Time)","831363","Trustworthy,Untrustworthy","","null","","","","feedback","","<div class='trialDiv'><img src='trustrating_stim/white_00223_940128_fb_edt.bmp'><br><font class='baseline'><strong>Ethan</strong><p>Received: <strong>8</strong></font> &nbsp; &nbsp; &nbsp; &nbsp; &nbsp; &nbsp;<font class='negOutcome'>Shared back: <strong>0</strong></font></font><div class='respPicDiv'><img src='img/responseButtonOffersNo0_wht.png' class='respPic'></div></div>","null","7","Ethan","7","Kept","0.35,0.8","9","0.35","trustrating_stim/white_00223_940128_fb_edt.bmp","6","94","19"
"html-keyboard-response","194","547965","0.0-19.0-1.19","60ce8efd3dc93c8607362691","bdp_trlrn","Wed Mar 15 2023 23:00:27 GMT-0400 (Eastern Daylight Time)","831363","Trustworthy,Untrustworthy","","1450","","","","decision","","<div class='trialDiv'><img src='trustrating_stim/white_mw046.bmp'><br><font class='baseline'><strong>Lucas</strong><p>Choose number of points to send.</font><div class='respPicDiv'><img src='img/responseButtonOffersNo0L.png' class='respPic'></div></div>","2","7","Lucas","3","Kept","0.65,0.35","13","0.65","trustrating_stim/white_mw046.bmp","3.5","99","20"
"html-keyboard-response","195","548219","0.0-19.0-2.19","60ce8efd3dc93c8607362691","bdp_trlrn","Wed Mar 15 2023 23:00:27 GMT-0400 (Eastern Daylight Time)","831363","Trustworthy,Untrustworthy","","null","","","","decisionFB","","<div class='trialDiv'><img src='trustrating_stim/white_mw046.bmp'><br><font class='baseline'><strong>Lucas</strong><p>Choose number of points to send.</font><div class='respPicDiv'><img src='img/responseButtonOffersNo0L2.png' class='respPic'></div></div>","null","7","Lucas","3","Kept","0.65,0.35","13","0.65","trustrating_stim/white_mw046.bmp","3.5","97","20"
"html-keyboard-response","196","549226","0.0-19.0-3.19","60ce8efd3dc93c8607362691","bdp_trlrn","Wed Mar 15 2023 23:00:27 GMT-0400 (Eastern Daylight Time)","831363","Trustworthy,Untrustworthy","","null","","","","feedback","","<div class='trialDiv'><img src='trustrating_stim/white_mw046.bmp'><br><font class='baseline'><strong>Lucas</strong><p>Received: <strong>8</strong></font> &nbsp; &nbsp; &nbsp; &nbsp; &nbsp; &nbsp;<font class='negOutcome'>Shared back: <strong>0</strong></font></font><div class='respPicDiv'><img src='img/responseButtonOffersNo0_wht.png' class='respPic'></div></div>","null","7","Lucas","3","Kept","0.65,0.35","13","0.65","trustrating_stim/white_mw046.bmp","3.5","97","20"
"html-keyboard-response","197","550556","0.0-19.0-1.20","60ce8efd3dc93c8607362691","bdp_trlrn","Wed Mar 15 2023 23:00:27 GMT-0400 (Eastern Daylight Time)","831363","Trustworthy,Untrustworthy","","1329","","","","decision","","<div class='trialDiv'><img src='trustrating_stim/white_mw053.bmp'><br><font class='baseline'><strong>James</strong><p>Choose number of points to send.</font><div class='respPicDiv'><img src='img/responseButtonOffersNo0L.png' class='respPic'></div></div>","5","7","James","10","Kept","0.65,0.2","14","0.65","trustrating_stim/white_mw053.bmp","7.5","102","21"
"html-keyboard-response","198","550810","0.0-19.0-2.20","60ce8efd3dc93c8607362691","bdp_trlrn","Wed Mar 15 2023 23:00:27 GMT-0400 (Eastern Daylight Time)","831363","Trustworthy,Untrustworthy","","null","","","","decisionFB","","<div class='trialDiv'><img src='trustrating_stim/white_mw053.bmp'><br><font class='baseline'><strong>James</strong><p>Choose number of points to send.</font><div class='respPicDiv'><img src='img/responseButtonOffersNo0L5.png' class='respPic'></div></div>","null","7","James","10","Kept","0.65,0.2","14","0.65","trustrating_stim/white_mw053.bmp","7.5","97","21"
"html-keyboard-response","199","551815","0.0-19.0-3.20","60ce8efd3dc93c8607362691","bdp_trlrn","Wed Mar 15 2023 23:00:27 GMT-0400 (Eastern Daylight Time)","831363","Trustworthy,Untrustworthy","","null","","","","feedback","","<div class='trialDiv'><img src='trustrating_stim/white_mw053.bmp'><br><font class='baseline'><strong>James</strong><p>Received: <strong>20</strong></font> &nbsp; &nbsp; &nbsp; &nbsp; &nbsp; &nbsp;<font class='negOutcome'>Shared back: <strong>0</strong></font></font><div class='respPicDiv'><img src='img/responseButtonOffersNo0_wht.png' class='respPic'></div></div>","null","7","James","10","Kept","0.65,0.2","14","0.65","trustrating_stim/white_mw053.bmp","7.5","97","21"
"html-keyboard-response","200","552908","0.0-19.0-1.21","60ce8efd3dc93c8607362691","bdp_trlrn","Wed Mar 15 2023 23:00:27 GMT-0400 (Eastern Daylight Time)","831363","Trustworthy,Untrustworthy","","1091","","","","decision","","<div class='trialDiv'><img src='trustrating_stim/white_mw046.bmp'><br><font class='baseline'><strong>Lucas</strong><p>Choose number of points to send.</font><div class='respPicDiv'><img src='img/responseButtonOffersNo0L.png' class='respPic'></div></div>","2","8","Lucas","3","Kept","0.65,0.35","13","0.65","trustrating_stim/white_mw046.bmp","3.5","102","22"
"html-keyboard-response","201","553165","0.0-19.0-2.21","60ce8efd3dc93c8607362691","bdp_trlrn","Wed Mar 15 2023 23:00:27 GMT-0400 (Eastern Daylight Time)","831363","Trustworthy,Untrustworthy","","null","","","","decisionFB","","<div class='trialDiv'><img src='trustrating_stim/white_mw046.bmp'><br><font class='baseline'><strong>Lucas</strong><p>Choose number of points to send.</font><div class='respPicDiv'><img src='img/responseButtonOffersNo0L2.png' class='respPic'></div></div>","null","8","Lucas","3","Kept","0.65,0.35","13","0.65","trustrating_stim/white_mw046.bmp","3.5","100","22"
"html-keyboard-response","202","554172","0.0-19.0-3.21","60ce8efd3dc93c8607362691","bdp_trlrn","Wed Mar 15 2023 23:00:27 GMT-0400 (Eastern Daylight Time)","831363","Trustworthy,Untrustworthy","","null","","","","feedback","","<div class='trialDiv'><img src='trustrating_stim/white_mw046.bmp'><br><font class='baseline'><strong>Lucas</strong><p>Received: <strong>8</strong></font> &nbsp; &nbsp; &nbsp; &nbsp; &nbsp; &nbsp;<font class='negOutcome'>Shared back: <strong>0</strong></font></font><div class='respPicDiv'><img src='img/responseButtonOffersNo0_wht.png' class='respPic'></div></div>","null","8","Lucas","3","Kept","0.65,0.35","13","0.65","trustrating_stim/white_mw046.bmp","3.5","100","22"
"html-keyboard-response","203","555292","0.0-19.0-1.22","60ce8efd3dc93c8607362691","bdp_trlrn","Wed Mar 15 2023 23:00:27 GMT-0400 (Eastern Daylight Time)","831363","Trustworthy,Untrustworthy","","1119","","","","decision","","<div class='trialDiv'><img src='trustrating_stim/white_00223_940128_fb_edt.bmp'><br><font class='baseline'><strong>Ethan</strong><p>Choose number of points to send.</font><div class='respPicDiv'><img src='img/responseButtonOffersNo0L.png' class='respPic'></div></div>","5","8","Ethan","7","Kept","0.35,0.8","9","0.35","trustrating_stim/white_00223_940128_fb_edt.bmp","6","105","23"
"html-keyboard-response","204","555549","0.0-19.0-2.22","60ce8efd3dc93c8607362691","bdp_trlrn","Wed Mar 15 2023 23:00:27 GMT-0400 (Eastern Daylight Time)","831363","Trustworthy,Untrustworthy","","null","","","","decisionFB","","<div class='trialDiv'><img src='trustrating_stim/white_00223_940128_fb_edt.bmp'><br><font class='baseline'><strong>Ethan</strong><p>Choose number of points to send.</font><div class='respPicDiv'><img src='img/responseButtonOffersNo0L5.png' class='respPic'></div></div>","null","8","Ethan","7","Kept","0.35,0.8","9","0.35","trustrating_stim/white_00223_940128_fb_edt.bmp","6","100","23"
"html-keyboard-response","205","556556","0.0-19.0-3.22","60ce8efd3dc93c8607362691","bdp_trlrn","Wed Mar 15 2023 23:00:27 GMT-0400 (Eastern Daylight Time)","831363","Trustworthy,Untrustworthy","","null","","","","feedback","","<div class='trialDiv'><img src='trustrating_stim/white_00223_940128_fb_edt.bmp'><br><font class='baseline'><strong>Ethan</strong><p>Received: <strong>20</strong></font> &nbsp; &nbsp; &nbsp; &nbsp; &nbsp; &nbsp;<font class='negOutcome'>Shared back: <strong>0</strong></font></font><div class='respPicDiv'><img src='img/responseButtonOffersNo0_wht.png' class='respPic'></div></div>","null","8","Ethan","7","Kept","0.35,0.8","9","0.35","trustrating_stim/white_00223_940128_fb_edt.bmp","6","100","23"
"html-keyboard-response","206","557844","0.0-19.0-1.23","60ce8efd3dc93c8607362691","bdp_trlrn","Wed Mar 15 2023 23:00:27 GMT-0400 (Eastern Daylight Time)","831363","Trustworthy,Untrustworthy","","1287","","","","decision","","<div class='trialDiv'><img src='trustrating_stim/white_mw053.bmp'><br><font class='baseline'><strong>James</strong><p>Choose number of points to send.</font><div class='respPicDiv'><img src='img/responseButtonOffersNo0L.png' class='respPic'></div></div>","5","8","James","10","Shared","0.65,0.2","14","0.65","trustrating_stim/white_mw053.bmp","7.5","105","24"
"html-keyboard-response","207","558098","0.0-19.0-2.23","60ce8efd3dc93c8607362691","bdp_trlrn","Wed Mar 15 2023 23:00:27 GMT-0400 (Eastern Daylight Time)","831363","Trustworthy,Untrustworthy","","null","","","","decisionFB","","<div class='trialDiv'><img src='trustrating_stim/white_mw053.bmp'><br><font class='baseline'><strong>James</strong><p>Choose number of points to send.</font><div class='respPicDiv'><img src='img/responseButtonOffersNo0L5.png' class='respPic'></div></div>","null","8","James","10","Shared","0.65,0.2","14","0.65","trustrating_stim/white_mw053.bmp","7.5","100","24"
"html-keyboard-response","208","559100","0.0-19.0-3.23","60ce8efd3dc93c8607362691","bdp_trlrn","Wed Mar 15 2023 23:00:27 GMT-0400 (Eastern Daylight Time)","831363","Trustworthy,Untrustworthy","","null","","","","feedback","","<div class='trialDiv'><img src='trustrating_stim/white_mw053.bmp'><br><font class='baseline'><strong>James</strong><p>Received: <strong>20</strong></font> &nbsp; &nbsp; &nbsp; &nbsp; &nbsp; &nbsp;<font class='posOutcome'>Shared back: <strong>10</strong></font></font><div class='respPicDiv'><img src='img/responseButtonOffersNo0_wht.png' class='respPic'></div></div>","null","8","James","10","Shared","0.65,0.2","14","0.65","trustrating_stim/white_mw053.bmp","7.5","110","24"
"html-keyboard-response","209","560501","0.0-19.0-1.24","60ce8efd3dc93c8607362691","bdp_trlrn","Wed Mar 15 2023 23:00:27 GMT-0400 (Eastern Daylight Time)","831363","Trustworthy,Untrustworthy","","1400","","","","decision","","<div class='trialDiv'><img src='trustrating_stim/white_mw046.bmp'><br><font class='baseline'><strong>Lucas</strong><p>Choose number of points to send.</font><div class='respPicDiv'><img src='img/responseButtonOffersNo0L.png' class='respPic'></div></div>","5","9","Lucas","3","Shared","0.65,0.35","13","0.65","trustrating_stim/white_mw046.bmp","3.5","115","25"
"html-keyboard-response","210","560758","0.0-19.0-2.24","60ce8efd3dc93c8607362691","bdp_trlrn","Wed Mar 15 2023 23:00:27 GMT-0400 (Eastern Daylight Time)","831363","Trustworthy,Untrustworthy","","null","","","","decisionFB","","<div class='trialDiv'><img src='trustrating_stim/white_mw046.bmp'><br><font class='baseline'><strong>Lucas</strong><p>Choose number of points to send.</font><div class='respPicDiv'><img src='img/responseButtonOffersNo0L5.png' class='respPic'></div></div>","null","9","Lucas","3","Shared","0.65,0.35","13","0.65","trustrating_stim/white_mw046.bmp","3.5","110","25"
"html-keyboard-response","211","561763","0.0-19.0-3.24","60ce8efd3dc93c8607362691","bdp_trlrn","Wed Mar 15 2023 23:00:27 GMT-0400 (Eastern Daylight Time)","831363","Trustworthy,Untrustworthy","","null","","","","feedback","","<div class='trialDiv'><img src='trustrating_stim/white_mw046.bmp'><br><font class='baseline'><strong>Lucas</strong><p>Received: <strong>20</strong></font> &nbsp; &nbsp; &nbsp; &nbsp; &nbsp; &nbsp;<font class='posOutcome'>Shared back: <strong>10</strong></font></font><div class='respPicDiv'><img src='img/responseButtonOffersNo0_wht.png' class='respPic'></div></div>","null","9","Lucas","3","Shared","0.65,0.35","13","0.65","trustrating_stim/white_mw046.bmp","3.5","120","25"
"html-keyboard-response","212","563508","0.0-19.0-1.25","60ce8efd3dc93c8607362691","bdp_trlrn","Wed Mar 15 2023 23:00:27 GMT-0400 (Eastern Daylight Time)","831363","Trustworthy,Untrustworthy","","1744","","","","decision","","<div class='trialDiv'><img src='trustrating_stim/white_mw053.bmp'><br><font class='baseline'><strong>James</strong><p>Choose number of points to send.</font><div class='respPicDiv'><img src='img/responseButtonOffersNo0L.png' class='respPic'></div></div>","5","9","James","10","Kept","0.65,0.2","14","0.65","trustrating_stim/white_mw053.bmp","7.5","125","26"
"html-keyboard-response","213","563760","0.0-19.0-2.25","60ce8efd3dc93c8607362691","bdp_trlrn","Wed Mar 15 2023 23:00:27 GMT-0400 (Eastern Daylight Time)","831363","Trustworthy,Untrustworthy","","null","","","","decisionFB","","<div class='trialDiv'><img src='trustrating_stim/white_mw053.bmp'><br><font class='baseline'><strong>James</strong><p>Choose number of points to send.</font><div class='respPicDiv'><img src='img/responseButtonOffersNo0L5.png' class='respPic'></div></div>","null","9","James","10","Kept","0.65,0.2","14","0.65","trustrating_stim/white_mw053.bmp","7.5","120","26"
"html-keyboard-response","214","564765","0.0-19.0-3.25","60ce8efd3dc93c8607362691","bdp_trlrn","Wed Mar 15 2023 23:00:27 GMT-0400 (Eastern Daylight Time)","831363","Trustworthy,Untrustworthy","","null","","","","feedback","","<div class='trialDiv'><img src='trustrating_stim/white_mw053.bmp'><br><font class='baseline'><strong>James</strong><p>Received: <strong>20</strong></font> &nbsp; &nbsp; &nbsp; &nbsp; &nbsp; &nbsp;<font class='negOutcome'>Shared back: <strong>0</strong></font></font><div class='respPicDiv'><img src='img/responseButtonOffersNo0_wht.png' class='respPic'></div></div>","null","9","James","10","Kept","0.65,0.2","14","0.65","trustrating_stim/white_mw053.bmp","7.5","120","26"
"html-keyboard-response","215","565819","0.0-19.0-1.26","60ce8efd3dc93c8607362691","bdp_trlrn","Wed Mar 15 2023 23:00:27 GMT-0400 (Eastern Daylight Time)","831363","Trustworthy,Untrustworthy","","1053","","","","decision","","<div class='trialDiv'><img src='trustrating_stim/white_00223_940128_fb_edt.bmp'><br><font class='baseline'><strong>Ethan</strong><p>Choose number of points to send.</font><div class='respPicDiv'><img src='img/responseButtonOffersNo0L.png' class='respPic'></div></div>","5","9","Ethan","7","Shared","0.35,0.8","9","0.35","trustrating_stim/white_00223_940128_fb_edt.bmp","6","125","27"
"html-keyboard-response","216","566071","0.0-19.0-2.26","60ce8efd3dc93c8607362691","bdp_trlrn","Wed Mar 15 2023 23:00:27 GMT-0400 (Eastern Daylight Time)","831363","Trustworthy,Untrustworthy","","null","","","","decisionFB","","<div class='trialDiv'><img src='trustrating_stim/white_00223_940128_fb_edt.bmp'><br><font class='baseline'><strong>Ethan</strong><p>Choose number of points to send.</font><div class='respPicDiv'><img src='img/responseButtonOffersNo0L5.png' class='respPic'></div></div>","null","9","Ethan","7","Shared","0.35,0.8","9","0.35","trustrating_stim/white_00223_940128_fb_edt.bmp","6","120","27"
"html-keyboard-response","217","567077","0.0-19.0-3.26","60ce8efd3dc93c8607362691","bdp_trlrn","Wed Mar 15 2023 23:00:27 GMT-0400 (Eastern Daylight Time)","831363","Trustworthy,Untrustworthy","","null","","","","feedback","","<div class='trialDiv'><img src='trustrating_stim/white_00223_940128_fb_edt.bmp'><br><font class='baseline'><strong>Ethan</strong><p>Received: <strong>20</strong></font> &nbsp; &nbsp; &nbsp; &nbsp; &nbsp; &nbsp;<font class='posOutcome'>Shared back: <strong>10</strong></font></font><div class='respPicDiv'><img src='img/responseButtonOffersNo0_wht.png' class='respPic'></div></div>","null","9","Ethan","7","Shared","0.35,0.8","9","0.35","trustrating_stim/white_00223_940128_fb_edt.bmp","6","130","27"
"html-keyboard-response","218","571981","0.0-19.0-1.27","60ce8efd3dc93c8607362691","bdp_trlrn","Wed Mar 15 2023 23:00:27 GMT-0400 (Eastern Daylight Time)","831363","Trustworthy,Untrustworthy","","4902","","","","decision","","<div class='trialDiv'><img src='trustrating_stim/white_mw046.bmp'><br><font class='baseline'><strong>Lucas</strong><p>Choose number of points to send.</font><div class='respPicDiv'><img src='img/responseButtonOffersNo0L.png' class='respPic'></div></div>","2","10","Lucas","3","Shared","0.65,0.35","13","0.65","trustrating_stim/white_mw046.bmp","3.5","135","28"
"html-keyboard-response","219","572236","0.0-19.0-2.27","60ce8efd3dc93c8607362691","bdp_trlrn","Wed Mar 15 2023 23:00:27 GMT-0400 (Eastern Daylight Time)","831363","Trustworthy,Untrustworthy","","null","","","","decisionFB","","<div class='trialDiv'><img src='trustrating_stim/white_mw046.bmp'><br><font class='baseline'><strong>Lucas</strong><p>Choose number of points to send.</font><div class='respPicDiv'><img src='img/responseButtonOffersNo0L2.png' class='respPic'></div></div>","null","10","Lucas","3","Shared","0.65,0.35","13","0.65","trustrating_stim/white_mw046.bmp","3.5","133","28"
"html-keyboard-response","220","573241","0.0-19.0-3.27","60ce8efd3dc93c8607362691","bdp_trlrn","Wed Mar 15 2023 23:00:27 GMT-0400 (Eastern Daylight Time)","831363","Trustworthy,Untrustworthy","","null","","","","feedback","","<div class='trialDiv'><img src='trustrating_stim/white_mw046.bmp'><br><font class='baseline'><strong>Lucas</strong><p>Received: <strong>8</strong></font> &nbsp; &nbsp; &nbsp; &nbsp; &nbsp; &nbsp;<font class='posOutcome'>Shared back: <strong>4</strong></font></font><div class='respPicDiv'><img src='img/responseButtonOffersNo0_wht.png' class='respPic'></div></div>","null","10","Lucas","3","Shared","0.65,0.35","13","0.65","trustrating_stim/white_mw046.bmp","3.5","137","28"
"html-keyboard-response","221","574564","0.0-19.0-1.28","60ce8efd3dc93c8607362691","bdp_trlrn","Wed Mar 15 2023 23:00:27 GMT-0400 (Eastern Daylight Time)","831363","Trustworthy,Untrustworthy","","1322","","","","decision","","<div class='trialDiv'><img src='trustrating_stim/white_00223_940128_fb_edt.bmp'><br><font class='baseline'><strong>Ethan</strong><p>Choose number of points to send.</font><div class='respPicDiv'><img src='img/responseButtonOffersNo0L.png' class='respPic'></div></div>","1","10","Ethan","7","Shared","0.35,0.8","9","0.35","trustrating_stim/white_00223_940128_fb_edt.bmp","6","142","29"
