"trial_type","trial_index","time_elapsed","internal_node_id","subject_id","task","startTime","totalTime","labels","view_history","rt","event","trial","time","trialtype","success","stimulus","key_press","aground","name","faceID","outcome","agenttype","agentswpt","agentcurrpshare","face","avgRating","point_total","round"
"pavlovia","0","9","0.0-0.0","63d420b1d5b7dc6a3a4c50aa","bdp_trlrn","Wed Mar 15 2023 23:49:23 GMT-0400 (Eastern Daylight Time)","742062","Untrustworthy,Trustworthy","","","","","","","","","","","","","","","","","","","",""
"instructions","1","5273","0.0-1.0","63d420b1d5b7dc6a3a4c50aa","bdp_trlrn","Wed Mar 15 2023 23:49:23 GMT-0400 (Eastern Daylight Time)","742062","Untrustworthy,Trustworthy","[{""page_index"":0,""viewing_time"":5262}]","5263","","","","","","","","","","","","","","","","","",""
"","","","","63d420b1d5b7dc6a3a4c50aa","bdp_trlrn","Wed Mar 15 2023 23:49:23 GMT-0400 (Eastern Daylight Time)","742062","Untrustworthy,Trustworthy","","","fullscreenenter","2","10068","fullscreenenter","","","","","","","","","","","","","",""
"fullscreen","2","11074","0.0-2.0","63d420b1d5b7dc6a3a4c50aa","bdp_trlrn","Wed Mar 15 2023 23:49:23 GMT-0400 (Eastern Daylight Time)","742062","Untrustworthy,Trustworthy","","","","","","","true","","","","","","","","","","","","",""
"instructions","3","24014","0.0-4.0","63d420b1d5b7dc6a3a4c50aa","bdp_trlrn","Wed Mar 15 2023 23:49:23 GMT-0400 (Eastern Daylight Time)","742062","Untrustworthy,Trustworthy","[{""page_index"":0,""viewing_time"":10584},{""page_index"":1,""viewing_time"":2353}]","12938","","","","","","","","","","","","","","","","","",""
"instructions","4","25294","0.0-5.0","63d420b1d5b7dc6a3a4c50aa","bdp_trlrn","Wed Mar 15 2023 23:49:23 GMT-0400 (Eastern Daylight Time)","742062","Untrustworthy,Trustworthy","[{""page_index"":0,""viewing_time"":1278}]","1279","","","","","","","","","","","","","","","","","",""
"image-keyboard-response","5","29425","0.0-6.0-1.0","63d420b1d5b7dc6a3a4c50aa","bdp_trlrn","Wed Mar 15 2023 23:49:23 GMT-0400 (Eastern Daylight Time)","742062","Untrustworthy,Trustworthy","","4011","","","","rating","","trustrating_stim/white_mw053.bmp","8","","","","","","","","","","",""
"image-keyboard-response","6","29632","0.0-6.0-2.0","63d420b1d5b7dc6a3a4c50aa","bdp_trlrn","Wed Mar 15 2023 23:49:23 GMT-0400 (Eastern Daylight Time)","742062","Untrustworthy,Trustworthy","","null","","","","ratingFB","","trustrating_stim/white_mw053.bmp","null","","","","","","","","","","",""
"image-keyboard-response","7","31640","0.0-6.0-1.1","63d420b1d5b7dc6a3a4c50aa","bdp_trlrn","Wed Mar 15 2023 23:49:23 GMT-0400 (Eastern Daylight Time)","742062","Untrustworthy,Trustworthy","","1897","","","","rating","","trustrating_stim/white_mw063.bmp","2","","","","","","","","","","",""
"image-keyboard-response","8","31856","0.0-6.0-2.1","63d420b1d5b7dc6a3a4c50aa","bdp_trlrn","Wed Mar 15 2023 23:49:23 GMT-0400 (Eastern Daylight Time)","742062","Untrustworthy,Trustworthy","","null","","","","ratingFB","","trustrating_stim/white_mw063.bmp","null","","","","","","","","","","",""
"image-keyboard-response","9","34109","0.0-6.0-1.2","63d420b1d5b7dc6a3a4c50aa","bdp_trlrn","Wed Mar 15 2023 23:49:23 GMT-0400 (Eastern Daylight Time)","742062","Untrustworthy,Trustworthy","","2142","","","","rating","","trustrating_stim/white_00898_960530_fa_edt.bmp","5","","","","","","","","","","",""
"image-keyboard-response","10","34313","0.0-6.0-2.2","63d420b1d5b7dc6a3a4c50aa","bdp_trlrn","Wed Mar 15 2023 23:49:23 GMT-0400 (Eastern Daylight Time)","742062","Untrustworthy,Trustworthy","","null","","","","ratingFB","","trustrating_stim/white_00898_960530_fa_edt.bmp","null","","","","","","","","","","",""
"image-keyboard-response","11","37018","0.0-6.0-1.3","63d420b1d5b7dc6a3a4c50aa","bdp_trlrn","Wed Mar 15 2023 23:49:23 GMT-0400 (Eastern Daylight Time)","742062","Untrustworthy,Trustworthy","","2593","","","","rating","","trustrating_stim/white_mw097.bmp","4","","","","","","","","","","",""
"image-keyboard-response","12","37229","0.0-6.0-2.3","63d420b1d5b7dc6a3a4c50aa","bdp_trlrn","Wed Mar 15 2023 23:49:23 GMT-0400 (Eastern Daylight Time)","742062","Untrustworthy,Trustworthy","","null","","","","ratingFB","","trustrating_stim/white_mw097.bmp","null","","","","","","","","","","",""
"image-keyboard-response","13","39861","0.0-6.0-1.4","63d420b1d5b7dc6a3a4c50aa","bdp_trlrn","Wed Mar 15 2023 23:49:23 GMT-0400 (Eastern Daylight Time)","742062","Untrustworthy,Trustworthy","","2521","","","","rating","","trustrating_stim/white_mw035.bmp","5","","","","","","","","","","",""
"image-keyboard-response","14","40079","0.0-6.0-2.4","63d420b1d5b7dc6a3a4c50aa","bdp_trlrn","Wed Mar 15 2023 23:49:23 GMT-0400 (Eastern Daylight Time)","742062","Untrustworthy,Trustworthy","","null","","","","ratingFB","","trustrating_stim/white_mw035.bmp","null","","","","","","","","","","",""
"image-keyboard-response","15","43538","0.0-6.0-1.5","63d420b1d5b7dc6a3a4c50aa","bdp_trlrn","Wed Mar 15 2023 23:49:23 GMT-0400 (Eastern Daylight Time)","742062","Untrustworthy,Trustworthy","","3349","","","","rating","","trustrating_stim/white_00785_941205_fb_edt.bmp","3","","","","","","","","","","",""
"image-keyboard-response","16","43742","0.0-6.0-2.5","63d420b1d5b7dc6a3a4c50aa","bdp_trlrn","Wed Mar 15 2023 23:49:23 GMT-0400 (Eastern Daylight Time)","742062","Untrustworthy,Trustworthy","","null","","","","ratingFB","","trustrating_stim/white_00785_941205_fb_edt.bmp","null","","","","","","","","","","",""
"image-keyboard-response","17","45876","0.0-6.0-1.6","63d420b1d5b7dc6a3a4c50aa","bdp_trlrn","Wed Mar 15 2023 23:49:23 GMT-0400 (Eastern Daylight Time)","742062","Untrustworthy,Trustworthy","","2023","","","","rating","","trustrating_stim/white_00659_941121_fa_edt.bmp","4","","","","","","","","","","",""
"image-keyboard-response","18","46091","0.0-6.0-2.6","63d420b1d5b7dc6a3a4c50aa","bdp_trlrn","Wed Mar 15 2023 23:49:23 GMT-0400 (Eastern Daylight Time)","742062","Untrustworthy,Trustworthy","","null","","","","ratingFB","","trustrating_stim/white_00659_941121_fa_edt.bmp","null","","","","","","","","","","",""
"image-keyboard-response","19","47993","0.0-6.0-1.7","63d420b1d5b7dc6a3a4c50aa","bdp_trlrn","Wed Mar 15 2023 23:49:23 GMT-0400 (Eastern Daylight Time)","742062","Untrustworthy,Trustworthy","","1789","","","","rating","","trustrating_stim/white_00602_940928_fb_edt.bmp","6","","","","","","","","","","",""
"image-keyboard-response","20","48204","0.0-6.0-2.7","63d420b1d5b7dc6a3a4c50aa","bdp_trlrn","Wed Mar 15 2023 23:49:23 GMT-0400 (Eastern Daylight Time)","742062","Untrustworthy,Trustworthy","","null","","","","ratingFB","","trustrating_stim/white_00602_940928_fb_edt.bmp","null","","","","","","","","","","",""
"image-keyboard-response","21","49996","0.0-6.0-1.8","63d420b1d5b7dc6a3a4c50aa","bdp_trlrn","Wed Mar 15 2023 23:49:23 GMT-0400 (Eastern Daylight Time)","742062","Untrustworthy,Trustworthy","","1679","","","","rating","","trustrating_stim/white_00757_941201_fa_edt.bmp","3","","","","","","","","","","",""
"image-keyboard-response","22","50208","0.0-6.0-2.8","63d420b1d5b7dc6a3a4c50aa","bdp_trlrn","Wed Mar 15 2023 23:49:23 GMT-0400 (Eastern Daylight Time)","742062","Untrustworthy,Trustworthy","","null","","","","ratingFB","","trustrating_stim/white_00757_941201_fa_edt.bmp","null","","","","","","","","","","",""
"image-keyboard-response","23","52435","0.0-6.0-1.9","63d420b1d5b7dc6a3a4c50aa","bdp_trlrn","Wed Mar 15 2023 23:49:23 GMT-0400 (Eastern Daylight Time)","742062","Untrustworthy,Trustworthy","","2117","","","","rating","","trustrating_stim/white_mw089.bmp","3","","","","","","","","","","",""
"image-keyboard-response","24","52647","0.0-6.0-2.9","63d420b1d5b7dc6a3a4c50aa","bdp_trlrn","Wed Mar 15 2023 23:49:23 GMT-0400 (Eastern Daylight Time)","742062","Untrustworthy,Trustworthy","","null","","","","ratingFB","","trustrating_stim/white_mw089.bmp","null","","","","","","","","","","",""
"image-keyboard-response","25","55775","0.0-6.0-1.10","63d420b1d5b7dc6a3a4c50aa","bdp_trlrn","Wed Mar 15 2023 23:49:23 GMT-0400 (Eastern Daylight Time)","742062","Untrustworthy,Trustworthy","","3017","","","","rating","","trustrating_stim/white_00519_940519_fb_edt.bmp","3","","","","","","","","","","",""
"image-keyboard-response","26","55979","0.0-6.0-2.10","63d420b1d5b7dc6a3a4c50aa","bdp_trlrn","Wed Mar 15 2023 23:49:23 GMT-0400 (Eastern Daylight Time)","742062","Untrustworthy,Trustworthy","","null","","","","ratingFB","","trustrating_stim/white_00519_940519_fb_edt.bmp","null","","","","","","","","","","",""
"image-keyboard-response","27","57573","0.0-6.0-1.11","63d420b1d5b7dc6a3a4c50aa","bdp_trlrn","Wed Mar 15 2023 23:49:23 GMT-0400 (Eastern Daylight Time)","742062","Untrustworthy,Trustworthy","","1482","","","","rating","","trustrating_stim/white_00223_940128_fb_edt.bmp","2","","","","","","","","","","",""
"image-keyboard-response","28","57779","0.0-6.0-2.11","63d420b1d5b7dc6a3a4c50aa","bdp_trlrn","Wed Mar 15 2023 23:49:23 GMT-0400 (Eastern Daylight Time)","742062","Untrustworthy,Trustworthy","","null","","","","ratingFB","","trustrating_stim/white_00223_940128_fb_edt.bmp","null","","","","","","","","","","",""
"image-keyboard-response","29","61402","0.0-6.0-1.12","63d420b1d5b7dc6a3a4c50aa","bdp_trlrn","Wed Mar 15 2023 23:49:23 GMT-0400 (Eastern Daylight Time)","742062","Untrustworthy,Trustworthy","","3511","","","","rating","","trustrating_stim/white_00761_941201_fb_edt.bmp","5","","","","","","","","","","",""
"image-keyboard-response","30","61607","0.0-6.0-2.12","63d420b1d5b7dc6a3a4c50aa","bdp_trlrn","Wed Mar 15 2023 23:49:23 GMT-0400 (Eastern Daylight Time)","742062","Untrustworthy,Trustworthy","","null","","","","ratingFB","","trustrating_stim/white_00761_941201_fb_edt.bmp","null","","","","","","","","","","",""
"image-keyboard-response","31","63141","0.0-6.0-1.13","63d420b1d5b7dc6a3a4c50aa","bdp_trlrn","Wed Mar 15 2023 23:49:23 GMT-0400 (Eastern Daylight Time)","742062","Untrustworthy,Trustworthy","","1423","","","","rating","","trustrating_stim/white_mw049.bmp","6","","","","","","","","","","",""
"image-keyboard-response","32","63345","0.0-6.0-2.13","63d420b1d5b7dc6a3a4c50aa","bdp_trlrn","Wed Mar 15 2023 23:49:23 GMT-0400 (Eastern Daylight Time)","742062","Untrustworthy,Trustworthy","","null","","","","ratingFB","","trustrating_stim/white_mw049.bmp","null","","","","","","","","","","",""
"image-keyboard-response","33","65817","0.0-6.0-1.14","63d420b1d5b7dc6a3a4c50aa","bdp_trlrn","Wed Mar 15 2023 23:49:23 GMT-0400 (Eastern Daylight Time)","742062","Untrustworthy,Trustworthy","","2361","","","","rating","","trustrating_stim/white_00807_941205_fb_edt.bmp","5","","","","","","","","","","",""
"image-keyboard-response","34","66022","0.0-6.0-2.14","63d420b1d5b7dc6a3a4c50aa","bdp_trlrn","Wed Mar 15 2023 23:49:23 GMT-0400 (Eastern Daylight Time)","742062","Untrustworthy,Trustworthy","","null","","","","ratingFB","","trustrating_stim/white_00807_941205_fb_edt.bmp","null","","","","","","","","","","",""
"image-keyboard-response","35","67842","0.0-6.0-1.15","63d420b1d5b7dc6a3a4c50aa","bdp_trlrn","Wed Mar 15 2023 23:49:23 GMT-0400 (Eastern Daylight Time)","742062","Untrustworthy,Trustworthy","","1710","","","","rating","","trustrating_stim/white_mw048.bmp","2","","","","","","","","","","",""
"image-keyboard-response","36","68057","0.0-6.0-2.15","63d420b1d5b7dc6a3a4c50aa","bdp_trlrn","Wed Mar 15 2023 23:49:23 GMT-0400 (Eastern Daylight Time)","742062","Untrustworthy,Trustworthy","","null","","","","ratingFB","","trustrating_stim/white_mw048.bmp","null","","","","","","","","","","",""
"image-keyboard-response","37","70176","0.0-6.0-1.16","63d420b1d5b7dc6a3a4c50aa","bdp_trlrn","Wed Mar 15 2023 23:49:23 GMT-0400 (Eastern Daylight Time)","742062","Untrustworthy,Trustworthy","","2006","","","","rating","","trustrating_stim/white_mw056.bmp","3","","","","","","","","","","",""
"image-keyboard-response","38","70389","0.0-6.0-2.16","63d420b1d5b7dc6a3a4c50aa","bdp_trlrn","Wed Mar 15 2023 23:49:23 GMT-0400 (Eastern Daylight Time)","742062","Untrustworthy,Trustworthy","","null","","","","ratingFB","","trustrating_stim/white_mw056.bmp","null","","","","","","","","","","",""
"image-keyboard-response","39","71825","0.0-6.0-1.17","63d420b1d5b7dc6a3a4c50aa","bdp_trlrn","Wed Mar 15 2023 23:49:23 GMT-0400 (Eastern Daylight Time)","742062","Untrustworthy,Trustworthy","","1324","","","","rating","","trustrating_stim/white_mw033.bmp","2","","","","","","","","","","",""
"image-keyboard-response","40","72035","0.0-6.0-2.17","63d420b1d5b7dc6a3a4c50aa","bdp_trlrn","Wed Mar 15 2023 23:49:23 GMT-0400 (Eastern Daylight Time)","742062","Untrustworthy,Trustworthy","","null","","","","ratingFB","","trustrating_stim/white_mw033.bmp","null","","","","","","","","","","",""
"image-keyboard-response","41","73713","0.0-6.0-1.18","63d420b1d5b7dc6a3a4c50aa","bdp_trlrn","Wed Mar 15 2023 23:49:23 GMT-0400 (Eastern Daylight Time)","742062","Untrustworthy,Trustworthy","","1566","","","","rating","","trustrating_stim/white_00340_940422_fa_edt.bmp","1","","","","","","","","","","",""
"image-keyboard-response","42","73917","0.0-6.0-2.18","63d420b1d5b7dc6a3a4c50aa","bdp_trlrn","Wed Mar 15 2023 23:49:23 GMT-0400 (Eastern Daylight Time)","742062","Untrustworthy,Trustworthy","","null","","","","ratingFB","","trustrating_stim/white_00340_940422_fa_edt.bmp","null","","","","","","","","","","",""
"image-keyboard-response","43","76982","0.0-6.0-1.19","63d420b1d5b7dc6a3a4c50aa","bdp_trlrn","Wed Mar 15 2023 23:49:23 GMT-0400 (Eastern Daylight Time)","742062","Untrustworthy,Trustworthy","","2953","","","","rating","","trustrating_stim/white_mw084.bmp","4","","","","","","","","","","",""
"image-keyboard-response","44","77189","0.0-6.0-2.19","63d420b1d5b7dc6a3a4c50aa","bdp_trlrn","Wed Mar 15 2023 23:49:23 GMT-0400 (Eastern Daylight Time)","742062","Untrustworthy,Trustworthy","","null","","","","ratingFB","","trustrating_stim/white_mw084.bmp","null","","","","","","","","","","",""
"image-keyboard-response","45","78762","0.0-6.0-1.20","63d420b1d5b7dc6a3a4c50aa","bdp_trlrn","Wed Mar 15 2023 23:49:23 GMT-0400 (Eastern Daylight Time)","742062","Untrustworthy,Trustworthy","","1459","","","","rating","","trustrating_stim/white_mw099.bmp","3","","","","","","","","","","",""
"image-keyboard-response","46","78977","0.0-6.0-2.20","63d420b1d5b7dc6a3a4c50aa","bdp_trlrn","Wed Mar 15 2023 23:49:23 GMT-0400 (Eastern Daylight Time)","742062","Untrustworthy,Trustworthy","","null","","","","ratingFB","","trustrating_stim/white_mw099.bmp","null","","","","","","","","","","",""
"image-keyboard-response","47","81762","0.0-6.0-1.21","63d420b1d5b7dc6a3a4c50aa","bdp_trlrn","Wed Mar 15 2023 23:49:23 GMT-0400 (Eastern Daylight Time)","742062","Untrustworthy,Trustworthy","","2671","","","","rating","","trustrating_stim/white_mw060.bmp","3","","","","","","","","","","",""
"image-keyboard-response","48","81968","0.0-6.0-2.21","63d420b1d5b7dc6a3a4c50aa","bdp_trlrn","Wed Mar 15 2023 23:49:23 GMT-0400 (Eastern Daylight Time)","742062","Untrustworthy,Trustworthy","","null","","","","ratingFB","","trustrating_stim/white_mw060.bmp","null","","","","","","","","","","",""
"image-keyboard-response","49","83743","0.0-6.0-1.22","63d420b1d5b7dc6a3a4c50aa","bdp_trlrn","Wed Mar 15 2023 23:49:23 GMT-0400 (Eastern Daylight Time)","742062","Untrustworthy,Trustworthy","","1664","","","","rating","","trustrating_stim/white_mw071.bmp","3","","","","","","","","","","",""
"image-keyboard-response","50","83958","0.0-6.0-2.22","63d420b1d5b7dc6a3a4c50aa","bdp_trlrn","Wed Mar 15 2023 23:49:23 GMT-0400 (Eastern Daylight Time)","742062","Untrustworthy,Trustworthy","","null","","","","ratingFB","","trustrating_stim/white_mw071.bmp","null","","","","","","","","","","",""
"image-keyboard-response","51","86051","0.0-6.0-1.23","63d420b1d5b7dc6a3a4c50aa","bdp_trlrn","Wed Mar 15 2023 23:49:23 GMT-0400 (Eastern Daylight Time)","742062","Untrustworthy,Trustworthy","","1981","","","","rating","","trustrating_stim/white_00109_931230_fa_edt.bmp","5","","","","","","","","","","",""
"image-keyboard-response","52","86257","0.0-6.0-2.23","63d420b1d5b7dc6a3a4c50aa","bdp_trlrn","Wed Mar 15 2023 23:49:23 GMT-0400 (Eastern Daylight Time)","742062","Untrustworthy,Trustworthy","","null","","","","ratingFB","","trustrating_stim/white_00109_931230_fa_edt.bmp","null","","","","","","","","","","",""
"image-keyboard-response","53","88565","0.0-6.0-1.24","63d420b1d5b7dc6a3a4c50aa","bdp_trlrn","Wed Mar 15 2023 23:49:23 GMT-0400 (Eastern Daylight Time)","742062","Untrustworthy,Trustworthy","","2197","","","","rating","","trustrating_stim/white_mw046.bmp","4","","","","","","","","","","",""
"image-keyboard-response","54","88768","0.0-6.0-2.24","63d420b1d5b7dc6a3a4c50aa","bdp_trlrn","Wed Mar 15 2023 23:49:23 GMT-0400 (Eastern Daylight Time)","742062","Untrustworthy,Trustworthy","","null","","","","ratingFB","","trustrating_stim/white_mw046.bmp","null","","","","","","","","","","",""
"image-keyboard-response","55","92380","0.0-6.0-1.25","63d420b1d5b7dc6a3a4c50aa","bdp_trlrn","Wed Mar 15 2023 23:49:23 GMT-0400 (Eastern Daylight Time)","742062","Untrustworthy,Trustworthy","","3503","","","","rating","","trustrating_stim/white_00120_931230_fa_edt.bmp","4","","","","","","","","","","",""
"image-keyboard-response","56","92587","0.0-6.0-2.25","63d420b1d5b7dc6a3a4c50aa","bdp_trlrn","Wed Mar 15 2023 23:49:23 GMT-0400 (Eastern Daylight Time)","742062","Untrustworthy,Trustworthy","","null","","","","ratingFB","","trustrating_stim/white_00120_931230_fa_edt.bmp","null","","","","","","","","","","",""
"image-keyboard-response","57","93999","0.0-6.0-1.26","63d420b1d5b7dc6a3a4c50aa","bdp_trlrn","Wed Mar 15 2023 23:49:23 GMT-0400 (Eastern Daylight Time)","742062","Untrustworthy,Trustworthy","","1303","","","","rating","","trustrating_stim/white_00577_940928_fa_edt.bmp","2","","","","","","","","","","",""
"image-keyboard-response","58","94212","0.0-6.0-2.26","63d420b1d5b7dc6a3a4c50aa","bdp_trlrn","Wed Mar 15 2023 23:49:23 GMT-0400 (Eastern Daylight Time)","742062","Untrustworthy,Trustworthy","","null","","","","ratingFB","","trustrating_stim/white_00577_940928_fa_edt.bmp","null","","","","","","","","","","",""
"image-keyboard-response","59","96909","0.0-6.0-1.27","63d420b1d5b7dc6a3a4c50aa","bdp_trlrn","Wed Mar 15 2023 23:49:23 GMT-0400 (Eastern Daylight Time)","742062","Untrustworthy,Trustworthy","","2588","","","","rating","","trustrating_stim/white_00299_940422_fa_edt.bmp","5","","","","","","","","","","",""
"image-keyboard-response","60","97113","0.0-6.0-2.27","63d420b1d5b7dc6a3a4c50aa","bdp_trlrn","Wed Mar 15 2023 23:49:23 GMT-0400 (Eastern Daylight Time)","742062","Untrustworthy,Trustworthy","","null","","","","ratingFB","","trustrating_stim/white_00299_940422_fa_edt.bmp","null","","","","","","","","","","",""
"image-keyboard-response","61","98680","0.0-6.0-1.28","63d420b1d5b7dc6a3a4c50aa","bdp_trlrn","Wed Mar 15 2023 23:49:23 GMT-0400 (Eastern Daylight Time)","742062","Untrustworthy,Trustworthy","","1455","","","","rating","","trustrating_stim/white_00129_931230_fb_edt.bmp","6","","","","","","","","","","",""
"image-keyboard-response","62","98885","0.0-6.0-2.28","63d420b1d5b7dc6a3a4c50aa","bdp_trlrn","Wed Mar 15 2023 23:49:23 GMT-0400 (Eastern Daylight Time)","742062","Untrustworthy,Trustworthy","","null","","","","ratingFB","","trustrating_stim/white_00129_931230_fb_edt.bmp","null","","","","","","","","","","",""
"image-keyboard-response","63","102120","0.0-6.0-1.29","63d420b1d5b7dc6a3a4c50aa","bdp_trlrn","Wed Mar 15 2023 23:49:23 GMT-0400 (Eastern Daylight Time)","742062","Untrustworthy,Trustworthy","","3124","","","","rating","","trustrating_stim/white_mw066.bmp","4","","","","","","","","","","",""
"image-keyboard-response","64","102336","0.0-6.0-2.29","63d420b1d5b7dc6a3a4c50aa","bdp_trlrn","Wed Mar 15 2023 23:49:23 GMT-0400 (Eastern Daylight Time)","742062","Untrustworthy,Trustworthy","","null","","","","ratingFB","","trustrating_stim/white_mw066.bmp","null","","","","","","","","","","",""
"image-keyboard-response","65","104138","0.0-6.0-1.30","63d420b1d5b7dc6a3a4c50aa","bdp_trlrn","Wed Mar 15 2023 23:49:23 GMT-0400 (Eastern Daylight Time)","742062","Untrustworthy,Trustworthy","","1690","","","","rating","","trustrating_stim/white_00659_941121_fa_edt.bmp","3","","","","","","","","","","",""
"image-keyboard-response","66","104355","0.0-6.0-2.30","63d420b1d5b7dc6a3a4c50aa","bdp_trlrn","Wed Mar 15 2023 23:49:23 GMT-0400 (Eastern Daylight Time)","742062","Untrustworthy,Trustworthy","","null","","","","ratingFB","","trustrating_stim/white_00659_941121_fa_edt.bmp","null","","","","","","","","","","",""
"image-keyboard-response","67","105608","0.0-6.0-1.31","63d420b1d5b7dc6a3a4c50aa","bdp_trlrn","Wed Mar 15 2023 23:49:23 GMT-0400 (Eastern Daylight Time)","742062","Untrustworthy,Trustworthy","","1142","","","","rating","","trustrating_stim/white_00577_940928_fa_edt.bmp","2","","","","","","","","","","",""
"image-keyboard-response","68","105811","0.0-6.0-2.31","63d420b1d5b7dc6a3a4c50aa","bdp_trlrn","Wed Mar 15 2023 23:49:23 GMT-0400 (Eastern Daylight Time)","742062","Untrustworthy,Trustworthy","","null","","","","ratingFB","","trustrating_stim/white_00577_940928_fa_edt.bmp","null","","","","","","","","","","",""
"image-keyboard-response","69","107252","0.0-6.0-1.32","63d420b1d5b7dc6a3a4c50aa","bdp_trlrn","Wed Mar 15 2023 23:49:23 GMT-0400 (Eastern Daylight Time)","742062","Untrustworthy,Trustworthy","","1329","","","","rating","","trustrating_stim/white_mw048.bmp","2","","","","","","","","","","",""
"image-keyboard-response","70","107458","0.0-6.0-2.32","63d420b1d5b7dc6a3a4c50aa","bdp_trlrn","Wed Mar 15 2023 23:49:23 GMT-0400 (Eastern Daylight Time)","742062","Untrustworthy,Trustworthy","","null","","","","ratingFB","","trustrating_stim/white_mw048.bmp","null","","","","","","","","","","",""
"image-keyboard-response","71","112537","0.0-6.0-1.33","63d420b1d5b7dc6a3a4c50aa","bdp_trlrn","Wed Mar 15 2023 23:49:23 GMT-0400 (Eastern Daylight Time)","742062","Untrustworthy,Trustworthy","","4967","","","","rating","","trustrating_stim/white_00602_940928_fb_edt.bmp","5","","","","","","","","","","",""
"image-keyboard-response","72","112746","0.0-6.0-2.33","63d420b1d5b7dc6a3a4c50aa","bdp_trlrn","Wed Mar 15 2023 23:49:23 GMT-0400 (Eastern Daylight Time)","742062","Untrustworthy,Trustworthy","","null","","","","ratingFB","","trustrating_stim/white_00602_940928_fb_edt.bmp","null","","","","","","","","","","",""
"image-keyboard-response","73","114462","0.0-6.0-1.34","63d420b1d5b7dc6a3a4c50aa","bdp_trlrn","Wed Mar 15 2023 23:49:23 GMT-0400 (Eastern Daylight Time)","742062","Untrustworthy,Trustworthy","","1604","","","","rating","","trustrating_stim/white_00129_931230_fb_edt.bmp","6","","","","","","","","","","",""
"image-keyboard-response","74","114670","0.0-6.0-2.34","63d420b1d5b7dc6a3a4c50aa","bdp_trlrn","Wed Mar 15 2023 23:49:23 GMT-0400 (Eastern Daylight Time)","742062","Untrustworthy,Trustworthy","","null","","","","ratingFB","","trustrating_stim/white_00129_931230_fb_edt.bmp","null","","","","","","","","","","",""
"image-keyboard-response","75","117386","0.0-6.0-1.35","63d420b1d5b7dc6a3a4c50aa","bdp_trlrn","Wed Mar 15 2023 23:49:23 GMT-0400 (Eastern Daylight Time)","742062","Untrustworthy,Trustworthy","","2604","","","","rating","","trustrating_stim/white_mw056.bmp","4","","","","","","","","","","",""
"image-keyboard-response","76","117599","0.0-6.0-2.35","63d420b1d5b7dc6a3a4c50aa","bdp_trlrn","Wed Mar 15 2023 23:49:23 GMT-0400 (Eastern Daylight Time)","742062","Untrustworthy,Trustworthy","","null","","","","ratingFB","","trustrating_stim/white_mw056.bmp","null","","","","","","","","","","",""
"image-keyboard-response","77","119268","0.0-6.0-1.36","63d420b1d5b7dc6a3a4c50aa","bdp_trlrn","Wed Mar 15 2023 23:49:23 GMT-0400 (Eastern Daylight Time)","742062","Untrustworthy,Trustworthy","","1544","","","","rating","","trustrating_stim/white_mw060.bmp","2","","","","","","","","","","",""
"image-keyboard-response","78","119479","0.0-6.0-2.36","63d420b1d5b7dc6a3a4c50aa","bdp_trlrn","Wed Mar 15 2023 23:49:23 GMT-0400 (Eastern Daylight Time)","742062","Untrustworthy,Trustworthy","","null","","","","ratingFB","","trustrating_stim/white_mw060.bmp","null","","","","","","","","","","",""
"image-keyboard-response","79","122095","0.0-6.0-1.37","63d420b1d5b7dc6a3a4c50aa","bdp_trlrn","Wed Mar 15 2023 23:49:23 GMT-0400 (Eastern Daylight Time)","742062","Untrustworthy,Trustworthy","","2503","","","","rating","","trustrating_stim/white_00757_941201_fa_edt.bmp","3","","","","","","","","","","",""
"image-keyboard-response","80","122298","0.0-6.0-2.37","63d420b1d5b7dc6a3a4c50aa","bdp_trlrn","Wed Mar 15 2023 23:49:23 GMT-0400 (Eastern Daylight Time)","742062","Untrustworthy,Trustworthy","","null","","","","ratingFB","","trustrating_stim/white_00757_941201_fa_edt.bmp","null","","","","","","","","","","",""
"image-keyboard-response","81","123933","0.0-6.0-1.38","63d420b1d5b7dc6a3a4c50aa","bdp_trlrn","Wed Mar 15 2023 23:49:23 GMT-0400 (Eastern Daylight Time)","742062","Untrustworthy,Trustworthy","","1523","","","","rating","","trustrating_stim/white_mw035.bmp","3","","","","","","","","","","",""
"image-keyboard-response","82","124147","0.0-6.0-2.38","63d420b1d5b7dc6a3a4c50aa","bdp_trlrn","Wed Mar 15 2023 23:49:23 GMT-0400 (Eastern Daylight Time)","742062","Untrustworthy,Trustworthy","","null","","","","ratingFB","","trustrating_stim/white_mw035.bmp","null","","","","","","","","","","",""
"image-keyboard-response","83","125646","0.0-6.0-1.39","63d420b1d5b7dc6a3a4c50aa","bdp_trlrn","Wed Mar 15 2023 23:49:23 GMT-0400 (Eastern Daylight Time)","742062","Untrustworthy,Trustworthy","","1389","","","","rating","","trustrating_stim/white_00109_931230_fa_edt.bmp","3","","","","","","","","","","",""
"image-keyboard-response","84","125853","0.0-6.0-2.39","63d420b1d5b7dc6a3a4c50aa","bdp_trlrn","Wed Mar 15 2023 23:49:23 GMT-0400 (Eastern Daylight Time)","742062","Untrustworthy,Trustworthy","","null","","","","ratingFB","","trustrating_stim/white_00109_931230_fa_edt.bmp","null","","","","","","","","","","",""
"image-keyboard-response","85","127431","0.0-6.0-1.40","63d420b1d5b7dc6a3a4c50aa","bdp_trlrn","Wed Mar 15 2023 23:49:23 GMT-0400 (Eastern Daylight Time)","742062","Untrustworthy,Trustworthy","","1466","","","","rating","","trustrating_stim/white_00519_940519_fb_edt.bmp","3","","","","","","","","","","",""
"image-keyboard-response","86","127636","0.0-6.0-2.40","63d420b1d5b7dc6a3a4c50aa","bdp_trlrn","Wed Mar 15 2023 23:49:23 GMT-0400 (Eastern Daylight Time)","742062","Untrustworthy,Trustworthy","","null","","","","ratingFB","","trustrating_stim/white_00519_940519_fb_edt.bmp","null","","","","","","","","","","",""
"image-keyboard-response","87","129114","0.0-6.0-1.41","63d420b1d5b7dc6a3a4c50aa","bdp_trlrn","Wed Mar 15 2023 23:49:23 GMT-0400 (Eastern Daylight Time)","742062","Untrustworthy,Trustworthy","","1364","","","","rating","","trustrating_stim/white_mw071.bmp","3","","","","","","","","","","",""
"image-keyboard-response","88","129330","0.0-6.0-2.41","63d420b1d5b7dc6a3a4c50aa","bdp_trlrn","Wed Mar 15 2023 23:49:23 GMT-0400 (Eastern Daylight Time)","742062","Untrustworthy,Trustworthy","","null","","","","ratingFB","","trustrating_stim/white_mw071.bmp","null","","","","","","","","","","",""
"image-keyboard-response","89","131402","0.0-6.0-1.42","63d420b1d5b7dc6a3a4c50aa","bdp_trlrn","Wed Mar 15 2023 23:49:23 GMT-0400 (Eastern Daylight Time)","742062","Untrustworthy,Trustworthy","","1960","","","","rating","","trustrating_stim/white_mw084.bmp","4","","","","","","","","","","",""
"image-keyboard-response","90","131618","0.0-6.0-2.42","63d420b1d5b7dc6a3a4c50aa","bdp_trlrn","Wed Mar 15 2023 23:49:23 GMT-0400 (Eastern Daylight Time)","742062","Untrustworthy,Trustworthy","","null","","","","ratingFB","","trustrating_stim/white_mw084.bmp","null","","","","","","","","","","",""
"image-keyboard-response","91","132861","0.0-6.0-1.43","63d420b1d5b7dc6a3a4c50aa","bdp_trlrn","Wed Mar 15 2023 23:49:23 GMT-0400 (Eastern Daylight Time)","742062","Untrustworthy,Trustworthy","","1136","","","","rating","","trustrating_stim/white_mw097.bmp","3","","","","","","","","","","",""
"image-keyboard-response","92","133070","0.0-6.0-2.43","63d420b1d5b7dc6a3a4c50aa","bdp_trlrn","Wed Mar 15 2023 23:49:23 GMT-0400 (Eastern Daylight Time)","742062","Untrustworthy,Trustworthy","","null","","","","ratingFB","","trustrating_stim/white_mw097.bmp","null","","","","","","","","","","",""
"image-keyboard-response","93","134706","0.0-6.0-1.44","63d420b1d5b7dc6a3a4c50aa","bdp_trlrn","Wed Mar 15 2023 23:49:23 GMT-0400 (Eastern Daylight Time)","742062","Untrustworthy,Trustworthy","","1524","","","","rating","","trustrating_stim/white_00340_940422_fa_edt.bmp","2","","","","","","","","","","",""
"image-keyboard-response","94","134916","0.0-6.0-2.44","63d420b1d5b7dc6a3a4c50aa","bdp_trlrn","Wed Mar 15 2023 23:49:23 GMT-0400 (Eastern Daylight Time)","742062","Untrustworthy,Trustworthy","","null","","","","ratingFB","","trustrating_stim/white_00340_940422_fa_edt.bmp","null","","","","","","","","","","",""
"image-keyboard-response","95","137354","0.0-6.0-1.45","63d420b1d5b7dc6a3a4c50aa","bdp_trlrn","Wed Mar 15 2023 23:49:23 GMT-0400 (Eastern Daylight Time)","742062","Untrustworthy,Trustworthy","","2326","","","","rating","","trustrating_stim/white_mw053.bmp","7","","","","","","","","","","",""
"image-keyboard-response","96","137566","0.0-6.0-2.45","63d420b1d5b7dc6a3a4c50aa","bdp_trlrn","Wed Mar 15 2023 23:49:23 GMT-0400 (Eastern Daylight Time)","742062","Untrustworthy,Trustworthy","","null","","","","ratingFB","","trustrating_stim/white_mw053.bmp","null","","","","","","","","","","",""
"image-keyboard-response","97","139755","0.0-6.0-1.46","63d420b1d5b7dc6a3a4c50aa","bdp_trlrn","Wed Mar 15 2023 23:49:23 GMT-0400 (Eastern Daylight Time)","742062","Untrustworthy,Trustworthy","","2077","","","","rating","","trustrating_stim/white_00299_940422_fa_edt.bmp","4","","","","","","","","","","",""
"image-keyboard-response","98","139965","0.0-6.0-2.46","63d420b1d5b7dc6a3a4c50aa","bdp_trlrn","Wed Mar 15 2023 23:49:23 GMT-0400 (Eastern Daylight Time)","742062","Untrustworthy,Trustworthy","","null","","","","ratingFB","","trustrating_stim/white_00299_940422_fa_edt.bmp","null","","","","","","","","","","",""
"image-keyboard-response","99","141849","0.0-6.0-1.47","63d420b1d5b7dc6a3a4c50aa","bdp_trlrn","Wed Mar 15 2023 23:49:23 GMT-0400 (Eastern Daylight Time)","742062","Untrustworthy,Trustworthy","","1775","","","","rating","","trustrating_stim/white_00785_941205_fb_edt.bmp","3","","","","","","","","","","",""
"image-keyboard-response","100","142063","0.0-6.0-2.47","63d420b1d5b7dc6a3a4c50aa","bdp_trlrn","Wed Mar 15 2023 23:49:23 GMT-0400 (Eastern Daylight Time)","742062","Untrustworthy,Trustworthy","","null","","","","ratingFB","","trustrating_stim/white_00785_941205_fb_edt.bmp","null","","","","","","","","","","",""
"image-keyboard-response","101","143549","0.0-6.0-1.48","63d420b1d5b7dc6a3a4c50aa","bdp_trlrn","Wed Mar 15 2023 23:49:23 GMT-0400 (Eastern Daylight Time)","742062","Untrustworthy,Trustworthy","","1376","","","","rating","","trustrating_stim/white_00807_941205_fb_edt.bmp","4","","","","","","","","","","",""
"image-keyboard-response","102","143754","0.0-6.0-2.48","63d420b1d5b7dc6a3a4c50aa","bdp_trlrn","Wed Mar 15 2023 23:49:23 GMT-0400 (Eastern Daylight Time)","742062","Untrustworthy,Trustworthy","","null","","","","ratingFB","","trustrating_stim/white_00807_941205_fb_edt.bmp","null","","","","","","","","","","",""
"image-keyboard-response","103","145254","0.0-6.0-1.49","63d420b1d5b7dc6a3a4c50aa","bdp_trlrn","Wed Mar 15 2023 23:49:23 GMT-0400 (Eastern Daylight Time)","742062","Untrustworthy,Trustworthy","","1387","","","","rating","","trustrating_stim/white_mw063.bmp","2","","","","","","","","","","",""
"image-keyboard-response","104","145462","0.0-6.0-2.49","63d420b1d5b7dc6a3a4c50aa","bdp_trlrn","Wed Mar 15 2023 23:49:23 GMT-0400 (Eastern Daylight Time)","742062","Untrustworthy,Trustworthy","","null","","","","ratingFB","","trustrating_stim/white_mw063.bmp","null","","","","","","","","","","",""
"image-keyboard-response","105","147127","0.0-6.0-1.50","63d420b1d5b7dc6a3a4c50aa","bdp_trlrn","Wed Mar 15 2023 23:49:23 GMT-0400 (Eastern Daylight Time)","742062","Untrustworthy,Trustworthy","","1554","","","","rating","","trustrating_stim/white_mw049.bmp","4","","","","","","","","","","",""
"image-keyboard-response","106","147338","0.0-6.0-2.50","63d420b1d5b7dc6a3a4c50aa","bdp_trlrn","Wed Mar 15 2023 23:49:23 GMT-0400 (Eastern Daylight Time)","742062","Untrustworthy,Trustworthy","","null","","","","ratingFB","","trustrating_stim/white_mw049.bmp","null","","","","","","","","","","",""
"image-keyboard-response","107","149083","0.0-6.0-1.51","63d420b1d5b7dc6a3a4c50aa","bdp_trlrn","Wed Mar 15 2023 23:49:23 GMT-0400 (Eastern Daylight Time)","742062","Untrustworthy,Trustworthy","","1634","","","","rating","","trustrating_stim/white_mw089.bmp","2","","","","","","","","","","",""
"image-keyboard-response","108","149298","0.0-6.0-2.51","63d420b1d5b7dc6a3a4c50aa","bdp_trlrn","Wed Mar 15 2023 23:49:23 GMT-0400 (Eastern Daylight Time)","742062","Untrustworthy,Trustworthy","","null","","","","ratingFB","","trustrating_stim/white_mw089.bmp","null","","","","","","","","","","",""
"image-keyboard-response","109","150956","0.0-6.0-1.52","63d420b1d5b7dc6a3a4c50aa","bdp_trlrn","Wed Mar 15 2023 23:49:23 GMT-0400 (Eastern Daylight Time)","742062","Untrustworthy,Trustworthy","","1549","","","","rating","","trustrating_stim/white_00761_941201_fb_edt.bmp","3","","","","","","","","","","",""
"image-keyboard-response","110","151160","0.0-6.0-2.52","63d420b1d5b7dc6a3a4c50aa","bdp_trlrn","Wed Mar 15 2023 23:49:23 GMT-0400 (Eastern Daylight Time)","742062","Untrustworthy,Trustworthy","","null","","","","ratingFB","","trustrating_stim/white_00761_941201_fb_edt.bmp","null","","","","","","","","","","",""
"image-keyboard-response","111","153237","0.0-6.0-1.53","63d420b1d5b7dc6a3a4c50aa","bdp_trlrn","Wed Mar 15 2023 23:49:23 GMT-0400 (Eastern Daylight Time)","742062","Untrustworthy,Trustworthy","","1963","","","","rating","","trustrating_stim/white_00223_940128_fb_edt.bmp","1","","","","","","","","","","",""
"image-keyboard-response","112","153442","0.0-6.0-2.53","63d420b1d5b7dc6a3a4c50aa","bdp_trlrn","Wed Mar 15 2023 23:49:23 GMT-0400 (Eastern Daylight Time)","742062","Untrustworthy,Trustworthy","","null","","","","ratingFB","","trustrating_stim/white_00223_940128_fb_edt.bmp","null","","","","","","","","","","",""
"image-keyboard-response","113","155000","0.0-6.0-1.54","63d420b1d5b7dc6a3a4c50aa","bdp_trlrn","Wed Mar 15 2023 23:49:23 GMT-0400 (Eastern Daylight Time)","742062","Untrustworthy,Trustworthy","","1450","","","","rating","","trustrating_stim/white_mw066.bmp","3","","","","","","","","","","",""
"image-keyboard-response","114","155211","0.0-6.0-2.54","63d420b1d5b7dc6a3a4c50aa","bdp_trlrn","Wed Mar 15 2023 23:49:23 GMT-0400 (Eastern Daylight Time)","742062","Untrustworthy,Trustworthy","","null","","","","ratingFB","","trustrating_stim/white_mw066.bmp","null","","","","","","","","","","",""
"image-keyboard-response","115","157520","0.0-6.0-1.55","63d420b1d5b7dc6a3a4c50aa","bdp_trlrn","Wed Mar 15 2023 23:49:23 GMT-0400 (Eastern Daylight Time)","742062","Untrustworthy,Trustworthy","","2196","","","","rating","","trustrating_stim/white_mw046.bmp","3","","","","","","","","","","",""
"image-keyboard-response","116","157730","0.0-6.0-2.55","63d420b1d5b7dc6a3a4c50aa","bdp_trlrn","Wed Mar 15 2023 23:49:23 GMT-0400 (Eastern Daylight Time)","742062","Untrustworthy,Trustworthy","","null","","","","ratingFB","","trustrating_stim/white_mw046.bmp","null","","","","","","","","","","",""
"image-keyboard-response","117","159313","0.0-6.0-1.56","63d420b1d5b7dc6a3a4c50aa","bdp_trlrn","Wed Mar 15 2023 23:49:23 GMT-0400 (Eastern Daylight Time)","742062","Untrustworthy,Trustworthy","","1471","","","","rating","","trustrating_stim/white_mw099.bmp","3","","","","","","","","","","",""
"image-keyboard-response","118","159529","0.0-6.0-2.56","63d420b1d5b7dc6a3a4c50aa","bdp_trlrn","Wed Mar 15 2023 23:49:23 GMT-0400 (Eastern Daylight Time)","742062","Untrustworthy,Trustworthy","","null","","","","ratingFB","","trustrating_stim/white_mw099.bmp","null","","","","","","","","","","",""
"image-keyboard-response","119","162094","0.0-6.0-1.57","63d420b1d5b7dc6a3a4c50aa","bdp_trlrn","Wed Mar 15 2023 23:49:23 GMT-0400 (Eastern Daylight Time)","742062","Untrustworthy,Trustworthy","","2453","","","","rating","","trustrating_stim/white_00120_931230_fa_edt.bmp","4","","","","","","","","","","",""
"image-keyboard-response","120","162299","0.0-6.0-2.57","63d420b1d5b7dc6a3a4c50aa","bdp_trlrn","Wed Mar 15 2023 23:49:23 GMT-0400 (Eastern Daylight Time)","742062","Untrustworthy,Trustworthy","","null","","","","ratingFB","","trustrating_stim/white_00120_931230_fa_edt.bmp","null","","","","","","","","","","",""
"image-keyboard-response","121","163969","0.0-6.0-1.58","63d420b1d5b7dc6a3a4c50aa","bdp_trlrn","Wed Mar 15 2023 23:49:23 GMT-0400 (Eastern Daylight Time)","742062","Untrustworthy,Trustworthy","","1565","","","","rating","","trustrating_stim/white_mw033.bmp","3","","","","","","","","","","",""
"image-keyboard-response","122","164173","0.0-6.0-2.58","63d420b1d5b7dc6a3a4c50aa","bdp_trlrn","Wed Mar 15 2023 23:49:23 GMT-0400 (Eastern Daylight Time)","742062","Untrustworthy,Trustworthy","","null","","","","ratingFB","","trustrating_stim/white_mw033.bmp","null","","","","","","","","","","",""
"image-keyboard-response","123","166100","0.0-6.0-1.59","63d420b1d5b7dc6a3a4c50aa","bdp_trlrn","Wed Mar 15 2023 23:49:23 GMT-0400 (Eastern Daylight Time)","742062","Untrustworthy,Trustworthy","","1815","","","","rating","","trustrating_stim/white_00898_960530_fa_edt.bmp","4","","","","","","","","","","",""
"image-keyboard-response","124","166302","0.0-6.0-2.59","63d420b1d5b7dc6a3a4c50aa","bdp_trlrn","Wed Mar 15 2023 23:49:23 GMT-0400 (Eastern Daylight Time)","742062","Untrustworthy,Trustworthy","","null","","","","ratingFB","","trustrating_stim/white_00898_960530_fa_edt.bmp","null","","","","","","","","","","",""
"instructions","125","168205","0.0-7.0","63d420b1d5b7dc6a3a4c50aa","bdp_trlrn","Wed Mar 15 2023 23:49:23 GMT-0400 (Eastern Daylight Time)","742062","Untrustworthy,Trustworthy","[{""page_index"":0,""viewing_time"":1790}]","1792","","","","","","","","","","","","","","","","","",""
"instructions","126","250466","0.0-8.0","63d420b1d5b7dc6a3a4c50aa","bdp_trlrn","Wed Mar 15 2023 23:49:23 GMT-0400 (Eastern Daylight Time)","742062","Untrustworthy,Trustworthy","[{""page_index"":0,""viewing_time"":16192},{""page_index"":1,""viewing_time"":11713},{""page_index"":2,""viewing_time"":8683},{""page_index"":3,""viewing_time"":9172},{""page_index"":4,""viewing_time"":2767},{""page_index"":5,""viewing_time"":14112},{""page_index"":6,""viewing_time"":18322},{""page_index"":7,""viewing_time"":1183}]","82144","","","","","","","","","","","","","","","","","",""
"html-keyboard-response","127","255687","0.0-9.0","63d420b1d5b7dc6a3a4c50aa","bdp_trlrn","Wed Mar 15 2023 23:49:23 GMT-0400 (Eastern Daylight Time)","742062","Untrustworthy,Trustworthy","","5219","","","","","","<div class='header' style='text-align:left; position: absolute; top: 5%; left: 5%;'><small>Task 3 of 5</small></div><div class='instruxDiv'><p><strong>1) What is the minimum number of points you can choose to send to your partner?</strong></p><p>a) 0</p><p>b) 1</p><p>c) 5</p>","C","","","","","","","","","","",""
"html-keyboard-response","128","263011","0.0-10.0","63d420b1d5b7dc6a3a4c50aa","bdp_trlrn","Wed Mar 15 2023 23:49:23 GMT-0400 (Eastern Daylight Time)","742062","Untrustworthy,Trustworthy","","7208","","","","","","<div class='header' style='text-align:left; position: absolute; top: 5%; left: 5%;'><small>Task 3 of 5</small></div><div class='instruxDiv'><p><strong>1) What is the minimum number of points you can choose to send to your partner?</strong></p><p>a) 1</p><p>b) 1</p><p style='color:#FF0000'>c) 5</p><h3 style='color:#FF0000'>Incorrect!</h3><h3 class='center-content'>The correct response is b).</h3><h3 class='center-content'>The minimum number of points you can choose to send to your partner is 1 point.</h3><p><em>Press SPACEBAR to continue</em></p></div>"," ","","","","","","","","","","",""
"html-keyboard-response","129","270085","0.0-11.0","63d420b1d5b7dc6a3a4c50aa","bdp_trlrn","Wed Mar 15 2023 23:49:23 GMT-0400 (Eastern Daylight Time)","742062","Untrustworthy,Trustworthy","","6969","","","","","","<div class='header' style='text-align:left; position: absolute; top: 5%; left: 5%;'><small>Task 3 of 5</small></div><div class='instruxDiv'><p><strong>2) What is the maximum number of points you can choose to send to your partner?</strong></p><p>a) 8</p><p>b) 5</p><p>c) 3</p>","A","","","","","","","","","","",""
"html-keyboard-response","130","273054","0.0-12.0","63d420b1d5b7dc6a3a4c50aa","bdp_trlrn","Wed Mar 15 2023 23:49:23 GMT-0400 (Eastern Daylight Time)","742062","Untrustworthy,Trustworthy","","2852","","","","","","<div class='header' style='text-align:left; position: absolute; top: 5%; left: 5%;'><small>Task 3 of 5</small></div><div class='instruxDiv'><p><strong>2) What is the maximum number of points you can choose to send to your partner?</strong></p><p style='color:#FF0000'>a) 8</p><p>b) 5</p><p>c) 3</p><h3 style='color:#FF0000'>Incorrect!</h3><h3 class='center-content'>The correct response is b).</h3><h3 class='center-content'>The maximum number of points you can choose to send to your partner is 5 points.</h3><p><em>Press SPACEBAR to continue</em></p></div>"," ","","","","","","","","","","",""
"html-keyboard-response","131","278662","0.0-13.0","63d420b1d5b7dc6a3a4c50aa","bdp_trlrn","Wed Mar 15 2023 23:49:23 GMT-0400 (Eastern Daylight Time)","742062","Untrustworthy,Trustworthy","","5497","","","","","","<div class='header' style='text-align:left; position: absolute; top: 5%; left: 5%;'><small>Task 3 of 5</small></div><div class='instruxDiv'><p><strong>3) What happens to the amount of points you send to your partner?</strong></p><p>a) Nothing</p><p>b) It doubles</p><p>c) It quadruples</p>","C","","","","","","","","","","",""
"html-keyboard-response","132","280418","0.0-14.0","63d420b1d5b7dc6a3a4c50aa","bdp_trlrn","Wed Mar 15 2023 23:49:23 GMT-0400 (Eastern Daylight Time)","742062","Untrustworthy,Trustworthy","","1645","","","","","","<div class='header' style='text-align:left; position: absolute; top: 5%; left: 5%;'><small>Task 3 of 5</small></div><div class='instruxDiv'><p><strong>3) What happens to the amount of points you send to your partner?</strong></p><p>a) Nothing</p><p>b) It doubles</p><p style='color:#00FF00'>c) It quadruples</p><h3 style='color:#00FF00'>Correct!</h3><h3 class='center-content'>The correct response is c).</h3><h3 class='center-content'>The amount of points you send to your partner quadruples.</h3><p><em>Press SPACEBAR to continue</em></p></div>"," ","","","","","","","","","","",""
"html-keyboard-response","133","326068","0.0-15.0","63d420b1d5b7dc6a3a4c50aa","bdp_trlrn","Wed Mar 15 2023 23:49:23 GMT-0400 (Eastern Daylight Time)","742062","Untrustworthy,Trustworthy","","45541","","","","","","<div class='header' style='text-align:left; position: absolute; top: 5%; left: 5%;'><small>Task 3 of 5</small></div><div class='instruxDiv'><p><strong>4) If you decided to share 4 out of 5 points with your partner, and they decided to share half of the amount they received with you, how many points would you receive back from them on this round?</strong></p><p>a) 16</p><p>b) 0</p><p>c) 8</p>","C","","","","","","","","","","",""
"html-keyboard-response","134","332597","0.0-16.0","63d420b1d5b7dc6a3a4c50aa","bdp_trlrn","Wed Mar 15 2023 23:49:23 GMT-0400 (Eastern Daylight Time)","742062","Untrustworthy,Trustworthy","","6424","","","","","","<div class='header' style='text-align:left; position: absolute; top: 5%; left: 5%;'><small>Task 3 of 5</small></div><div class='instruxDiv'><p><strong>4) If you decided to share 4 out of 5 points with your partner, and they decided to share half of the amount they received with you, how many points would you receive back from them on this round?</strong></p><p>a) 16</p><p>b) 0</p><p style='color:#00FF00'>c) 8</p><h3 style='color:#00FF00'>Correct!</h3><h3 class='center-content'>The correct response is c).</h3><h3 class='center-content'>If you shared 4 out of 5 points with your partner and they decided to share half of the amount they received with you, you would receive 8 points back (i.e. (4 x 4)/2 = 8).</h3><p><em>Press SPACEBAR to continue</em></p></div>"," ","","","","","","","","","","",""
"html-keyboard-response","135","337739","0.0-17.0","63d420b1d5b7dc6a3a4c50aa","bdp_trlrn","Wed Mar 15 2023 23:49:23 GMT-0400 (Eastern Daylight Time)","742062","Untrustworthy,Trustworthy","","null","","","","","","<div class='header' style='text-align:left; position: absolute; top: 5%; left: 5%;'><small>Task 3 of 5</small></div><div class='instruxDiv'><p>Thank you for completing the quiz<p>These are the actual partners you will be interacting with in the next block:<p><div class='tc' align='center'><img class='introPic' src='trustrating_stim/white_mw063.bmp'><br><strong>Jason</strong></div><div class='bl' align='center'><img class='introPic' src='trustrating_stim/white_mw056.bmp'><br><strong>Jordan</strong></div><div class='br' align='center'><img class='introPic' src='trustrating_stim/white_00129_931230_fb_edt.bmp'><br><strong>Richard</strong></div></div><p>Across <strong>66 rounds</strong> you will interact with each partner <strong>22 times</strong> (in random order).<p style='align:center; color:white'><font <em>Press SPACEBAR to continue</em></p>","null","","","","","","","","","","",""
"instructions","136","343666","0.0-18.0","63d420b1d5b7dc6a3a4c50aa","bdp_trlrn","Wed Mar 15 2023 23:49:23 GMT-0400 (Eastern Daylight Time)","742062","Untrustworthy,Trustworthy","[{""page_index"":0,""viewing_time"":4129},{""page_index"":1,""viewing_time"":1796}]","5926","","","","","","","","","","","","","","","","","",""
"html-keyboard-response","137","349763","0.0-19.0-1.0","63d420b1d5b7dc6a3a4c50aa","bdp_trlrn","Wed Mar 15 2023 23:49:23 GMT-0400 (Eastern Daylight Time)","742062","Untrustworthy,Trustworthy","","5990","","","","decision","","<div class='trialDiv'><img src='trustrating_stim/white_mw056.bmp'><br><font class='baseline'><strong>Jordan</strong><p>Choose number of points to send.</font><div class='respPicDiv'><img src='img/responseButtonOffersNo0L.png' class='respPic'></div></div>","3","1","Jordan","4","Shared","0.65,0.2","11","0.65","trustrating_stim/white_mw056.bmp","3.5","5","1"
"html-keyboard-response","138","350023","0.0-19.0-2.0","63d420b1d5b7dc6a3a4c50aa","bdp_trlrn","Wed Mar 15 2023 23:49:23 GMT-0400 (Eastern Daylight Time)","742062","Untrustworthy,Trustworthy","","null","","","","decisionFB","","<div class='trialDiv'><img src='trustrating_stim/white_mw056.bmp'><br><font class='baseline'><strong>Jordan</strong><p>Choose number of points to send.</font><div class='respPicDiv'><img src='img/responseButtonOffersNo0L3.png' class='respPic'></div></div>","null","1","Jordan","4","Shared","0.65,0.2","11","0.65","trustrating_stim/white_mw056.bmp","3.5","2","1"
"html-keyboard-response","139","351039","0.0-19.0-3.0","63d420b1d5b7dc6a3a4c50aa","bdp_trlrn","Wed Mar 15 2023 23:49:23 GMT-0400 (Eastern Daylight Time)","742062","Untrustworthy,Trustworthy","","null","","","","feedback","","<div class='trialDiv'><img src='trustrating_stim/white_mw056.bmp'><br><font class='baseline'><strong>Jordan</strong><p>Received: <strong>12</strong></font> &nbsp; &nbsp; &nbsp; &nbsp; &nbsp; &nbsp;<font class='posOutcome'>Shared back: <strong>6</strong></font></font><div class='respPicDiv'><img src='img/responseButtonOffersNo0_wht.png' class='respPic'></div></div>","null","1","Jordan","4","Shared","0.65,0.2","11","0.65","trustrating_stim/white_mw056.bmp","3.5","8","1"
"html-keyboard-response","140","354423","0.0-19.0-1.1","63d420b1d5b7dc6a3a4c50aa","bdp_trlrn","Wed Mar 15 2023 23:49:23 GMT-0400 (Eastern Daylight Time)","742062","Untrustworthy,Trustworthy","","3380","","","","decision","","<div class='trialDiv'><img src='trustrating_stim/white_mw063.bmp'><br><font class='baseline'><strong>Jason</strong><p>Choose number of points to send.</font><div class='respPicDiv'><img src='img/responseButtonOffersNo0L.png' class='respPic'></div></div>","3","1","Jason","2","Kept","0.65,0.35","14","0.65","trustrating_stim/white_mw063.bmp","2","13","2"
"html-keyboard-response","141","354688","0.0-19.0-2.1","63d420b1d5b7dc6a3a4c50aa","bdp_trlrn","Wed Mar 15 2023 23:49:23 GMT-0400 (Eastern Daylight Time)","742062","Untrustworthy,Trustworthy","","null","","","","decisionFB","","<div class='trialDiv'><img src='trustrating_stim/white_mw063.bmp'><br><font class='baseline'><strong>Jason</strong><p>Choose number of points to send.</font><div class='respPicDiv'><img src='img/responseButtonOffersNo0L3.png' class='respPic'></div></div>","null","1","Jason","2","Kept","0.65,0.35","14","0.65","trustrating_stim/white_mw063.bmp","2","10","2"
"html-keyboard-response","142","355706","0.0-19.0-3.1","63d420b1d5b7dc6a3a4c50aa","bdp_trlrn","Wed Mar 15 2023 23:49:23 GMT-0400 (Eastern Daylight Time)","742062","Untrustworthy,Trustworthy","","null","","","","feedback","","<div class='trialDiv'><img src='trustrating_stim/white_mw063.bmp'><br><font class='baseline'><strong>Jason</strong><p>Received: <strong>12</strong></font> &nbsp; &nbsp; &nbsp; &nbsp; &nbsp; &nbsp;<font class='negOutcome'>Shared back: <strong>0</strong></font></font><div class='respPicDiv'><img src='img/responseButtonOffersNo0_wht.png' class='respPic'></div></div>","null","1","Jason","2","Kept","0.65,0.35","14","0.65","trustrating_stim/white_mw063.bmp","2","10","2"
"html-keyboard-response","143","360012","0.0-19.0-1.2","63d420b1d5b7dc6a3a4c50aa","bdp_trlrn","Wed Mar 15 2023 23:49:23 GMT-0400 (Eastern Daylight Time)","742062","Untrustworthy,Trustworthy","","4304","","","","decision","","<div class='trialDiv'><img src='trustrating_stim/white_00129_931230_fb_edt.bmp'><br><font class='baseline'><strong>Richard</strong><p>Choose number of points to send.</font><div class='respPicDiv'><img src='img/responseButtonOffersNo0L.png' class='respPic'></div></div>","4","1","Richard","10","Kept","0.35,0.8","9","0.35","trustrating_stim/white_00129_931230_fb_edt.bmp","6","15","3"
"html-keyboard-response","144","360274","0.0-19.0-2.2","63d420b1d5b7dc6a3a4c50aa","bdp_trlrn","Wed Mar 15 2023 23:49:23 GMT-0400 (Eastern Daylight Time)","742062","Untrustworthy,Trustworthy","","null","","","","decisionFB","","<div class='trialDiv'><img src='trustrating_stim/white_00129_931230_fb_edt.bmp'><br><font class='baseline'><strong>Richard</strong><p>Choose number of points to send.</font><div class='respPicDiv'><img src='img/responseButtonOffersNo0L4.png' class='respPic'></div></div>","null","1","Richard","10","Kept","0.35,0.8","9","0.35","trustrating_stim/white_00129_931230_fb_edt.bmp","6","11","3"
"html-keyboard-response","145","361277","0.0-19.0-3.2","63d420b1d5b7dc6a3a4c50aa","bdp_trlrn","Wed Mar 15 2023 23:49:23 GMT-0400 (Eastern Daylight Time)","742062","Untrustworthy,Trustworthy","","null","","","","feedback","","<div class='trialDiv'><img src='trustrating_stim/white_00129_931230_fb_edt.bmp'><br><font class='baseline'><strong>Richard</strong><p>Received: <strong>16</strong></font> &nbsp; &nbsp; &nbsp; &nbsp; &nbsp; &nbsp;<font class='negOutcome'>Shared back: <strong>0</strong></font></font><div class='respPicDiv'><img src='img/responseButtonOffersNo0_wht.png' class='respPic'></div></div>","null","1","Richard","10","Kept","0.35,0.8","9","0.35","trustrating_stim/white_00129_931230_fb_edt.bmp","6","11","3"
"html-keyboard-response","146","363656","0.0-19.0-1.3","63d420b1d5b7dc6a3a4c50aa","bdp_trlrn","Wed Mar 15 2023 23:49:23 GMT-0400 (Eastern Daylight Time)","742062","Untrustworthy,Trustworthy","","2377","","","","decision","","<div class='trialDiv'><img src='trustrating_stim/white_mw063.bmp'><br><font class='baseline'><strong>Jason</strong><p>Choose number of points to send.</font><div class='respPicDiv'><img src='img/responseButtonOffersNo0L.png' class='respPic'></div></div>","1","2","Jason","2","Shared","0.65,0.35","14","0.65","trustrating_stim/white_mw063.bmp","2","16","4"
"html-keyboard-response","147","363908","0.0-19.0-2.3","63d420b1d5b7dc6a3a4c50aa","bdp_trlrn","Wed Mar 15 2023 23:49:23 GMT-0400 (Eastern Daylight Time)","742062","Untrustworthy,Trustworthy","","null","","","","decisionFB","","<div class='trialDiv'><img src='trustrating_stim/white_mw063.bmp'><br><font class='baseline'><strong>Jason</strong><p>Choose number of points to send.</font><div class='respPicDiv'><img src='img/responseButtonOffersNo0L1.png' class='respPic'></div></div>","null","2","Jason","2","Shared","0.65,0.35","14","0.65","trustrating_stim/white_mw063.bmp","2","15","4"
"html-keyboard-response","148","364925","0.0-19.0-3.3","63d420b1d5b7dc6a3a4c50aa","bdp_trlrn","Wed Mar 15 2023 23:49:23 GMT-0400 (Eastern Daylight Time)","742062","Untrustworthy,Trustworthy","","null","","","","feedback","","<div class='trialDiv'><img src='trustrating_stim/white_mw063.bmp'><br><font class='baseline'><strong>Jason</strong><p>Received: <strong>4</strong></font> &nbsp; &nbsp; &nbsp; &nbsp; &nbsp; &nbsp;<font class='posOutcome'>Shared back: <strong>2</strong></font></font><div class='respPicDiv'><img src='img/responseButtonOffersNo0_wht.png' class='respPic'></div></div>","null","2","Jason","2","Shared","0.65,0.35","14","0.65","trustrating_stim/white_mw063.bmp","2","17","4"
"html-keyboard-response","149","366375","0.0-19.0-1.4","63d420b1d5b7dc6a3a4c50aa","bdp_trlrn","Wed Mar 15 2023 23:49:23 GMT-0400 (Eastern Daylight Time)","742062","Untrustworthy,Trustworthy","","1448","","","","decision","","<div class='trialDiv'><img src='trustrating_stim/white_00129_931230_fb_edt.bmp'><br><font class='baseline'><strong>Richard</strong><p>Choose number of points to send.</font><div class='respPicDiv'><img src='img/responseButtonOffersNo0L.png' class='respPic'></div></div>","1","2","Richard","10","Kept","0.35,0.8","9","0.35","trustrating_stim/white_00129_931230_fb_edt.bmp","6","22","5"
"html-keyboard-response","150","366630","0.0-19.0-2.4","63d420b1d5b7dc6a3a4c50aa","bdp_trlrn","Wed Mar 15 2023 23:49:23 GMT-0400 (Eastern Daylight Time)","742062","Untrustworthy,Trustworthy","","null","","","","decisionFB","","<div class='trialDiv'><img src='trustrating_stim/white_00129_931230_fb_edt.bmp'><br><font class='baseline'><strong>Richard</strong><p>Choose number of points to send.</font><div class='respPicDiv'><img src='img/responseButtonOffersNo0L1.png' class='respPic'></div></div>","null","2","Richard","10","Kept","0.35,0.8","9","0.35","trustrating_stim/white_00129_931230_fb_edt.bmp","6","21","5"
"html-keyboard-response","151","367648","0.0-19.0-3.4","63d420b1d5b7dc6a3a4c50aa","bdp_trlrn","Wed Mar 15 2023 23:49:23 GMT-0400 (Eastern Daylight Time)","742062","Untrustworthy,Trustworthy","","null","","","","feedback","","<div class='trialDiv'><img src='trustrating_stim/white_00129_931230_fb_edt.bmp'><br><font class='baseline'><strong>Richard</strong><p>Received: <strong>4</strong></font> &nbsp; &nbsp; &nbsp; &nbsp; &nbsp; &nbsp;<font class='negOutcome'>Shared back: <strong>0</strong></font></font><div class='respPicDiv'><img src='img/responseButtonOffersNo0_wht.png' class='respPic'></div></div>","null","2","Richard","10","Kept","0.35,0.8","9","0.35","trustrating_stim/white_00129_931230_fb_edt.bmp","6","21","5"
"html-keyboard-response","152","369600","0.0-19.0-1.5","63d420b1d5b7dc6a3a4c50aa","bdp_trlrn","Wed Mar 15 2023 23:49:23 GMT-0400 (Eastern Daylight Time)","742062","Untrustworthy,Trustworthy","","1950","","","","decision","","<div class='trialDiv'><img src='trustrating_stim/white_mw056.bmp'><br><font class='baseline'><strong>Jordan</strong><p>Choose number of points to send.</font><div class='respPicDiv'><img src='img/responseButtonOffersNo0L.png' class='respPic'></div></div>","3","2","Jordan","4","Kept","0.65,0.2","11","0.65","trustrating_stim/white_mw056.bmp","3.5","26","6"
"html-keyboard-response","153","369854","0.0-19.0-2.5","63d420b1d5b7dc6a3a4c50aa","bdp_trlrn","Wed Mar 15 2023 23:49:23 GMT-0400 (Eastern Daylight Time)","742062","Untrustworthy,Trustworthy","","null","","","","decisionFB","","<div class='trialDiv'><img src='trustrating_stim/white_mw056.bmp'><br><font class='baseline'><strong>Jordan</strong><p>Choose number of points to send.</font><div class='respPicDiv'><img src='img/responseButtonOffersNo0L3.png' class='respPic'></div></div>","null","2","Jordan","4","Kept","0.65,0.2","11","0.65","trustrating_stim/white_mw056.bmp","3.5","23","6"
"html-keyboard-response","154","370871","0.0-19.0-3.5","63d420b1d5b7dc6a3a4c50aa","bdp_trlrn","Wed Mar 15 2023 23:49:23 GMT-0400 (Eastern Daylight Time)","742062","Untrustworthy,Trustworthy","","null","","","","feedback","","<div class='trialDiv'><img src='trustrating_stim/white_mw056.bmp'><br><font class='baseline'><strong>Jordan</strong><p>Received: <strong>12</strong></font> &nbsp; &nbsp; &nbsp; &nbsp; &nbsp; &nbsp;<font class='negOutcome'>Shared back: <strong>0</strong></font></font><div class='respPicDiv'><img src='img/responseButtonOffersNo0_wht.png' class='respPic'></div></div>","null","2","Jordan","4","Kept","0.65,0.2","11","0.65","trustrating_stim/white_mw056.bmp","3.5","23","6"
"html-keyboard-response","155","372921","0.0-19.0-1.6","63d420b1d5b7dc6a3a4c50aa","bdp_trlrn","Wed Mar 15 2023 23:49:23 GMT-0400 (Eastern Daylight Time)","742062","Untrustworthy,Trustworthy","","2049","","","","decision","","<div class='trialDiv'><img src='trustrating_stim/white_00129_931230_fb_edt.bmp'><br><font class='baseline'><strong>Richard</strong><p>Choose number of points to send.</font><div class='respPicDiv'><img src='img/responseButtonOffersNo0L.png' class='respPic'></div></div>","1","3","Richard","10","Kept","0.35,0.8","9","0.35","trustrating_stim/white_00129_931230_fb_edt.bmp","6","28","7"
"html-keyboard-response","156","373178","0.0-19.0-2.6","63d420b1d5b7dc6a3a4c50aa","bdp_trlrn","Wed Mar 15 2023 23:49:23 GMT-0400 (Eastern Daylight Time)","742062","Untrustworthy,Trustworthy","","null","","","","decisionFB","","<div class='trialDiv'><img src='trustrating_stim/white_00129_931230_fb_edt.bmp'><br><font class='baseline'><strong>Richard</strong><p>Choose number of points to send.</font><div class='respPicDiv'><img src='img/responseButtonOffersNo0L1.png' class='respPic'></div></div>","null","3","Richard","10","Kept","0.35,0.8","9","0.35","trustrating_stim/white_00129_931230_fb_edt.bmp","6","27","7"
"html-keyboard-response","157","374195","0.0-19.0-3.6","63d420b1d5b7dc6a3a4c50aa","bdp_trlrn","Wed Mar 15 2023 23:49:23 GMT-0400 (Eastern Daylight Time)","742062","Untrustworthy,Trustworthy","","null","","","","feedback","","<div class='trialDiv'><img src='trustrating_stim/white_00129_931230_fb_edt.bmp'><br><font class='baseline'><strong>Richard</strong><p>Received: <strong>4</strong></font> &nbsp; &nbsp; &nbsp; &nbsp; &nbsp; &nbsp;<font class='negOutcome'>Shared back: <strong>0</strong></font></font><div class='respPicDiv'><img src='img/responseButtonOffersNo0_wht.png' class='respPic'></div></div>","null","3","Richard","10","Kept","0.35,0.8","9","0.35","trustrating_stim/white_00129_931230_fb_edt.bmp","6","27","7"
"html-keyboard-response","158","375312","0.0-19.0-1.7","63d420b1d5b7dc6a3a4c50aa","bdp_trlrn","Wed Mar 15 2023 23:49:23 GMT-0400 (Eastern Daylight Time)","742062","Untrustworthy,Trustworthy","","1115","","","","decision","","<div class='trialDiv'><img src='trustrating_stim/white_mw063.bmp'><br><font class='baseline'><strong>Jason</strong><p>Choose number of points to send.</font><div class='respPicDiv'><img src='img/responseButtonOffersNo0L.png' class='respPic'></div></div>","1","3","Jason","2","Kept","0.65,0.35","14","0.65","trustrating_stim/white_mw063.bmp","2","32","8"
"html-keyboard-response","159","375572","0.0-19.0-2.7","63d420b1d5b7dc6a3a4c50aa","bdp_trlrn","Wed Mar 15 2023 23:49:23 GMT-0400 (Eastern Daylight Time)","742062","Untrustworthy,Trustworthy","","null","","","","decisionFB","","<div class='trialDiv'><img src='trustrating_stim/white_mw063.bmp'><br><font class='baseline'><strong>Jason</strong><p>Choose number of points to send.</font><div class='respPicDiv'><img src='img/responseButtonOffersNo0L1.png' class='respPic'></div></div>","null","3","Jason","2","Kept","0.65,0.35","14","0.65","trustrating_stim/white_mw063.bmp","2","31","8"
"html-keyboard-response","160","376579","0.0-19.0-3.7","63d420b1d5b7dc6a3a4c50aa","bdp_trlrn","Wed Mar 15 2023 23:49:23 GMT-0400 (Eastern Daylight Time)","742062","Untrustworthy,Trustworthy","","null","","","","feedback","","<div class='trialDiv'><img src='trustrating_stim/white_mw063.bmp'><br><font class='baseline'><strong>Jason</strong><p>Received: <strong>4</strong></font> &nbsp; &nbsp; &nbsp; &nbsp; &nbsp; &nbsp;<font class='negOutcome'>Shared back: <strong>0</strong></font></font><div class='respPicDiv'><img src='img/responseButtonOffersNo0_wht.png' class='respPic'></div></div>","null","3","Jason","2","Kept","0.65,0.35","14","0.65","trustrating_stim/white_mw063.bmp","2","31","8"
"html-keyboard-response","161","377766","0.0-19.0-1.8","63d420b1d5b7dc6a3a4c50aa","bdp_trlrn","Wed Mar 15 2023 23:49:23 GMT-0400 (Eastern Daylight Time)","742062","Untrustworthy,Trustworthy","","1185","","","","decision","","<div class='trialDiv'><img src='trustrating_stim/white_mw056.bmp'><br><font class='baseline'><strong>Jordan</strong><p>Choose number of points to send.</font><div class='respPicDiv'><img src='img/responseButtonOffersNo0L.png' class='respPic'></div></div>","1","3","Jordan","4","Shared","0.65,0.2","11","0.65","trustrating_stim/white_mw056.bmp","3.5","36","9"
"html-keyboard-response","162","378018","0.0-19.0-2.8","63d420b1d5b7dc6a3a4c50aa","bdp_trlrn","Wed Mar 15 2023 23:49:23 GMT-0400 (Eastern Daylight Time)","742062","Untrustworthy,Trustworthy","","null","","","","decisionFB","","<div class='trialDiv'><img src='trustrating_stim/white_mw056.bmp'><br><font class='baseline'><strong>Jordan</strong><p>Choose number of points to send.</font><div class='respPicDiv'><img src='img/responseButtonOffersNo0L1.png' class='respPic'></div></div>","null","3","Jordan","4","Shared","0.65,0.2","11","0.65","trustrating_stim/white_mw056.bmp","3.5","35","9"
"html-keyboard-response","163","379020","0.0-19.0-3.8","63d420b1d5b7dc6a3a4c50aa","bdp_trlrn","Wed Mar 15 2023 23:49:23 GMT-0400 (Eastern Daylight Time)","742062","Untrustworthy,Trustworthy","","null","","","","feedback","","<div class='trialDiv'><img src='trustrating_stim/white_mw056.bmp'><br><font class='baseline'><strong>Jordan</strong><p>Received: <strong>4</strong></font> &nbsp; &nbsp; &nbsp; &nbsp; &nbsp; &nbsp;<font class='posOutcome'>Shared back: <strong>2</strong></font></font><div class='respPicDiv'><img src='img/responseButtonOffersNo0_wht.png' class='respPic'></div></div>","null","3","Jordan","4","Shared","0.65,0.2","11","0.65","trustrating_stim/white_mw056.bmp","3.5","37","9"
"html-keyboard-response","164","381527","0.0-19.0-1.9","63d420b1d5b7dc6a3a4c50aa","bdp_trlrn","Wed Mar 15 2023 23:49:23 GMT-0400 (Eastern Daylight Time)","742062","Untrustworthy,Trustworthy","","2504","","","","decision","","<div class='trialDiv'><img src='trustrating_stim/white_mw063.bmp'><br><font class='baseline'><strong>Jason</strong><p>Choose number of points to send.</font><div class='respPicDiv'><img src='img/responseButtonOffersNo0L.png' class='respPic'></div></div>","2","4","Jason","2","Kept","0.65,0.35","14","0.65","trustrating_stim/white_mw063.bmp","2","42","10"
"html-keyboard-response","165","381789","0.0-19.0-2.9","63d420b1d5b7dc6a3a4c50aa","bdp_trlrn","Wed Mar 15 2023 23:49:23 GMT-0400 (Eastern Daylight Time)","742062","Untrustworthy,Trustworthy","","null","","","","decisionFB","","<div class='trialDiv'><img src='trustrating_stim/white_mw063.bmp'><br><font class='baseline'><strong>Jason</strong><p>Choose number of points to send.</font><div class='respPicDiv'><img src='img/responseButtonOffersNo0L2.png' class='respPic'></div></div>","null","4","Jason","2","Kept","0.65,0.35","14","0.65","trustrating_stim/white_mw063.bmp","2","40","10"
"html-keyboard-response","166","382792","0.0-19.0-3.9","63d420b1d5b7dc6a3a4c50aa","bdp_trlrn","Wed Mar 15 2023 23:49:23 GMT-0400 (Eastern Daylight Time)","742062","Untrustworthy,Trustworthy","","null","","","","feedback","","<div class='trialDiv'><img src='trustrating_stim/white_mw063.bmp'><br><font class='baseline'><strong>Jason</strong><p>Received: <strong>8</strong></font> &nbsp; &nbsp; &nbsp; &nbsp; &nbsp; &nbsp;<font class='negOutcome'>Shared back: <strong>0</strong></font></font><div class='respPicDiv'><img src='img/responseButtonOffersNo0_wht.png' class='respPic'></div></div>","null","4","Jason","2","Kept","0.65,0.35","14","0.65","trustrating_stim/white_mw063.bmp","2","40","10"
"html-keyboard-response","167","384467","0.0-19.0-1.10","63d420b1d5b7dc6a3a4c50aa","bdp_trlrn","Wed Mar 15 2023 23:49:23 GMT-0400 (Eastern Daylight Time)","742062","Untrustworthy,Trustworthy","","1674","","","","decision","","<div class='trialDiv'><img src='trustrating_stim/white_mw056.bmp'><br><font class='baseline'><strong>Jordan</strong><p>Choose number of points to send.</font><div class='respPicDiv'><img src='img/responseButtonOffersNo0L.png' class='respPic'></div></div>","2","4","Jordan","4","Shared","0.65,0.2","11","0.65","trustrating_stim/white_mw056.bmp","3.5","45","11"
"html-keyboard-response","168","384733","0.0-19.0-2.10","63d420b1d5b7dc6a3a4c50aa","bdp_trlrn","Wed Mar 15 2023 23:49:23 GMT-0400 (Eastern Daylight Time)","742062","Untrustworthy,Trustworthy","","null","","","","decisionFB","","<div class='trialDiv'><img src='trustrating_stim/white_mw056.bmp'><br><font class='baseline'><strong>Jordan</strong><p>Choose number of points to send.</font><div class='respPicDiv'><img src='img/responseButtonOffersNo0L2.png' class='respPic'></div></div>","null","4","Jordan","4","Shared","0.65,0.2","11","0.65","trustrating_stim/white_mw056.bmp","3.5","43","11"
"html-keyboard-response","169","385750","0.0-19.0-3.10","63d420b1d5b7dc6a3a4c50aa","bdp_trlrn","Wed Mar 15 2023 23:49:23 GMT-0400 (Eastern Daylight Time)","742062","Untrustworthy,Trustworthy","","null","","","","feedback","","<div class='trialDiv'><img src='trustrating_stim/white_mw056.bmp'><br><font class='baseline'><strong>Jordan</strong><p>Received: <strong>8</strong></font> &nbsp; &nbsp; &nbsp; &nbsp; &nbsp; &nbsp;<font class='posOutcome'>Shared back: <strong>4</strong></font></font><div class='respPicDiv'><img src='img/responseButtonOffersNo0_wht.png' class='respPic'></div></div>","null","4","Jordan","4","Shared","0.65,0.2","11","0.65","trustrating_stim/white_mw056.bmp","3.5","47","11"
"html-keyboard-response","170","387004","0.0-19.0-1.11","63d420b1d5b7dc6a3a4c50aa","bdp_trlrn","Wed Mar 15 2023 23:49:23 GMT-0400 (Eastern Daylight Time)","742062","Untrustworthy,Trustworthy","","1252","","","","decision","","<div class='trialDiv'><img src='trustrating_stim/white_00129_931230_fb_edt.bmp'><br><font class='baseline'><strong>Richard</strong><p>Choose number of points to send.</font><div class='respPicDiv'><img src='img/responseButtonOffersNo0L.png' class='respPic'></div></div>","1","4","Richard","10","Kept","0.35,0.8","9","0.35","trustrating_stim/white_00129_931230_fb_edt.bmp","6","52","12"
"html-keyboard-response","171","387266","0.0-19.0-2.11","63d420b1d5b7dc6a3a4c50aa","bdp_trlrn","Wed Mar 15 2023 23:49:23 GMT-0400 (Eastern Daylight Time)","742062","Untrustworthy,Trustworthy","","null","","","","decisionFB","","<div class='trialDiv'><img src='trustrating_stim/white_00129_931230_fb_edt.bmp'><br><font class='baseline'><strong>Richard</strong><p>Choose number of points to send.</font><div class='respPicDiv'><img src='img/responseButtonOffersNo0L1.png' class='respPic'></div></div>","null","4","Richard","10","Kept","0.35,0.8","9","0.35","trustrating_stim/white_00129_931230_fb_edt.bmp","6","51","12"
"html-keyboard-response","172","388284","0.0-19.0-3.11","63d420b1d5b7dc6a3a4c50aa","bdp_trlrn","Wed Mar 15 2023 23:49:23 GMT-0400 (Eastern Daylight Time)","742062","Untrustworthy,Trustworthy","","null","","","","feedback","","<div class='trialDiv'><img src='trustrating_stim/white_00129_931230_fb_edt.bmp'><br><font class='baseline'><strong>Richard</strong><p>Received: <strong>4</strong></font> &nbsp; &nbsp; &nbsp; &nbsp; &nbsp; &nbsp;<font class='negOutcome'>Shared back: <strong>0</strong></font></font><div class='respPicDiv'><img src='img/responseButtonOffersNo0_wht.png' class='respPic'></div></div>","null","4","Richard","10","Kept","0.35,0.8","9","0.35","trustrating_stim/white_00129_931230_fb_edt.bmp","6","51","12"
"html-keyboard-response","173","392038","0.0-19.0-1.12","63d420b1d5b7dc6a3a4c50aa","bdp_trlrn","Wed Mar 15 2023 23:49:23 GMT-0400 (Eastern Daylight Time)","742062","Untrustworthy,Trustworthy","","3752","","","","decision","","<div class='trialDiv'><img src='trustrating_stim/white_mw056.bmp'><br><font class='baseline'><strong>Jordan</strong><p>Choose number of points to send.</font><div class='respPicDiv'><img src='img/responseButtonOffersNo0L.png' class='respPic'></div></div>","2","5","Jordan","4","Shared","0.65,0.2","11","0.65","trustrating_stim/white_mw056.bmp","3.5","56","13"
"html-keyboard-response","174","392305","0.0-19.0-2.12","63d420b1d5b7dc6a3a4c50aa","bdp_trlrn","Wed Mar 15 2023 23:49:23 GMT-0400 (Eastern Daylight Time)","742062","Untrustworthy,Trustworthy","","null","","","","decisionFB","","<div class='trialDiv'><img src='trustrating_stim/white_mw056.bmp'><br><font class='baseline'><strong>Jordan</strong><p>Choose number of points to send.</font><div class='respPicDiv'><img src='img/responseButtonOffersNo0L2.png' class='respPic'></div></div>","null","5","Jordan","4","Shared","0.65,0.2","11","0.65","trustrating_stim/white_mw056.bmp","3.5","54","13"
"html-keyboard-response","175","393308","0.0-19.0-3.12","63d420b1d5b7dc6a3a4c50aa","bdp_trlrn","Wed Mar 15 2023 23:49:23 GMT-0400 (Eastern Daylight Time)","742062","Untrustworthy,Trustworthy","","null","","","","feedback","","<div class='trialDiv'><img src='trustrating_stim/white_mw056.bmp'><br><font class='baseline'><strong>Jordan</strong><p>Received: <strong>8</strong></font> &nbsp; &nbsp; &nbsp; &nbsp; &nbsp; &nbsp;<font class='posOutcome'>Shared back: <strong>4</strong></font></font><div class='respPicDiv'><img src='img/responseButtonOffersNo0_wht.png' class='respPic'></div></div>","null","5","Jordan","4","Shared","0.65,0.2","11","0.65","trustrating_stim/white_mw056.bmp","3.5","58","13"
"html-keyboard-response","176","395277","0.0-19.0-1.13","63d420b1d5b7dc6a3a4c50aa","bdp_trlrn","Wed Mar 15 2023 23:49:23 GMT-0400 (Eastern Daylight Time)","742062","Untrustworthy,Trustworthy","","1967","","","","decision","","<div class='trialDiv'><img src='trustrating_stim/white_00129_931230_fb_edt.bmp'><br><font class='baseline'><strong>Richard</strong><p>Choose number of points to send.</font><div class='respPicDiv'><img src='img/responseButtonOffersNo0L.png' class='respPic'></div></div>","3","5","Richard","10","Shared","0.35,0.8","9","0.35","trustrating_stim/white_00129_931230_fb_edt.bmp","6","63","14"
"html-keyboard-response","177","395533","0.0-19.0-2.13","63d420b1d5b7dc6a3a4c50aa","bdp_trlrn","Wed Mar 15 2023 23:49:23 GMT-0400 (Eastern Daylight Time)","742062","Untrustworthy,Trustworthy","","null","","","","decisionFB","","<div class='trialDiv'><img src='trustrating_stim/white_00129_931230_fb_edt.bmp'><br><font class='baseline'><strong>Richard</strong><p>Choose number of points to send.</font><div class='respPicDiv'><img src='img/responseButtonOffersNo0L3.png' class='respPic'></div></div>","null","5","Richard","10","Shared","0.35,0.8","9","0.35","trustrating_stim/white_00129_931230_fb_edt.bmp","6","60","14"
"html-keyboard-response","178","396551","0.0-19.0-3.13","63d420b1d5b7dc6a3a4c50aa","bdp_trlrn","Wed Mar 15 2023 23:49:23 GMT-0400 (Eastern Daylight Time)","742062","Untrustworthy,Trustworthy","","null","","","","feedback","","<div class='trialDiv'><img src='trustrating_stim/white_00129_931230_fb_edt.bmp'><br><font class='baseline'><strong>Richard</strong><p>Received: <strong>12</strong></font> &nbsp; &nbsp; &nbsp; &nbsp; &nbsp; &nbsp;<font class='posOutcome'>Shared back: <strong>6</strong></font></font><div class='respPicDiv'><img src='img/responseButtonOffersNo0_wht.png' class='respPic'></div></div>","null","5","Richard","10","Shared","0.35,0.8","9","0.35","trustrating_stim/white_00129_931230_fb_edt.bmp","6","66","14"
"html-keyboard-response","179","397702","0.0-19.0-1.14","63d420b1d5b7dc6a3a4c50aa","bdp_trlrn","Wed Mar 15 2023 23:49:23 GMT-0400 (Eastern Daylight Time)","742062","Untrustworthy,Trustworthy","","1148","","","","decision","","<div class='trialDiv'><img src='trustrating_stim/white_mw063.bmp'><br><font class='baseline'><strong>Jason</strong><p>Choose number of points to send.</font><div class='respPicDiv'><img src='img/responseButtonOffersNo0L.png' class='respPic'></div></div>","4","5","Jason","2","Shared","0.65,0.35","14","0.65","trustrating_stim/white_mw063.bmp","2","71","15"
"html-keyboard-response","180","397957","0.0-19.0-2.14","63d420b1d5b7dc6a3a4c50aa","bdp_trlrn","Wed Mar 15 2023 23:49:23 GMT-0400 (Eastern Daylight Time)","742062","Untrustworthy,Trustworthy","","null","","","","decisionFB","","<div class='trialDiv'><img src='trustrating_stim/white_mw063.bmp'><br><font class='baseline'><strong>Jason</strong><p>Choose number of points to send.</font><div class='respPicDiv'><img src='img/responseButtonOffersNo0L4.png' class='respPic'></div></div>","null","5","Jason","2","Shared","0.65,0.35","14","0.65","trustrating_stim/white_mw063.bmp","2","67","15"
"html-keyboard-response","181","398964","0.0-19.0-3.14","63d420b1d5b7dc6a3a4c50aa","bdp_trlrn","Wed Mar 15 2023 23:49:23 GMT-0400 (Eastern Daylight Time)","742062","Untrustworthy,Trustworthy","","null","","","","feedback","","<div class='trialDiv'><img src='trustrating_stim/white_mw063.bmp'><br><font class='baseline'><strong>Jason</strong><p>Received: <strong>16</strong></font> &nbsp; &nbsp; &nbsp; &nbsp; &nbsp; &nbsp;<font class='posOutcome'>Shared back: <strong>8</strong></font></font><div class='respPicDiv'><img src='img/responseButtonOffersNo0_wht.png' class='respPic'></div></div>","null","5","Jason","2","Shared","0.65,0.35","14","0.65","trustrating_stim/white_mw063.bmp","2","75","15"
"html-keyboard-response","182","401408","0.0-19.0-1.15","63d420b1d5b7dc6a3a4c50aa","bdp_trlrn","Wed Mar 15 2023 23:49:23 GMT-0400 (Eastern Daylight Time)","742062","Untrustworthy,Trustworthy","","2442","","","","decision","","<div class='trialDiv'><img src='trustrating_stim/white_mw056.bmp'><br><font class='baseline'><strong>Jordan</strong><p>Choose number of points to send.</font><div class='respPicDiv'><img src='img/responseButtonOffersNo0L.png' class='respPic'></div></div>","4","6","Jordan","4","Shared","0.65,0.2","11","0.65","trustrating_stim/white_mw056.bmp","3.5","80","16"
"html-keyboard-response","183","401665","0.0-19.0-2.15","63d420b1d5b7dc6a3a4c50aa","bdp_trlrn","Wed Mar 15 2023 23:49:23 GMT-0400 (Eastern Daylight Time)","742062","Untrustworthy,Trustworthy","","null","","","","decisionFB","","<div class='trialDiv'><img src='trustrating_stim/white_mw056.bmp'><br><font class='baseline'><strong>Jordan</strong><p>Choose number of points to send.</font><div class='respPicDiv'><img src='img/responseButtonOffersNo0L4.png' class='respPic'></div></div>","null","6","Jordan","4","Shared","0.65,0.2","11","0.65","trustrating_stim/white_mw056.bmp","3.5","76","16"
"html-keyboard-response","184","402681","0.0-19.0-3.15","63d420b1d5b7dc6a3a4c50aa","bdp_trlrn","Wed Mar 15 2023 23:49:23 GMT-0400 (Eastern Daylight Time)","742062","Untrustworthy,Trustworthy","","null","","","","feedback","","<div class='trialDiv'><img src='trustrating_stim/white_mw056.bmp'><br><font class='baseline'><strong>Jordan</strong><p>Received: <strong>16</strong></font> &nbsp; &nbsp; &nbsp; &nbsp; &nbsp; &nbsp;<font class='posOutcome'>Shared back: <strong>8</strong></font></font><div class='respPicDiv'><img src='img/responseButtonOffersNo0_wht.png' class='respPic'></div></div>","null","6","Jordan","4","Shared","0.65,0.2","11","0.65","trustrating_stim/white_mw056.bmp","3.5","84","16"
"html-keyboard-response","185","404885","0.0-19.0-1.16","63d420b1d5b7dc6a3a4c50aa","bdp_trlrn","Wed Mar 15 2023 23:49:23 GMT-0400 (Eastern Daylight Time)","742062","Untrustworthy,Trustworthy","","2202","","","","decision","","<div class='trialDiv'><img src='trustrating_stim/white_mw063.bmp'><br><font class='baseline'><strong>Jason</strong><p>Choose number of points to send.</font><div class='respPicDiv'><img src='img/responseButtonOffersNo0L.png' class='respPic'></div></div>","5","6","Jason","2","Shared","0.65,0.35","14","0.65","trustrating_stim/white_mw063.bmp","2","89","17"
"html-keyboard-response","186","405152","0.0-19.0-2.16","63d420b1d5b7dc6a3a4c50aa","bdp_trlrn","Wed Mar 15 2023 23:49:23 GMT-0400 (Eastern Daylight Time)","742062","Untrustworthy,Trustworthy","","null","","","","decisionFB","","<div class='trialDiv'><img src='trustrating_stim/white_mw063.bmp'><br><font class='baseline'><strong>Jason</strong><p>Choose number of points to send.</font><div class='respPicDiv'><img src='img/responseButtonOffersNo0L5.png' class='respPic'></div></div>","null","6","Jason","2","Shared","0.65,0.35","14","0.65","trustrating_stim/white_mw063.bmp","2","84","17"
"html-keyboard-response","187","406169","0.0-19.0-3.16","63d420b1d5b7dc6a3a4c50aa","bdp_trlrn","Wed Mar 15 2023 23:49:23 GMT-0400 (Eastern Daylight Time)","742062","Untrustworthy,Trustworthy","","null","","","","feedback","","<div class='trialDiv'><img src='trustrating_stim/white_mw063.bmp'><br><font class='baseline'><strong>Jason</strong><p>Received: <strong>20</strong></font> &nbsp; &nbsp; &nbsp; &nbsp; &nbsp; &nbsp;<font class='posOutcome'>Shared back: <strong>10</strong></font></font><div class='respPicDiv'><img src='img/responseButtonOffersNo0_wht.png' class='respPic'></div></div>","null","6","Jason","2","Shared","0.65,0.35","14","0.65","trustrating_stim/white_mw063.bmp","2","94","17"
"html-keyboard-response","188","407542","0.0-19.0-1.17","63d420b1d5b7dc6a3a4c50aa","bdp_trlrn","Wed Mar 15 2023 23:49:23 GMT-0400 (Eastern Daylight Time)","742062","Untrustworthy,Trustworthy","","1371","","","","decision","","<div class='trialDiv'><img src='trustrating_stim/white_00129_931230_fb_edt.bmp'><br><font class='baseline'><strong>Richard</strong><p>Choose number of points to send.</font><div class='respPicDiv'><img src='img/responseButtonOffersNo0L.png' class='respPic'></div></div>","5","6","Richard","10","Kept","0.35,0.8","9","0.35","trustrating_stim/white_00129_931230_fb_edt.bmp","6","99","18"
"html-keyboard-response","189","407797","0.0-19.0-2.17","63d420b1d5b7dc6a3a4c50aa","bdp_trlrn","Wed Mar 15 2023 23:49:23 GMT-0400 (Eastern Daylight Time)","742062","Untrustworthy,Trustworthy","","null","","","","decisionFB","","<div class='trialDiv'><img src='trustrating_stim/white_00129_931230_fb_edt.bmp'><br><font class='baseline'><strong>Richard</strong><p>Choose number of points to send.</font><div class='respPicDiv'><img src='img/responseButtonOffersNo0L5.png' class='respPic'></div></div>","null","6","Richard","10","Kept","0.35,0.8","9","0.35","trustrating_stim/white_00129_931230_fb_edt.bmp","6","94","18"
"html-keyboard-response","190","408814","0.0-19.0-3.17","63d420b1d5b7dc6a3a4c50aa","bdp_trlrn","Wed Mar 15 2023 23:49:23 GMT-0400 (Eastern Daylight Time)","742062","Untrustworthy,Trustworthy","","null","","","","feedback","","<div class='trialDiv'><img src='trustrating_stim/white_00129_931230_fb_edt.bmp'><br><font class='baseline'><strong>Richard</strong><p>Received: <strong>20</strong></font> &nbsp; &nbsp; &nbsp; &nbsp; &nbsp; &nbsp;<font class='negOutcome'>Shared back: <strong>0</strong></font></font><div class='respPicDiv'><img src='img/responseButtonOffersNo0_wht.png' class='respPic'></div></div>","null","6","Richard","10","Kept","0.35,0.8","9","0.35","trustrating_stim/white_00129_931230_fb_edt.bmp","6","94","18"
"html-keyboard-response","191","409395","0.0-19.0-1.18","63d420b1d5b7dc6a3a4c50aa","bdp_trlrn","Wed Mar 15 2023 23:49:23 GMT-0400 (Eastern Daylight Time)","742062","Untrustworthy,Trustworthy","","579","","","","decision","","<div class='trialDiv'><img src='trustrating_stim/white_mw056.bmp'><br><font class='baseline'><strong>Jordan</strong><p>Choose number of points to send.</font><div class='respPicDiv'><img src='img/responseButtonOffersNo0L.png' class='respPic'></div></div>","3","7","Jordan","4","Kept","0.65,0.2","11","0.65","trustrating_stim/white_mw056.bmp","3.5","99","19"
"html-keyboard-response","192","409659","0.0-19.0-2.18","63d420b1d5b7dc6a3a4c50aa","bdp_trlrn","Wed Mar 15 2023 23:49:23 GMT-0400 (Eastern Daylight Time)","742062","Untrustworthy,Trustworthy","","null","","","","decisionFB","","<div class='trialDiv'><img src='trustrating_stim/white_mw056.bmp'><br><font class='baseline'><strong>Jordan</strong><p>Choose number of points to send.</font><div class='respPicDiv'><img src='img/responseButtonOffersNo0L3.png' class='respPic'></div></div>","null","7","Jordan","4","Kept","0.65,0.2","11","0.65","trustrating_stim/white_mw056.bmp","3.5","96","19"
"html-keyboard-response","193","410691","0.0-19.0-3.18","63d420b1d5b7dc6a3a4c50aa","bdp_trlrn","Wed Mar 15 2023 23:49:23 GMT-0400 (Eastern Daylight Time)","742062","Untrustworthy,Trustworthy","","null","","","","feedback","","<div class='trialDiv'><img src='trustrating_stim/white_mw056.bmp'><br><font class='baseline'><strong>Jordan</strong><p>Received: <strong>12</strong></font> &nbsp; &nbsp; &nbsp; &nbsp; &nbsp; &nbsp;<font class='negOutcome'>Shared back: <strong>0</strong></font></font><div class='respPicDiv'><img src='img/responseButtonOffersNo0_wht.png' class='respPic'></div></div>","null","7","Jordan","4","Kept","0.65,0.2","11","0.65","trustrating_stim/white_mw056.bmp","3.5","96","19"
"html-keyboard-response","194","411706","0.0-19.0-1.19","63d420b1d5b7dc6a3a4c50aa","bdp_trlrn","Wed Mar 15 2023 23:49:23 GMT-0400 (Eastern Daylight Time)","742062","Untrustworthy,Trustworthy","","1013","","","","decision","","<div class='trialDiv'><img src='trustrating_stim/white_00129_931230_fb_edt.bmp'><br><font class='baseline'><strong>Richard</strong><p>Choose number of points to send.</font><div class='respPicDiv'><img src='img/responseButtonOffersNo0L.png' class='respPic'></div></div>","4","7","Richard","10","Shared","0.35,0.8","9","0.35","trustrating_stim/white_00129_931230_fb_edt.bmp","6","101","20"
"html-keyboard-response","195","411960","0.0-19.0-2.19","63d420b1d5b7dc6a3a4c50aa","bdp_trlrn","Wed Mar 15 2023 23:49:23 GMT-0400 (Eastern Daylight Time)","742062","Untrustworthy,Trustworthy","","null","","","","decisionFB","","<div class='trialDiv'><img src='trustrating_stim/white_00129_931230_fb_edt.bmp'><br><font class='baseline'><strong>Richard</strong><p>Choose number of points to send.</font><div class='respPicDiv'><img src='img/responseButtonOffersNo0L4.png' class='respPic'></div></div>","null","7","Richard","10","Shared","0.35,0.8","9","0.35","trustrating_stim/white_00129_931230_fb_edt.bmp","6","97","20"
"html-keyboard-response","196","412966","0.0-19.0-3.19","63d420b1d5b7dc6a3a4c50aa","bdp_trlrn","Wed Mar 15 2023 23:49:23 GMT-0400 (Eastern Daylight Time)","742062","Untrustworthy,Trustworthy","","null","","","","feedback","","<div class='trialDiv'><img src='trustrating_stim/white_00129_931230_fb_edt.bmp'><br><font class='baseline'><strong>Richard</strong><p>Received: <strong>16</strong></font> &nbsp; &nbsp; &nbsp; &nbsp; &nbsp; &nbsp;<font class='posOutcome'>Shared back: <strong>8</strong></font></font><div class='respPicDiv'><img src='img/responseButtonOffersNo0_wht.png' class='respPic'></div></div>","null","7","Richard","10","Shared","0.35,0.8","9","0.35","trustrating_stim/white_00129_931230_fb_edt.bmp","6","105","20"
"html-keyboard-response","197","414475","0.0-19.0-1.20","63d420b1d5b7dc6a3a4c50aa","bdp_trlrn","Wed Mar 15 2023 23:49:23 GMT-0400 (Eastern Daylight Time)","742062","Untrustworthy,Trustworthy","","1507","","","","decision","","<div class='trialDiv'><img src='trustrating_stim/white_mw063.bmp'><br><font class='baseline'><strong>Jason</strong><p>Choose number of points to send.</font><div class='respPicDiv'><img src='img/responseButtonOffersNo0L.png' class='respPic'></div></div>","2","7","Jason","2","Shared","0.65,0.35","14","0.65","trustrating_stim/white_mw063.bmp","2","110","21"
"html-keyboard-response","198","414732","0.0-19.0-2.20","63d420b1d5b7dc6a3a4c50aa","bdp_trlrn","Wed Mar 15 2023 23:49:23 GMT-0400 (Eastern Daylight Time)","742062","Untrustworthy,Trustworthy","","null","","","","decisionFB","","<div class='trialDiv'><img src='trustrating_stim/white_mw063.bmp'><br><font class='baseline'><strong>Jason</strong><p>Choose number of points to send.</font><div class='respPicDiv'><img src='img/responseButtonOffersNo0L2.png' class='respPic'></div></div>","null","7","Jason","2","Shared","0.65,0.35","14","0.65","trustrating_stim/white_mw063.bmp","2","108","21"
"html-keyboard-response","199","415748","0.0-19.0-3.20","63d420b1d5b7dc6a3a4c50aa","bdp_trlrn","Wed Mar 15 2023 23:49:23 GMT-0400 (Eastern Daylight Time)","742062","Untrustworthy,Trustworthy","","null","","","","feedback","","<div class='trialDiv'><img src='trustrating_stim/white_mw063.bmp'><br><font class='baseline'><strong>Jason</strong><p>Received: <strong>8</strong></font> &nbsp; &nbsp; &nbsp; &nbsp; &nbsp; &nbsp;<font class='posOutcome'>Shared back: <strong>4</strong></font></font><div class='respPicDiv'><img src='img/responseButtonOffersNo0_wht.png' class='respPic'></div></div>","null","7","Jason","2","Shared","0.65,0.35","14","0.65","trustrating_stim/white_mw063.bmp","2","112","21"
"html-keyboard-response","200","416227","0.0-19.0-1.21","63d420b1d5b7dc6a3a4c50aa","bdp_trlrn","Wed Mar 15 2023 23:49:23 GMT-0400 (Eastern Daylight Time)","742062","Untrustworthy,Trustworthy","","476","","","","decision","","<div class='trialDiv'><img src='trustrating_stim/white_00129_931230_fb_edt.bmp'><br><font class='baseline'><strong>Richard</strong><p>Choose number of points to send.</font><div class='respPicDiv'><img src='img/responseButtonOffersNo0L.png' class='respPic'></div></div>","4","8","Richard","10","Kept","0.35,0.8","9","0.35","trustrating_stim/white_00129_931230_fb_edt.bmp","6","117","22"
"html-keyboard-response","201","416484","0.0-19.0-2.21","63d420b1d5b7dc6a3a4c50aa","bdp_trlrn","Wed Mar 15 2023 23:49:23 GMT-0400 (Eastern Daylight Time)","742062","Untrustworthy,Trustworthy","","null","","","","decisionFB","","<div class='trialDiv'><img src='trustrating_stim/white_00129_931230_fb_edt.bmp'><br><font class='baseline'><strong>Richard</strong><p>Choose number of points to send.</font><div class='respPicDiv'><img src='img/responseButtonOffersNo0L4.png' class='respPic'></div></div>","null","8","Richard","10","Kept","0.35,0.8","9","0.35","trustrating_stim/white_00129_931230_fb_edt.bmp","6","113","22"
"html-keyboard-response","202","417501","0.0-19.0-3.21","63d420b1d5b7dc6a3a4c50aa","bdp_trlrn","Wed Mar 15 2023 23:49:23 GMT-0400 (Eastern Daylight Time)","742062","Untrustworthy,Trustworthy","","null","","","","feedback","","<div class='trialDiv'><img src='trustrating_stim/white_00129_931230_fb_edt.bmp'><br><font class='baseline'><strong>Richard</strong><p>Received: <strong>16</strong></font> &nbsp; &nbsp; &nbsp; &nbsp; &nbsp; &nbsp;<font class='negOutcome'>Shared back: <strong>0</strong></font></font><div class='respPicDiv'><img src='img/responseButtonOffersNo0_wht.png' class='respPic'></div></div>","null","8","Richard","10","Kept","0.35,0.8","9","0.35","trustrating_stim/white_00129_931230_fb_edt.bmp","6","113","22"
"html-keyboard-response","203","418156","0.0-19.0-1.22","63d420b1d5b7dc6a3a4c50aa","bdp_trlrn","Wed Mar 15 2023 23:49:23 GMT-0400 (Eastern Daylight Time)","742062","Untrustworthy,Trustworthy","","653","","","","decision","","<div class='trialDiv'><img src='trustrating_stim/white_mw063.bmp'><br><font class='baseline'><strong>Jason</strong><p>Choose number of points to send.</font><div class='respPicDiv'><img src='img/responseButtonOffersNo0L.png' class='respPic'></div></div>","3","8","Jason","2","Shared","0.65,0.35","14","0.65","trustrating_stim/white_mw063.bmp","2","118","23"
"html-keyboard-response","204","418411","0.0-19.0-2.22","63d420b1d5b7dc6a3a4c50aa","bdp_trlrn","Wed Mar 15 2023 23:49:23 GMT-0400 (Eastern Daylight Time)","742062","Untrustworthy,Trustworthy","","null","","","","decisionFB","","<div class='trialDiv'><img src='trustrating_stim/white_mw063.bmp'><br><font class='baseline'><strong>Jason</strong><p>Choose number of points to send.</font><div class='respPicDiv'><img src='img/responseButtonOffersNo0L3.png' class='respPic'></div></div>","null","8","Jason","2","Shared","0.65,0.35","14","0.65","trustrating_stim/white_mw063.bmp","2","115","23"
"html-keyboard-response","205","419427","0.0-19.0-3.22","63d420b1d5b7dc6a3a4c50aa","bdp_trlrn","Wed Mar 15 2023 23:49:23 GMT-0400 (Eastern Daylight Time)","742062","Untrustworthy,Trustworthy","","null","","","","feedback","","<div class='trialDiv'><img src='trustrating_stim/white_mw063.bmp'><br><font class='baseline'><strong>Jason</strong><p>Received: <strong>12</strong></font> &nbsp; &nbsp; &nbsp; &nbsp; &nbsp; &nbsp;<font class='posOutcome'>Shared back: <strong>6</strong></font></font><div class='respPicDiv'><img src='img/responseButtonOffersNo0_wht.png' class='respPic'></div></div>","null","8","Jason","2","Shared","0.65,0.35","14","0.65","trustrating_stim/white_mw063.bmp","2","121","23"
"html-keyboard-response","206","420660","0.0-19.0-1.23","63d420b1d5b7dc6a3a4c50aa","bdp_trlrn","Wed Mar 15 2023 23:49:23 GMT-0400 (Eastern Daylight Time)","742062","Untrustworthy,Trustworthy","","1231","","","","decision","","<div class='trialDiv'><img src='trustrating_stim/white_mw056.bmp'><br><font class='baseline'><strong>Jordan</strong><p>Choose number of points to send.</font><div class='respPicDiv'><img src='img/responseButtonOffersNo0L.png' class='respPic'></div></div>","3","8","Jordan","4","Shared","0.65,0.2","11","0.65","trustrating_stim/white_mw056.bmp","3.5","126","24"
"html-keyboard-response","207","420913","0.0-19.0-2.23","63d420b1d5b7dc6a3a4c50aa","bdp_trlrn","Wed Mar 15 2023 23:49:23 GMT-0400 (Eastern Daylight Time)","742062","Untrustworthy,Trustworthy","","null","","","","decisionFB","","<div class='trialDiv'><img src='trustrating_stim/white_mw056.bmp'><br><font class='baseline'><strong>Jordan</strong><p>Choose number of points to send.</font><div class='respPicDiv'><img src='img/responseButtonOffersNo0L3.png' class='respPic'></div></div>","null","8","Jordan","4","Shared","0.65,0.2","11","0.65","trustrating_stim/white_mw056.bmp","3.5","123","24"
"html-keyboard-response","208","421915","0.0-19.0-3.23","63d420b1d5b7dc6a3a4c50aa","bdp_trlrn","Wed Mar 15 2023 23:49:23 GMT-0400 (Eastern Daylight Time)","742062","Untrustworthy,Trustworthy","","null","","","","feedback","","<div class='trialDiv'><img src='trustrating_stim/white_mw056.bmp'><br><font class='baseline'><strong>Jordan</strong><p>Received: <strong>12</strong></font> &nbsp; &nbsp; &nbsp; &nbsp; &nbsp; &nbsp;<font class='posOutcome'>Shared back: <strong>6</strong></font></font><div class='respPicDiv'><img src='img/responseButtonOffersNo0_wht.png' class='respPic'></div></div>","null","8","Jordan","4","Shared","0.65,0.2","11","0.65","trustrating_stim/white_mw056.bmp","3.5","129","24"
"html-keyboard-response","209","423286","0.0-19.0-1.24","63d420b1d5b7dc6a3a4c50aa","bdp_trlrn","Wed Mar 15 2023 23:49:23 GMT-0400 (Eastern Daylight Time)","742062","Untrustworthy,Trustworthy","","1368","","","","decision","","<div class='trialDiv'><img src='trustrating_stim/white_00129_931230_fb_edt.bmp'><br><font class='baseline'><strong>Richard</strong><p>Choose number of points to send.</font><div class='respPicDiv'><img src='img/responseButtonOffersNo0L.png' class='respPic'></div></div>","3","9","Richard","10","Shared","0.35,0.8","9","0.35","trustrating_stim/white_00129_931230_fb_edt.bmp","6","134","25"
"html-keyboard-response","210","423542","0.0-19.0-2.24","63d420b1d5b7dc6a3a4c50aa","bdp_trlrn","Wed Mar 15 2023 23:49:23 GMT-0400 (Eastern Daylight Time)","742062","Untrustworthy,Trustworthy","","null","","","","decisionFB","","<div class='trialDiv'><img src='trustrating_stim/white_00129_931230_fb_edt.bmp'><br><font class='baseline'><strong>Richard</strong><p>Choose number of points to send.</font><div class='respPicDiv'><img src='img/responseButtonOffersNo0L3.png' class='respPic'></div></div>","null","9","Richard","10","Shared","0.35,0.8","9","0.35","trustrating_stim/white_00129_931230_fb_edt.bmp","6","131","25"
"html-keyboard-response","211","424558","0.0-19.0-3.24","63d420b1d5b7dc6a3a4c50aa","bdp_trlrn","Wed Mar 15 2023 23:49:23 GMT-0400 (Eastern Daylight Time)","742062","Untrustworthy,Trustworthy","","null","","","","feedback","","<div class='trialDiv'><img src='trustrating_stim/white_00129_931230_fb_edt.bmp'><br><font class='baseline'><strong>Richard</strong><p>Received: <strong>12</strong></font> &nbsp; &nbsp; &nbsp; &nbsp; &nbsp; &nbsp;<font class='posOutcome'>Shared back: <strong>6</strong></font></font><div class='respPicDiv'><img src='img/responseButtonOffersNo0_wht.png' class='respPic'></div></div>","null","9","Richard","10","Shared","0.35,0.8","9","0.35","trustrating_stim/white_00129_931230_fb_edt.bmp","6","137","25"
"html-keyboard-response","212","425426","0.0-19.0-1.25","63d420b1d5b7dc6a3a4c50aa","bdp_trlrn","Wed Mar 15 2023 23:49:23 GMT-0400 (Eastern Daylight Time)","742062","Untrustworthy,Trustworthy","","866","","","","decision","","<div class='trialDiv'><img src='trustrating_stim/white_mw063.bmp'><br><font class='baseline'><strong>Jason</strong><p>Choose number of points to send.</font><div class='respPicDiv'><img src='img/responseButtonOffersNo0L.png' class='respPic'></div></div>","3","9","Jason","2","Shared","0.65,0.35","14","0.65","trustrating_stim/white_mw063.bmp","2","142","26"
"html-keyboard-response","213","425684","0.0-19.0-2.25","63d420b1d5b7dc6a3a4c50aa","bdp_trlrn","Wed Mar 15 2023 23:49:23 GMT-0400 (Eastern Daylight Time)","742062","Untrustworthy,Trustworthy","","null","","","","decisionFB","","<div class='trialDiv'><img src='trustrating_stim/white_mw063.bmp'><br><font class='baseline'><strong>Jason</strong><p>Choose number of points to send.</font><div class='respPicDiv'><img src='img/responseButtonOffersNo0L3.png' class='respPic'></div></div>","null","9","Jason","2","Shared","0.65,0.35","14","0.65","trustrating_stim/white_mw063.bmp","2","139","26"
"html-keyboard-response","214","426701","0.0-19.0-3.25","63d420b1d5b7dc6a3a4c50aa","bdp_trlrn","Wed Mar 15 2023 23:49:23 GMT-0400 (Eastern Daylight Time)","742062","Untrustworthy,Trustworthy","","null","","","","feedback","","<div class='trialDiv'><img src='trustrating_stim/white_mw063.bmp'><br><font class='baseline'><strong>Jason</strong><p>Received: <strong>12</strong></font> &nbsp; &nbsp; &nbsp; &nbsp; &nbsp; &nbsp;<font class='posOutcome'>Shared back: <strong>6</strong></font></font><div class='respPicDiv'><img src='img/responseButtonOffersNo0_wht.png' class='respPic'></div></div>","null","9","Jason","2","Shared","0.65,0.35","14","0.65","trustrating_stim/white_mw063.bmp","2","145","26"
"html-keyboard-response","215","427929","0.0-19.0-1.26","63d420b1d5b7dc6a3a4c50aa","bdp_trlrn","Wed Mar 15 2023 23:49:23 GMT-0400 (Eastern Daylight Time)","742062","Untrustworthy,Trustworthy","","1225","","","","decision","","<div class='trialDiv'><img src='trustrating_stim/white_mw056.bmp'><br><font class='baseline'><strong>Jordan</strong><p>Choose number of points to send.</font><div class='respPicDiv'><img src='img/responseButtonOffersNo0L.png' class='respPic'></div></div>","3","9","Jordan","4","Kept","0.65,0.2","11","0.65","trustrating_stim/white_mw056.bmp","3.5","150","27"
"html-keyboard-response","216","428194","0.0-19.0-2.26","63d420b1d5b7dc6a3a4c50aa","bdp_trlrn","Wed Mar 15 2023 23:49:23 GMT-0400 (Eastern Daylight Time)","742062","Untrustworthy,Trustworthy","","null","","","","decisionFB","","<div class='trialDiv'><img src='trustrating_stim/white_mw056.bmp'><br><font class='baseline'><strong>Jordan</strong><p>Choose number of points to send.</font><div class='respPicDiv'><img src='img/responseButtonOffersNo0L3.png' class='respPic'></div></div>","null","9","Jordan","4","Kept","0.65,0.2","11","0.65","trustrating_stim/white_mw056.bmp","3.5","147","27"
"html-keyboard-response","217","429212","0.0-19.0-3.26","63d420b1d5b7dc6a3a4c50aa","bdp_trlrn","Wed Mar 15 2023 23:49:23 GMT-0400 (Eastern Daylight Time)","742062","Untrustworthy,Trustworthy","","null","","","","feedback","","<div class='trialDiv'><img src='trustrating_stim/white_mw056.bmp'><br><font class='baseline'><strong>Jordan</strong><p>Received: <strong>12</strong></font> &nbsp; &nbsp; &nbsp; &nbsp; &nbsp; &nbsp;<font class='negOutcome'>Shared back: <strong>0</strong></font></font><div class='respPicDiv'><img src='img/responseButtonOffersNo0_wht.png' class='respPic'></div></div>","null","9","Jordan","4","Kept","0.65,0.2","11","0.65","trustrating_stim/white_mw056.bmp","3.5","147","27"
"html-keyboard-response","218","429490","0.0-19.0-1.27","63d420b1d5b7dc6a3a4c50aa","bdp_trlrn","Wed Mar 15 2023 23:49:23 GMT-0400 (Eastern Daylight Time)","742062","Untrustworthy,Trustworthy","","276","","","","decision","","<div class='trialDiv'><img src='trustrating_stim/white_00129_931230_fb_edt.bmp'><br><font class='baseline'><strong>Richard</strong><p>Choose number of points to send.</font><div class='respPicDiv'><img src='img/responseButtonOffersNo0L.png' class='respPic'></div></div>","4","10","Richard","10","Shared","0.35,0.8","9","0.35","trustrating_stim/white_00129_931230_fb_edt.bmp","6","152","28"
"html-keyboard-response","219","429749","0.0-19.0-2.27","63d420b1d5b7dc6a3a4c50aa","bdp_trlrn","Wed Mar 15 2023 23:49:23 GMT-0400 (Eastern Daylight Time)","742062","Untrustworthy,Trustworthy","","null","","","","decisionFB","","<div class='trialDiv'><img src='trustrating_stim/white_00129_931230_fb_edt.bmp'><br><font class='baseline'><strong>Richard</strong><p>Choose number of points to send.</font><div class='respPicDiv'><img src='img/responseButtonOffersNo0L4.png' class='respPic'></div></div>","null","10","Richard","10","Shared","0.35,0.8","9","0.35","trustrating_stim/white_00129_931230_fb_edt.bmp","6","148","28"
"html-keyboard-response","220","430768","0.0-19.0-3.27","63d420b1d5b7dc6a3a4c50aa","bdp_trlrn","Wed Mar 15 2023 23:49:23 GMT-0400 (Eastern Daylight Time)","742062","Untrustworthy,Trustworthy","","null","","","","feedback","","<div class='trialDiv'><img src='trustrating_stim/white_00129_931230_fb_edt.bmp'><br><font class='baseline'><strong>Richard</strong><p>Received: <strong>16</strong></font> &nbsp; &nbsp; &nbsp; &nbsp; &nbsp; &nbsp;<font class='posOutcome'>Shared back: <strong>8</strong></font></font><div class='respPicDiv'><img src='img/responseButtonOffersNo0_wht.png' class='respPic'></div></div>","null","10","Richard","10","Shared","0.35,0.8","9","0.35","trustrating_stim/white_00129_931230_fb_edt.bmp","6","156","28"
