"trial_type","trial_index","time_elapsed","internal_node_id","subject_id","task","startTime","totalTime","labels","view_history","rt","event","trial","time","trialtype","success","stimulus","key_press","aground","name","faceID","outcome","agenttype","agentswpt","agentcurrpshare","face","avgRating","point_total","round"
"pavlovia","0","6","0.0-0.0","sconelab1","bdp_trlrn","Mon Feb 20 2023 23:41:30 GMT-0500 (Eastern Standard Time)","1006477","Untrustworthy,Trustworthy","","","","","","","","","","","","","","","","","","","",""
"instructions","1","4410","0.0-1.0","sconelab1","bdp_trlrn","Mon Feb 20 2023 23:41:30 GMT-0500 (Eastern Standard Time)","1006477","Untrustworthy,Trustworthy","[{""page_index"":0,""viewing_time"":4403}]","4403","","","","","","","","","","","","","","","","","",""
"","","","","sconelab1","bdp_trlrn","Mon Feb 20 2023 23:41:30 GMT-0500 (Eastern Standard Time)","1006477","Untrustworthy,Trustworthy","","","fullscreenenter","2","5608","fullscreenenter","","","","","","","","","","","","","",""
"fullscreen","2","6605","0.0-2.0","sconelab1","bdp_trlrn","Mon Feb 20 2023 23:41:30 GMT-0500 (Eastern Standard Time)","1006477","Untrustworthy,Trustworthy","","","","","","","true","","","","","","","","","","","","",""
"instructions","3","49532","0.0-4.0","sconelab1","bdp_trlrn","Mon Feb 20 2023 23:41:30 GMT-0500 (Eastern Standard Time)","1006477","Untrustworthy,Trustworthy","[{""page_index"":0,""viewing_time"":15804},{""page_index"":1,""viewing_time"":27120}]","42925","","","","","","","","","","","","","","","","","",""
"instructions","4","51189","0.0-5.0","sconelab1","bdp_trlrn","Mon Feb 20 2023 23:41:30 GMT-0500 (Eastern Standard Time)","1006477","Untrustworthy,Trustworthy","[{""page_index"":0,""viewing_time"":1656}]","1656","","","","","","","","","","","","","","","","","",""
"image-keyboard-response","5","57052","0.0-6.0-1.0","sconelab1","bdp_trlrn","Mon Feb 20 2023 23:41:30 GMT-0500 (Eastern Standard Time)","1006477","Untrustworthy,Trustworthy","","5756","","","","rating","","trustrating_stim/white_00519_940519_fb_edt.bmp","8","","","","","","","","","","",""
"image-keyboard-response","6","57255","0.0-6.0-2.0","sconelab1","bdp_trlrn","Mon Feb 20 2023 23:41:30 GMT-0500 (Eastern Standard Time)","1006477","Untrustworthy,Trustworthy","","null","","","","ratingFB","","trustrating_stim/white_00519_940519_fb_edt.bmp","null","","","","","","","","","","",""
"image-keyboard-response","7","59993","0.0-6.0-1.1","sconelab1","bdp_trlrn","Mon Feb 20 2023 23:41:30 GMT-0500 (Eastern Standard Time)","1006477","Untrustworthy,Trustworthy","","2629","","","","rating","","trustrating_stim/white_mw060.bmp","6","","","","","","","","","","",""
"image-keyboard-response","8","60203","0.0-6.0-2.1","sconelab1","bdp_trlrn","Mon Feb 20 2023 23:41:30 GMT-0500 (Eastern Standard Time)","1006477","Untrustworthy,Trustworthy","","null","","","","ratingFB","","trustrating_stim/white_mw060.bmp","null","","","","","","","","","","",""
"image-keyboard-response","9","69019","0.0-6.0-1.2","sconelab1","bdp_trlrn","Mon Feb 20 2023 23:41:30 GMT-0500 (Eastern Standard Time)","1006477","Untrustworthy,Trustworthy","","8710","","","","rating","","trustrating_stim/white_mw071.bmp","3","","","","","","","","","","",""
"image-keyboard-response","10","69227","0.0-6.0-2.2","sconelab1","bdp_trlrn","Mon Feb 20 2023 23:41:30 GMT-0500 (Eastern Standard Time)","1006477","Untrustworthy,Trustworthy","","null","","","","ratingFB","","trustrating_stim/white_mw071.bmp","null","","","","","","","","","","",""
"image-keyboard-response","11","78434","0.0-6.0-1.3","sconelab1","bdp_trlrn","Mon Feb 20 2023 23:41:30 GMT-0500 (Eastern Standard Time)","1006477","Untrustworthy,Trustworthy","","9104","","","","rating","","trustrating_stim/white_mw048.bmp","3","","","","","","","","","","",""
"image-keyboard-response","12","78639","0.0-6.0-2.3","sconelab1","bdp_trlrn","Mon Feb 20 2023 23:41:30 GMT-0500 (Eastern Standard Time)","1006477","Untrustworthy,Trustworthy","","null","","","","ratingFB","","trustrating_stim/white_mw048.bmp","null","","","","","","","","","","",""
"image-keyboard-response","13","82468","0.0-6.0-1.4","sconelab1","bdp_trlrn","Mon Feb 20 2023 23:41:30 GMT-0500 (Eastern Standard Time)","1006477","Untrustworthy,Trustworthy","","3718","","","","rating","","trustrating_stim/white_mw089.bmp","7","","","","","","","","","","",""
"image-keyboard-response","14","82674","0.0-6.0-2.4","sconelab1","bdp_trlrn","Mon Feb 20 2023 23:41:30 GMT-0500 (Eastern Standard Time)","1006477","Untrustworthy,Trustworthy","","null","","","","ratingFB","","trustrating_stim/white_mw089.bmp","null","","","","","","","","","","",""
"image-keyboard-response","15","85415","0.0-6.0-1.5","sconelab1","bdp_trlrn","Mon Feb 20 2023 23:41:30 GMT-0500 (Eastern Standard Time)","1006477","Untrustworthy,Trustworthy","","2634","","","","rating","","trustrating_stim/white_mw084.bmp","5","","","","","","","","","","",""
"image-keyboard-response","16","85618","0.0-6.0-2.5","sconelab1","bdp_trlrn","Mon Feb 20 2023 23:41:30 GMT-0500 (Eastern Standard Time)","1006477","Untrustworthy,Trustworthy","","null","","","","ratingFB","","trustrating_stim/white_mw084.bmp","null","","","","","","","","","","",""
"image-keyboard-response","17","88254","0.0-6.0-1.6","sconelab1","bdp_trlrn","Mon Feb 20 2023 23:41:30 GMT-0500 (Eastern Standard Time)","1006477","Untrustworthy,Trustworthy","","2529","","","","rating","","trustrating_stim/white_00223_940128_fb_edt.bmp","6","","","","","","","","","","",""
"image-keyboard-response","18","88461","0.0-6.0-2.6","sconelab1","bdp_trlrn","Mon Feb 20 2023 23:41:30 GMT-0500 (Eastern Standard Time)","1006477","Untrustworthy,Trustworthy","","null","","","","ratingFB","","trustrating_stim/white_00223_940128_fb_edt.bmp","null","","","","","","","","","","",""
"image-keyboard-response","19","90130","0.0-6.0-1.7","sconelab1","bdp_trlrn","Mon Feb 20 2023 23:41:30 GMT-0500 (Eastern Standard Time)","1006477","Untrustworthy,Trustworthy","","1562","","","","rating","","trustrating_stim/white_00129_931230_fb_edt.bmp","5","","","","","","","","","","",""
"image-keyboard-response","20","90332","0.0-6.0-2.7","sconelab1","bdp_trlrn","Mon Feb 20 2023 23:41:30 GMT-0500 (Eastern Standard Time)","1006477","Untrustworthy,Trustworthy","","null","","","","ratingFB","","trustrating_stim/white_00129_931230_fb_edt.bmp","null","","","","","","","","","","",""
"image-keyboard-response","21","91582","0.0-6.0-1.8","sconelab1","bdp_trlrn","Mon Feb 20 2023 23:41:30 GMT-0500 (Eastern Standard Time)","1006477","Untrustworthy,Trustworthy","","1139","","","","rating","","trustrating_stim/white_00120_931230_fa_edt.bmp","5","","","","","","","","","","",""
"image-keyboard-response","22","91788","0.0-6.0-2.8","sconelab1","bdp_trlrn","Mon Feb 20 2023 23:41:30 GMT-0500 (Eastern Standard Time)","1006477","Untrustworthy,Trustworthy","","null","","","","ratingFB","","trustrating_stim/white_00120_931230_fa_edt.bmp","null","","","","","","","","","","",""
"image-keyboard-response","23","93646","0.0-6.0-1.9","sconelab1","bdp_trlrn","Mon Feb 20 2023 23:41:30 GMT-0500 (Eastern Standard Time)","1006477","Untrustworthy,Trustworthy","","1748","","","","rating","","trustrating_stim/white_mw053.bmp","4","","","","","","","","","","",""
"image-keyboard-response","24","93851","0.0-6.0-2.9","sconelab1","bdp_trlrn","Mon Feb 20 2023 23:41:30 GMT-0500 (Eastern Standard Time)","1006477","Untrustworthy,Trustworthy","","null","","","","ratingFB","","trustrating_stim/white_mw053.bmp","null","","","","","","","","","","",""
"image-keyboard-response","25","100313","0.0-6.0-1.10","sconelab1","bdp_trlrn","Mon Feb 20 2023 23:41:30 GMT-0500 (Eastern Standard Time)","1006477","Untrustworthy,Trustworthy","","6359","","","","rating","","trustrating_stim/white_mw066.bmp","5","","","","","","","","","","",""
"image-keyboard-response","26","100520","0.0-6.0-2.10","sconelab1","bdp_trlrn","Mon Feb 20 2023 23:41:30 GMT-0500 (Eastern Standard Time)","1006477","Untrustworthy,Trustworthy","","null","","","","ratingFB","","trustrating_stim/white_mw066.bmp","null","","","","","","","","","","",""
"image-keyboard-response","27","117768","0.0-6.0-1.11","sconelab1","bdp_trlrn","Mon Feb 20 2023 23:41:30 GMT-0500 (Eastern Standard Time)","1006477","Untrustworthy,Trustworthy","","17143","","","","rating","","trustrating_stim/white_00807_941205_fb_edt.bmp","5","","","","","","","","","","",""
"image-keyboard-response","28","117978","0.0-6.0-2.11","sconelab1","bdp_trlrn","Mon Feb 20 2023 23:41:30 GMT-0500 (Eastern Standard Time)","1006477","Untrustworthy,Trustworthy","","null","","","","ratingFB","","trustrating_stim/white_00807_941205_fb_edt.bmp","null","","","","","","","","","","",""
"image-keyboard-response","29","121054","0.0-6.0-1.12","sconelab1","bdp_trlrn","Mon Feb 20 2023 23:41:30 GMT-0500 (Eastern Standard Time)","1006477","Untrustworthy,Trustworthy","","2964","","","","rating","","trustrating_stim/white_00299_940422_fa_edt.bmp","5","","","","","","","","","","",""
"image-keyboard-response","30","121259","0.0-6.0-2.12","sconelab1","bdp_trlrn","Mon Feb 20 2023 23:41:30 GMT-0500 (Eastern Standard Time)","1006477","Untrustworthy,Trustworthy","","null","","","","ratingFB","","trustrating_stim/white_00299_940422_fa_edt.bmp","null","","","","","","","","","","",""
"image-keyboard-response","31","122977","0.0-6.0-1.13","sconelab1","bdp_trlrn","Mon Feb 20 2023 23:41:30 GMT-0500 (Eastern Standard Time)","1006477","Untrustworthy,Trustworthy","","1607","","","","rating","","trustrating_stim/white_mw063.bmp","4","","","","","","","","","","",""
"image-keyboard-response","32","123187","0.0-6.0-2.13","sconelab1","bdp_trlrn","Mon Feb 20 2023 23:41:30 GMT-0500 (Eastern Standard Time)","1006477","Untrustworthy,Trustworthy","","null","","","","ratingFB","","trustrating_stim/white_mw063.bmp","null","","","","","","","","","","",""
"image-keyboard-response","33","124632","0.0-6.0-1.14","sconelab1","bdp_trlrn","Mon Feb 20 2023 23:41:30 GMT-0500 (Eastern Standard Time)","1006477","Untrustworthy,Trustworthy","","1340","","","","rating","","trustrating_stim/white_mw099.bmp","4","","","","","","","","","","",""
"image-keyboard-response","34","124839","0.0-6.0-2.14","sconelab1","bdp_trlrn","Mon Feb 20 2023 23:41:30 GMT-0500 (Eastern Standard Time)","1006477","Untrustworthy,Trustworthy","","null","","","","ratingFB","","trustrating_stim/white_mw099.bmp","null","","","","","","","","","","",""
"image-keyboard-response","35","131177","0.0-6.0-1.15","sconelab1","bdp_trlrn","Mon Feb 20 2023 23:41:30 GMT-0500 (Eastern Standard Time)","1006477","Untrustworthy,Trustworthy","","6233","","","","rating","","trustrating_stim/white_mw056.bmp","3","","","","","","","","","","",""
"image-keyboard-response","36","131384","0.0-6.0-2.15","sconelab1","bdp_trlrn","Mon Feb 20 2023 23:41:30 GMT-0500 (Eastern Standard Time)","1006477","Untrustworthy,Trustworthy","","null","","","","ratingFB","","trustrating_stim/white_mw056.bmp","null","","","","","","","","","","",""
"image-keyboard-response","37","133077","0.0-6.0-1.16","sconelab1","bdp_trlrn","Mon Feb 20 2023 23:41:30 GMT-0500 (Eastern Standard Time)","1006477","Untrustworthy,Trustworthy","","1590","","","","rating","","trustrating_stim/white_mw097.bmp","3","","","","","","","","","","",""
"image-keyboard-response","38","133284","0.0-6.0-2.16","sconelab1","bdp_trlrn","Mon Feb 20 2023 23:41:30 GMT-0500 (Eastern Standard Time)","1006477","Untrustworthy,Trustworthy","","null","","","","ratingFB","","trustrating_stim/white_mw097.bmp","null","","","","","","","","","","",""
"image-keyboard-response","39","135896","0.0-6.0-1.17","sconelab1","bdp_trlrn","Mon Feb 20 2023 23:41:30 GMT-0500 (Eastern Standard Time)","1006477","Untrustworthy,Trustworthy","","2504","","","","rating","","trustrating_stim/white_00602_940928_fb_edt.bmp","6","","","","","","","","","","",""
"image-keyboard-response","40","136099","0.0-6.0-2.17","sconelab1","bdp_trlrn","Mon Feb 20 2023 23:41:30 GMT-0500 (Eastern Standard Time)","1006477","Untrustworthy,Trustworthy","","null","","","","ratingFB","","trustrating_stim/white_00602_940928_fb_edt.bmp","null","","","","","","","","","","",""
"image-keyboard-response","41","138717","0.0-6.0-1.18","sconelab1","bdp_trlrn","Mon Feb 20 2023 23:41:30 GMT-0500 (Eastern Standard Time)","1006477","Untrustworthy,Trustworthy","","2508","","","","rating","","trustrating_stim/white_00761_941201_fb_edt.bmp","4","","","","","","","","","","",""
"image-keyboard-response","42","138928","0.0-6.0-2.18","sconelab1","bdp_trlrn","Mon Feb 20 2023 23:41:30 GMT-0500 (Eastern Standard Time)","1006477","Untrustworthy,Trustworthy","","null","","","","ratingFB","","trustrating_stim/white_00761_941201_fb_edt.bmp","null","","","","","","","","","","",""
"image-keyboard-response","43","140087","0.0-6.0-1.19","sconelab1","bdp_trlrn","Mon Feb 20 2023 23:41:30 GMT-0500 (Eastern Standard Time)","1006477","Untrustworthy,Trustworthy","","1056","","","","rating","","trustrating_stim/white_mw033.bmp","4","","","","","","","","","","",""
"image-keyboard-response","44","140295","0.0-6.0-2.19","sconelab1","bdp_trlrn","Mon Feb 20 2023 23:41:30 GMT-0500 (Eastern Standard Time)","1006477","Untrustworthy,Trustworthy","","null","","","","ratingFB","","trustrating_stim/white_mw033.bmp","null","","","","","","","","","","",""
"image-keyboard-response","45","145370","0.0-6.0-1.20","sconelab1","bdp_trlrn","Mon Feb 20 2023 23:41:30 GMT-0500 (Eastern Standard Time)","1006477","Untrustworthy,Trustworthy","","4971","","","","rating","","trustrating_stim/white_mw049.bmp","5","","","","","","","","","","",""
"image-keyboard-response","46","145576","0.0-6.0-2.20","sconelab1","bdp_trlrn","Mon Feb 20 2023 23:41:30 GMT-0500 (Eastern Standard Time)","1006477","Untrustworthy,Trustworthy","","null","","","","ratingFB","","trustrating_stim/white_mw049.bmp","null","","","","","","","","","","",""
"image-keyboard-response","47","149766","0.0-6.0-1.21","sconelab1","bdp_trlrn","Mon Feb 20 2023 23:41:30 GMT-0500 (Eastern Standard Time)","1006477","Untrustworthy,Trustworthy","","4078","","","","rating","","trustrating_stim/white_00577_940928_fa_edt.bmp","5","","","","","","","","","","",""
"image-keyboard-response","48","149972","0.0-6.0-2.21","sconelab1","bdp_trlrn","Mon Feb 20 2023 23:41:30 GMT-0500 (Eastern Standard Time)","1006477","Untrustworthy,Trustworthy","","null","","","","ratingFB","","trustrating_stim/white_00577_940928_fa_edt.bmp","null","","","","","","","","","","",""
"image-keyboard-response","49","151536","0.0-6.0-1.22","sconelab1","bdp_trlrn","Mon Feb 20 2023 23:41:30 GMT-0500 (Eastern Standard Time)","1006477","Untrustworthy,Trustworthy","","1456","","","","rating","","trustrating_stim/white_00898_960530_fa_edt.bmp","6","","","","","","","","","","",""
"image-keyboard-response","50","151738","0.0-6.0-2.22","sconelab1","bdp_trlrn","Mon Feb 20 2023 23:41:30 GMT-0500 (Eastern Standard Time)","1006477","Untrustworthy,Trustworthy","","null","","","","ratingFB","","trustrating_stim/white_00898_960530_fa_edt.bmp","null","","","","","","","","","","",""
"image-keyboard-response","51","153646","0.0-6.0-1.23","sconelab1","bdp_trlrn","Mon Feb 20 2023 23:41:30 GMT-0500 (Eastern Standard Time)","1006477","Untrustworthy,Trustworthy","","1797","","","","rating","","trustrating_stim/white_00659_941121_fa_edt.bmp","4","","","","","","","","","","",""
"image-keyboard-response","52","153852","0.0-6.0-2.23","sconelab1","bdp_trlrn","Mon Feb 20 2023 23:41:30 GMT-0500 (Eastern Standard Time)","1006477","Untrustworthy,Trustworthy","","null","","","","ratingFB","","trustrating_stim/white_00659_941121_fa_edt.bmp","null","","","","","","","","","","",""
"image-keyboard-response","53","155585","0.0-6.0-1.24","sconelab1","bdp_trlrn","Mon Feb 20 2023 23:41:30 GMT-0500 (Eastern Standard Time)","1006477","Untrustworthy,Trustworthy","","1631","","","","rating","","trustrating_stim/white_mw046.bmp","3","","","","","","","","","","",""
"image-keyboard-response","54","155790","0.0-6.0-2.24","sconelab1","bdp_trlrn","Mon Feb 20 2023 23:41:30 GMT-0500 (Eastern Standard Time)","1006477","Untrustworthy,Trustworthy","","null","","","","ratingFB","","trustrating_stim/white_mw046.bmp","null","","","","","","","","","","",""
"image-keyboard-response","55","157075","0.0-6.0-1.25","sconelab1","bdp_trlrn","Mon Feb 20 2023 23:41:30 GMT-0500 (Eastern Standard Time)","1006477","Untrustworthy,Trustworthy","","1178","","","","rating","","trustrating_stim/white_00757_941201_fa_edt.bmp","3","","","","","","","","","","",""
"image-keyboard-response","56","157278","0.0-6.0-2.25","sconelab1","bdp_trlrn","Mon Feb 20 2023 23:41:30 GMT-0500 (Eastern Standard Time)","1006477","Untrustworthy,Trustworthy","","null","","","","ratingFB","","trustrating_stim/white_00757_941201_fa_edt.bmp","null","","","","","","","","","","",""
"image-keyboard-response","57","159701","0.0-6.0-1.26","sconelab1","bdp_trlrn","Mon Feb 20 2023 23:41:30 GMT-0500 (Eastern Standard Time)","1006477","Untrustworthy,Trustworthy","","2317","","","","rating","","trustrating_stim/white_00785_941205_fb_edt.bmp","3","","","","","","","","","","",""
"image-keyboard-response","58","159913","0.0-6.0-2.26","sconelab1","bdp_trlrn","Mon Feb 20 2023 23:41:30 GMT-0500 (Eastern Standard Time)","1006477","Untrustworthy,Trustworthy","","null","","","","ratingFB","","trustrating_stim/white_00785_941205_fb_edt.bmp","null","","","","","","","","","","",""
"image-keyboard-response","59","162164","0.0-6.0-1.27","sconelab1","bdp_trlrn","Mon Feb 20 2023 23:41:30 GMT-0500 (Eastern Standard Time)","1006477","Untrustworthy,Trustworthy","","2140","","","","rating","","trustrating_stim/white_00340_940422_fa_edt.bmp","2","","","","","","","","","","",""
"image-keyboard-response","60","162377","0.0-6.0-2.27","sconelab1","bdp_trlrn","Mon Feb 20 2023 23:41:30 GMT-0500 (Eastern Standard Time)","1006477","Untrustworthy,Trustworthy","","null","","","","ratingFB","","trustrating_stim/white_00340_940422_fa_edt.bmp","null","","","","","","","","","","",""
"image-keyboard-response","61","166405","0.0-6.0-1.28","sconelab1","bdp_trlrn","Mon Feb 20 2023 23:41:30 GMT-0500 (Eastern Standard Time)","1006477","Untrustworthy,Trustworthy","","3925","","","","rating","","trustrating_stim/white_00109_931230_fa_edt.bmp","5","","","","","","","","","","",""
"image-keyboard-response","62","166611","0.0-6.0-2.28","sconelab1","bdp_trlrn","Mon Feb 20 2023 23:41:30 GMT-0500 (Eastern Standard Time)","1006477","Untrustworthy,Trustworthy","","null","","","","ratingFB","","trustrating_stim/white_00109_931230_fa_edt.bmp","null","","","","","","","","","","",""
"image-keyboard-response","63","167994","0.0-6.0-1.29","sconelab1","bdp_trlrn","Mon Feb 20 2023 23:41:30 GMT-0500 (Eastern Standard Time)","1006477","Untrustworthy,Trustworthy","","1276","","","","rating","","trustrating_stim/white_mw035.bmp","4","","","","","","","","","","",""
"image-keyboard-response","64","168197","0.0-6.0-2.29","sconelab1","bdp_trlrn","Mon Feb 20 2023 23:41:30 GMT-0500 (Eastern Standard Time)","1006477","Untrustworthy,Trustworthy","","null","","","","ratingFB","","trustrating_stim/white_mw035.bmp","null","","","","","","","","","","",""
"image-keyboard-response","65","171679","0.0-6.0-1.30","sconelab1","bdp_trlrn","Mon Feb 20 2023 23:41:30 GMT-0500 (Eastern Standard Time)","1006477","Untrustworthy,Trustworthy","","3373","","","","rating","","trustrating_stim/white_00761_941201_fb_edt.bmp","4","","","","","","","","","","",""
"image-keyboard-response","66","171886","0.0-6.0-2.30","sconelab1","bdp_trlrn","Mon Feb 20 2023 23:41:30 GMT-0500 (Eastern Standard Time)","1006477","Untrustworthy,Trustworthy","","null","","","","ratingFB","","trustrating_stim/white_00761_941201_fb_edt.bmp","null","","","","","","","","","","",""
"image-keyboard-response","67","173443","0.0-6.0-1.31","sconelab1","bdp_trlrn","Mon Feb 20 2023 23:41:30 GMT-0500 (Eastern Standard Time)","1006477","Untrustworthy,Trustworthy","","1453","","","","rating","","trustrating_stim/white_mw066.bmp","5","","","","","","","","","","",""
"image-keyboard-response","68","173655","0.0-6.0-2.31","sconelab1","bdp_trlrn","Mon Feb 20 2023 23:41:30 GMT-0500 (Eastern Standard Time)","1006477","Untrustworthy,Trustworthy","","null","","","","ratingFB","","trustrating_stim/white_mw066.bmp","null","","","","","","","","","","",""
"image-keyboard-response","69","175646","0.0-6.0-1.32","sconelab1","bdp_trlrn","Mon Feb 20 2023 23:41:30 GMT-0500 (Eastern Standard Time)","1006477","Untrustworthy,Trustworthy","","1878","","","","rating","","trustrating_stim/white_mw053.bmp","3","","","","","","","","","","",""
"image-keyboard-response","70","175853","0.0-6.0-2.32","sconelab1","bdp_trlrn","Mon Feb 20 2023 23:41:30 GMT-0500 (Eastern Standard Time)","1006477","Untrustworthy,Trustworthy","","null","","","","ratingFB","","trustrating_stim/white_mw053.bmp","null","","","","","","","","","","",""
"image-keyboard-response","71","177848","0.0-6.0-1.33","sconelab1","bdp_trlrn","Mon Feb 20 2023 23:41:30 GMT-0500 (Eastern Standard Time)","1006477","Untrustworthy,Trustworthy","","1888","","","","rating","","trustrating_stim/white_mw049.bmp","5","","","","","","","","","","",""
"image-keyboard-response","72","178051","0.0-6.0-2.33","sconelab1","bdp_trlrn","Mon Feb 20 2023 23:41:30 GMT-0500 (Eastern Standard Time)","1006477","Untrustworthy,Trustworthy","","null","","","","ratingFB","","trustrating_stim/white_mw049.bmp","null","","","","","","","","","","",""
"image-keyboard-response","73","180062","0.0-6.0-1.34","sconelab1","bdp_trlrn","Mon Feb 20 2023 23:41:30 GMT-0500 (Eastern Standard Time)","1006477","Untrustworthy,Trustworthy","","1904","","","","rating","","trustrating_stim/white_00757_941201_fa_edt.bmp","3","","","","","","","","","","",""
"image-keyboard-response","74","180267","0.0-6.0-2.34","sconelab1","bdp_trlrn","Mon Feb 20 2023 23:41:30 GMT-0500 (Eastern Standard Time)","1006477","Untrustworthy,Trustworthy","","null","","","","ratingFB","","trustrating_stim/white_00757_941201_fa_edt.bmp","null","","","","","","","","","","",""
"image-keyboard-response","75","181911","0.0-6.0-1.35","sconelab1","bdp_trlrn","Mon Feb 20 2023 23:41:30 GMT-0500 (Eastern Standard Time)","1006477","Untrustworthy,Trustworthy","","1535","","","","rating","","trustrating_stim/white_00109_931230_fa_edt.bmp","5","","","","","","","","","","",""
"image-keyboard-response","76","182116","0.0-6.0-2.35","sconelab1","bdp_trlrn","Mon Feb 20 2023 23:41:30 GMT-0500 (Eastern Standard Time)","1006477","Untrustworthy,Trustworthy","","null","","","","ratingFB","","trustrating_stim/white_00109_931230_fa_edt.bmp","null","","","","","","","","","","",""
"image-keyboard-response","77","184971","0.0-6.0-1.36","sconelab1","bdp_trlrn","Mon Feb 20 2023 23:41:30 GMT-0500 (Eastern Standard Time)","1006477","Untrustworthy,Trustworthy","","2750","","","","rating","","trustrating_stim/white_mw035.bmp","5","","","","","","","","","","",""
"image-keyboard-response","78","185179","0.0-6.0-2.36","sconelab1","bdp_trlrn","Mon Feb 20 2023 23:41:30 GMT-0500 (Eastern Standard Time)","1006477","Untrustworthy,Trustworthy","","null","","","","ratingFB","","trustrating_stim/white_mw035.bmp","null","","","","","","","","","","",""
"image-keyboard-response","79","187671","0.0-6.0-1.37","sconelab1","bdp_trlrn","Mon Feb 20 2023 23:41:30 GMT-0500 (Eastern Standard Time)","1006477","Untrustworthy,Trustworthy","","2384","","","","rating","","trustrating_stim/white_mw033.bmp","5","","","","","","","","","","",""
"image-keyboard-response","80","187876","0.0-6.0-2.37","sconelab1","bdp_trlrn","Mon Feb 20 2023 23:41:30 GMT-0500 (Eastern Standard Time)","1006477","Untrustworthy,Trustworthy","","null","","","","ratingFB","","trustrating_stim/white_mw033.bmp","null","","","","","","","","","","",""
"image-keyboard-response","81","189129","0.0-6.0-1.38","sconelab1","bdp_trlrn","Mon Feb 20 2023 23:41:30 GMT-0500 (Eastern Standard Time)","1006477","Untrustworthy,Trustworthy","","1147","","","","rating","","trustrating_stim/white_mw060.bmp","4","","","","","","","","","","",""
"image-keyboard-response","82","189335","0.0-6.0-2.38","sconelab1","bdp_trlrn","Mon Feb 20 2023 23:41:30 GMT-0500 (Eastern Standard Time)","1006477","Untrustworthy,Trustworthy","","null","","","","ratingFB","","trustrating_stim/white_mw060.bmp","null","","","","","","","","","","",""
"image-keyboard-response","83","194893","0.0-6.0-1.39","sconelab1","bdp_trlrn","Mon Feb 20 2023 23:41:30 GMT-0500 (Eastern Standard Time)","1006477","Untrustworthy,Trustworthy","","5447","","","","rating","","trustrating_stim/white_00519_940519_fb_edt.bmp","6","","","","","","","","","","",""
"image-keyboard-response","84","195100","0.0-6.0-2.39","sconelab1","bdp_trlrn","Mon Feb 20 2023 23:41:30 GMT-0500 (Eastern Standard Time)","1006477","Untrustworthy,Trustworthy","","null","","","","ratingFB","","trustrating_stim/white_00519_940519_fb_edt.bmp","null","","","","","","","","","","",""
"image-keyboard-response","85","196719","0.0-6.0-1.40","sconelab1","bdp_trlrn","Mon Feb 20 2023 23:41:30 GMT-0500 (Eastern Standard Time)","1006477","Untrustworthy,Trustworthy","","1512","","","","rating","","trustrating_stim/white_00659_941121_fa_edt.bmp","3","","","","","","","","","","",""
"image-keyboard-response","86","196922","0.0-6.0-2.40","sconelab1","bdp_trlrn","Mon Feb 20 2023 23:41:30 GMT-0500 (Eastern Standard Time)","1006477","Untrustworthy,Trustworthy","","null","","","","ratingFB","","trustrating_stim/white_00659_941121_fa_edt.bmp","null","","","","","","","","","","",""
"image-keyboard-response","87","198742","0.0-6.0-1.41","sconelab1","bdp_trlrn","Mon Feb 20 2023 23:41:30 GMT-0500 (Eastern Standard Time)","1006477","Untrustworthy,Trustworthy","","1711","","","","rating","","trustrating_stim/white_00898_960530_fa_edt.bmp","7","","","","","","","","","","",""
"image-keyboard-response","88","198948","0.0-6.0-2.41","sconelab1","bdp_trlrn","Mon Feb 20 2023 23:41:30 GMT-0500 (Eastern Standard Time)","1006477","Untrustworthy,Trustworthy","","null","","","","ratingFB","","trustrating_stim/white_00898_960530_fa_edt.bmp","null","","","","","","","","","","",""
"image-keyboard-response","89","200372","0.0-6.0-1.42","sconelab1","bdp_trlrn","Mon Feb 20 2023 23:41:30 GMT-0500 (Eastern Standard Time)","1006477","Untrustworthy,Trustworthy","","1317","","","","rating","","trustrating_stim/white_mw063.bmp","3","","","","","","","","","","",""
"image-keyboard-response","90","200582","0.0-6.0-2.42","sconelab1","bdp_trlrn","Mon Feb 20 2023 23:41:30 GMT-0500 (Eastern Standard Time)","1006477","Untrustworthy,Trustworthy","","null","","","","ratingFB","","trustrating_stim/white_mw063.bmp","null","","","","","","","","","","",""
"image-keyboard-response","91","202955","0.0-6.0-1.43","sconelab1","bdp_trlrn","Mon Feb 20 2023 23:41:30 GMT-0500 (Eastern Standard Time)","1006477","Untrustworthy,Trustworthy","","2268","","","","rating","","trustrating_stim/white_mw084.bmp","5","","","","","","","","","","",""
"image-keyboard-response","92","203164","0.0-6.0-2.43","sconelab1","bdp_trlrn","Mon Feb 20 2023 23:41:30 GMT-0500 (Eastern Standard Time)","1006477","Untrustworthy,Trustworthy","","null","","","","ratingFB","","trustrating_stim/white_mw084.bmp","null","","","","","","","","","","",""
"image-keyboard-response","93","205938","0.0-6.0-1.44","sconelab1","bdp_trlrn","Mon Feb 20 2023 23:41:30 GMT-0500 (Eastern Standard Time)","1006477","Untrustworthy,Trustworthy","","2671","","","","rating","","trustrating_stim/white_mw056.bmp","3","","","","","","","","","","",""
"image-keyboard-response","94","206148","0.0-6.0-2.44","sconelab1","bdp_trlrn","Mon Feb 20 2023 23:41:30 GMT-0500 (Eastern Standard Time)","1006477","Untrustworthy,Trustworthy","","null","","","","ratingFB","","trustrating_stim/white_mw056.bmp","null","","","","","","","","","","",""
"image-keyboard-response","95","207705","0.0-6.0-1.45","sconelab1","bdp_trlrn","Mon Feb 20 2023 23:41:30 GMT-0500 (Eastern Standard Time)","1006477","Untrustworthy,Trustworthy","","1444","","","","rating","","trustrating_stim/white_mw046.bmp","3","","","","","","","","","","",""
"image-keyboard-response","96","207914","0.0-6.0-2.45","sconelab1","bdp_trlrn","Mon Feb 20 2023 23:41:30 GMT-0500 (Eastern Standard Time)","1006477","Untrustworthy,Trustworthy","","null","","","","ratingFB","","trustrating_stim/white_mw046.bmp","null","","","","","","","","","","",""
"image-keyboard-response","97","209576","0.0-6.0-1.46","sconelab1","bdp_trlrn","Mon Feb 20 2023 23:41:30 GMT-0500 (Eastern Standard Time)","1006477","Untrustworthy,Trustworthy","","1553","","","","rating","","trustrating_stim/white_00223_940128_fb_edt.bmp","5","","","","","","","","","","",""
"image-keyboard-response","98","209780","0.0-6.0-2.46","sconelab1","bdp_trlrn","Mon Feb 20 2023 23:41:30 GMT-0500 (Eastern Standard Time)","1006477","Untrustworthy,Trustworthy","","null","","","","ratingFB","","trustrating_stim/white_00223_940128_fb_edt.bmp","null","","","","","","","","","","",""
"image-keyboard-response","99","210957","0.0-6.0-1.47","sconelab1","bdp_trlrn","Mon Feb 20 2023 23:41:30 GMT-0500 (Eastern Standard Time)","1006477","Untrustworthy,Trustworthy","","1062","","","","rating","","trustrating_stim/white_00785_941205_fb_edt.bmp","3","","","","","","","","","","",""
"image-keyboard-response","100","211162","0.0-6.0-2.47","sconelab1","bdp_trlrn","Mon Feb 20 2023 23:41:30 GMT-0500 (Eastern Standard Time)","1006477","Untrustworthy,Trustworthy","","null","","","","ratingFB","","trustrating_stim/white_00785_941205_fb_edt.bmp","null","","","","","","","","","","",""
"image-keyboard-response","101","213523","0.0-6.0-1.48","sconelab1","bdp_trlrn","Mon Feb 20 2023 23:41:30 GMT-0500 (Eastern Standard Time)","1006477","Untrustworthy,Trustworthy","","2253","","","","rating","","trustrating_stim/white_00577_940928_fa_edt.bmp","5","","","","","","","","","","",""
"image-keyboard-response","102","213727","0.0-6.0-2.48","sconelab1","bdp_trlrn","Mon Feb 20 2023 23:41:30 GMT-0500 (Eastern Standard Time)","1006477","Untrustworthy,Trustworthy","","null","","","","ratingFB","","trustrating_stim/white_00577_940928_fa_edt.bmp","null","","","","","","","","","","",""
"image-keyboard-response","103","215110","0.0-6.0-1.49","sconelab1","bdp_trlrn","Mon Feb 20 2023 23:41:30 GMT-0500 (Eastern Standard Time)","1006477","Untrustworthy,Trustworthy","","1274","","","","rating","","trustrating_stim/white_00299_940422_fa_edt.bmp","5","","","","","","","","","","",""
"image-keyboard-response","104","215318","0.0-6.0-2.49","sconelab1","bdp_trlrn","Mon Feb 20 2023 23:41:30 GMT-0500 (Eastern Standard Time)","1006477","Untrustworthy,Trustworthy","","null","","","","ratingFB","","trustrating_stim/white_00299_940422_fa_edt.bmp","null","","","","","","","","","","",""
"image-keyboard-response","105","216960","0.0-6.0-1.50","sconelab1","bdp_trlrn","Mon Feb 20 2023 23:41:30 GMT-0500 (Eastern Standard Time)","1006477","Untrustworthy,Trustworthy","","1533","","","","rating","","trustrating_stim/white_00340_940422_fa_edt.bmp","3","","","","","","","","","","",""
"image-keyboard-response","106","217174","0.0-6.0-2.50","sconelab1","bdp_trlrn","Mon Feb 20 2023 23:41:30 GMT-0500 (Eastern Standard Time)","1006477","Untrustworthy,Trustworthy","","null","","","","ratingFB","","trustrating_stim/white_00340_940422_fa_edt.bmp","null","","","","","","","","","","",""
"image-keyboard-response","107","218821","0.0-6.0-1.51","sconelab1","bdp_trlrn","Mon Feb 20 2023 23:41:30 GMT-0500 (Eastern Standard Time)","1006477","Untrustworthy,Trustworthy","","1535","","","","rating","","trustrating_stim/white_00120_931230_fa_edt.bmp","6","","","","","","","","","","",""
"image-keyboard-response","108","219023","0.0-6.0-2.51","sconelab1","bdp_trlrn","Mon Feb 20 2023 23:41:30 GMT-0500 (Eastern Standard Time)","1006477","Untrustworthy,Trustworthy","","null","","","","ratingFB","","trustrating_stim/white_00120_931230_fa_edt.bmp","null","","","","","","","","","","",""
"image-keyboard-response","109","220150","0.0-6.0-1.52","sconelab1","bdp_trlrn","Mon Feb 20 2023 23:41:30 GMT-0500 (Eastern Standard Time)","1006477","Untrustworthy,Trustworthy","","1015","","","","rating","","trustrating_stim/white_mw089.bmp","6","","","","","","","","","","",""
"image-keyboard-response","110","220354","0.0-6.0-2.52","sconelab1","bdp_trlrn","Mon Feb 20 2023 23:41:30 GMT-0500 (Eastern Standard Time)","1006477","Untrustworthy,Trustworthy","","null","","","","ratingFB","","trustrating_stim/white_mw089.bmp","null","","","","","","","","","","",""
"image-keyboard-response","111","222140","0.0-6.0-1.53","sconelab1","bdp_trlrn","Mon Feb 20 2023 23:41:30 GMT-0500 (Eastern Standard Time)","1006477","Untrustworthy,Trustworthy","","1680","","","","rating","","trustrating_stim/white_mw099.bmp","4","","","","","","","","","","",""
"image-keyboard-response","112","222347","0.0-6.0-2.53","sconelab1","bdp_trlrn","Mon Feb 20 2023 23:41:30 GMT-0500 (Eastern Standard Time)","1006477","Untrustworthy,Trustworthy","","null","","","","ratingFB","","trustrating_stim/white_mw099.bmp","null","","","","","","","","","","",""
"image-keyboard-response","113","224609","0.0-6.0-1.54","sconelab1","bdp_trlrn","Mon Feb 20 2023 23:41:30 GMT-0500 (Eastern Standard Time)","1006477","Untrustworthy,Trustworthy","","2154","","","","rating","","trustrating_stim/white_mw048.bmp","2","","","","","","","","","","",""
"image-keyboard-response","114","224819","0.0-6.0-2.54","sconelab1","bdp_trlrn","Mon Feb 20 2023 23:41:30 GMT-0500 (Eastern Standard Time)","1006477","Untrustworthy,Trustworthy","","null","","","","ratingFB","","trustrating_stim/white_mw048.bmp","null","","","","","","","","","","",""
"image-keyboard-response","115","226447","0.0-6.0-1.55","sconelab1","bdp_trlrn","Mon Feb 20 2023 23:41:30 GMT-0500 (Eastern Standard Time)","1006477","Untrustworthy,Trustworthy","","1513","","","","rating","","trustrating_stim/white_00807_941205_fb_edt.bmp","6","","","","","","","","","","",""
"image-keyboard-response","116","226651","0.0-6.0-2.55","sconelab1","bdp_trlrn","Mon Feb 20 2023 23:41:30 GMT-0500 (Eastern Standard Time)","1006477","Untrustworthy,Trustworthy","","null","","","","ratingFB","","trustrating_stim/white_00807_941205_fb_edt.bmp","null","","","","","","","","","","",""
"image-keyboard-response","117","228169","0.0-6.0-1.56","sconelab1","bdp_trlrn","Mon Feb 20 2023 23:41:30 GMT-0500 (Eastern Standard Time)","1006477","Untrustworthy,Trustworthy","","1403","","","","rating","","trustrating_stim/white_00129_931230_fb_edt.bmp","7","","","","","","","","","","",""
"image-keyboard-response","118","228379","0.0-6.0-2.56","sconelab1","bdp_trlrn","Mon Feb 20 2023 23:41:30 GMT-0500 (Eastern Standard Time)","1006477","Untrustworthy,Trustworthy","","null","","","","ratingFB","","trustrating_stim/white_00129_931230_fb_edt.bmp","null","","","","","","","","","","",""
"image-keyboard-response","119","239713","0.0-6.0-1.57","sconelab1","bdp_trlrn","Mon Feb 20 2023 23:41:30 GMT-0500 (Eastern Standard Time)","1006477","Untrustworthy,Trustworthy","","11231","","","","rating","","trustrating_stim/white_mw071.bmp","5","","","","","","","","","","",""
"image-keyboard-response","120","239923","0.0-6.0-2.57","sconelab1","bdp_trlrn","Mon Feb 20 2023 23:41:30 GMT-0500 (Eastern Standard Time)","1006477","Untrustworthy,Trustworthy","","null","","","","ratingFB","","trustrating_stim/white_mw071.bmp","null","","","","","","","","","","",""
"image-keyboard-response","121","242221","0.0-6.0-1.58","sconelab1","bdp_trlrn","Mon Feb 20 2023 23:41:30 GMT-0500 (Eastern Standard Time)","1006477","Untrustworthy,Trustworthy","","2187","","","","rating","","trustrating_stim/white_00602_940928_fb_edt.bmp","6","","","","","","","","","","",""
"image-keyboard-response","122","242426","0.0-6.0-2.58","sconelab1","bdp_trlrn","Mon Feb 20 2023 23:41:30 GMT-0500 (Eastern Standard Time)","1006477","Untrustworthy,Trustworthy","","null","","","","ratingFB","","trustrating_stim/white_00602_940928_fb_edt.bmp","null","","","","","","","","","","",""
"image-keyboard-response","123","244332","0.0-6.0-1.59","sconelab1","bdp_trlrn","Mon Feb 20 2023 23:41:30 GMT-0500 (Eastern Standard Time)","1006477","Untrustworthy,Trustworthy","","1792","","","","rating","","trustrating_stim/white_mw097.bmp","2","","","","","","","","","","",""
"image-keyboard-response","124","244538","0.0-6.0-2.59","sconelab1","bdp_trlrn","Mon Feb 20 2023 23:41:30 GMT-0500 (Eastern Standard Time)","1006477","Untrustworthy,Trustworthy","","null","","","","ratingFB","","trustrating_stim/white_mw097.bmp","null","","","","","","","","","","",""
"instructions","125","336445","0.0-7.0","sconelab1","bdp_trlrn","Mon Feb 20 2023 23:41:30 GMT-0500 (Eastern Standard Time)","1006477","Untrustworthy,Trustworthy","[{""page_index"":0,""viewing_time"":91793}]","91793","","","","","","","","","","","","","","","","","",""
"instructions","126","500252","0.0-8.0","sconelab1","bdp_trlrn","Mon Feb 20 2023 23:41:30 GMT-0500 (Eastern Standard Time)","1006477","Untrustworthy,Trustworthy","[{""page_index"":0,""viewing_time"":32979},{""page_index"":1,""viewing_time"":19256},{""page_index"":2,""viewing_time"":10863},{""page_index"":3,""viewing_time"":29846},{""page_index"":4,""viewing_time"":7294},{""page_index"":5,""viewing_time"":13885},{""page_index"":6,""viewing_time"":46510},{""page_index"":7,""viewing_time"":3070}]","163703","","","","","","","","","","","","","","","","","",""
"html-keyboard-response","127","511004","0.0-9.0","sconelab1","bdp_trlrn","Mon Feb 20 2023 23:41:30 GMT-0500 (Eastern Standard Time)","1006477","Untrustworthy,Trustworthy","","10750","","","","","","<div class='header' style='text-align:left; position: absolute; top: 5%; left: 5%;'><small>Task 4 of 5</small></div><div class='instruxDiv'><p><strong>1) What is the minimum number of points you can choose to send to your partner?</strong></p><p>a) 0</p><p>b) 1</p><p>c) 5</p>","B","","","","","","","","","","",""
"html-keyboard-response","128","514358","0.0-10.0","sconelab1","bdp_trlrn","Mon Feb 20 2023 23:41:30 GMT-0500 (Eastern Standard Time)","1006477","Untrustworthy,Trustworthy","","3248","","","","","","<div class='header' style='text-align:left; position: absolute; top: 5%; left: 5%;'><small>Task 4 of 5</small></div><div class='instruxDiv'><p><strong>1) What is the minimum number of points you can choose to send to your partner?</strong></p><p>a) 0</p><p style='color:#00FF00'>b) 1</p><p>c) 5</p><h3 style='color:#00FF00'>Correct!</h3><h3 class='center-content'>The correct response is b).</h3><h3 class='center-content'>The minimum number of points you can choose to send to your partner is 1 point.</h3><p><em>Press SPACEBAR to continue</em></p></div>"," ","","","","","","","","","","",""
"html-keyboard-response","129","521631","0.0-11.0","sconelab1","bdp_trlrn","Mon Feb 20 2023 23:41:30 GMT-0500 (Eastern Standard Time)","1006477","Untrustworthy,Trustworthy","","7169","","","","","","<div class='header' style='text-align:left; position: absolute; top: 5%; left: 5%;'><small>Task 4 of 5</small></div><div class='instruxDiv'><p><strong>2) What is the maximum number of points you can choose to send to your partner?</strong></p><p>a) 8</p><p>b) 5</p><p>c) 3</p>","B","","","","","","","","","","",""
"html-keyboard-response","130","523522","0.0-12.0","sconelab1","bdp_trlrn","Mon Feb 20 2023 23:41:30 GMT-0500 (Eastern Standard Time)","1006477","Untrustworthy,Trustworthy","","1783","","","","","","<div class='header' style='text-align:left; position: absolute; top: 5%; left: 5%;'><small>Task 4 of 5</small></div><div class='instruxDiv'><p><strong>2) What is the maximum number of points you can choose to send to your partner?</strong></p><p>a) 8</p><p style='color:#00FF00'>b) 5</p><p>c) 3</p><h3 style='color:#00FF00'>Correct!</h3><h3 class='center-content'>The correct response is b).</h3><h3 class='center-content'>The maximum number of points you can choose to send to your partner is 5 points.</h3><p><em>Press SPACEBAR to continue</em></p></div>"," ","","","","","","","","","","",""
"html-keyboard-response","131","527150","0.0-13.0","sconelab1","bdp_trlrn","Mon Feb 20 2023 23:41:30 GMT-0500 (Eastern Standard Time)","1006477","Untrustworthy,Trustworthy","","3520","","","","","","<div class='header' style='text-align:left; position: absolute; top: 5%; left: 5%;'><small>Task 4 of 5</small></div><div class='instruxDiv'><p><strong>3) What happens to the amount of points you send to your partner?</strong></p><p>a) Nothing</p><p>b) It doubles</p><p>c) It quadruples</p>","C","","","","","","","","","","",""
"html-keyboard-response","132","528283","0.0-14.0","sconelab1","bdp_trlrn","Mon Feb 20 2023 23:41:30 GMT-0500 (Eastern Standard Time)","1006477","Untrustworthy,Trustworthy","","1030","","","","","","<div class='header' style='text-align:left; position: absolute; top: 5%; left: 5%;'><small>Task 4 of 5</small></div><div class='instruxDiv'><p><strong>3) What happens to the amount of points you send to your partner?</strong></p><p>a) Nothing</p><p>b) It doubles</p><p style='color:#00FF00'>c) It quadruples</p><h3 style='color:#00FF00'>Correct!</h3><h3 class='center-content'>The correct response is c).</h3><h3 class='center-content'>The amount of points you send to your partner quadruples.</h3><p><em>Press SPACEBAR to continue</em></p></div>"," ","","","","","","","","","","",""
"html-keyboard-response","133","540914","0.0-15.0","sconelab1","bdp_trlrn","Mon Feb 20 2023 23:41:30 GMT-0500 (Eastern Standard Time)","1006477","Untrustworthy,Trustworthy","","12528","","","","","","<div class='header' style='text-align:left; position: absolute; top: 5%; left: 5%;'><small>Task 4 of 5</small></div><div class='instruxDiv'><p><strong>4) If you decided to share 4 out of 5 points with your partner, and they decided to share half of the amount they received with you, how many points would you receive back from them on this round?</strong></p><p>a) 16</p><p>b) 0</p><p>c) 8</p>","C","","","","","","","","","","",""
"html-keyboard-response","134","563624","0.0-16.0","sconelab1","bdp_trlrn","Mon Feb 20 2023 23:41:30 GMT-0500 (Eastern Standard Time)","1006477","Untrustworthy,Trustworthy","","22605","","","","","","<div class='header' style='text-align:left; position: absolute; top: 5%; left: 5%;'><small>Task 4 of 5</small></div><div class='instruxDiv'><p><strong>4) If you decided to share 4 out of 5 points with your partner, and they decided to share half of the amount they received with you, how many points would you receive back from them on this round?</strong></p><p>a) 16</p><p>b) 0</p><p style='color:#00FF00'>c) 8</p><h3 style='color:#00FF00'>Correct!</h3><h3 class='center-content'>The correct response is c).</h3><h3 class='center-content'>If you shared 4 out of 5 points with your partner and they decided to share half of the amount they received with you, you would receive 8 points back (i.e. (4 x 4)/2 = 8).</h3><p><em>Press SPACEBAR to continue</em></p></div>"," ","","","","","","","","","","",""
"html-keyboard-response","135","568736","0.0-17.0","sconelab1","bdp_trlrn","Mon Feb 20 2023 23:41:30 GMT-0500 (Eastern Standard Time)","1006477","Untrustworthy,Trustworthy","","null","","","","","","<div class='header' style='text-align:left; position: absolute; top: 5%; left: 5%;'><small>Task 4 of 5</small></div><div class='instruxDiv'><p>Thank you for completing the quiz<p>These are the actual partners you will be interacting with in the next block:<p><div class='tc' align='center'><img class='introPic' src='trustrating_stim/white_mw097.bmp'><br><strong>Devin</strong></div><div class='bl' align='center'><img class='introPic' src='trustrating_stim/white_mw035.bmp'><br><strong>Anthony</strong></div><div class='br' align='center'><img class='introPic' src='trustrating_stim/white_00898_960530_fa_edt.bmp'><br><strong>Marcus</strong></div></div><p>Across <strong>66 rounds</strong> you will interact with each partner <strong>22 times</strong> (in random order).<p style='align:center; color:white'><font <em>Press SPACEBAR to continue</em></p>","null","","","","","","","","","","",""
"instructions","136","580145","0.0-18.0","sconelab1","bdp_trlrn","Mon Feb 20 2023 23:41:30 GMT-0500 (Eastern Standard Time)","1006477","Untrustworthy,Trustworthy","[{""page_index"":0,""viewing_time"":9284},{""page_index"":1,""viewing_time"":2123}]","11408","","","","","","","","","","","","","","","","","",""
"html-keyboard-response","137","588060","0.0-19.0-1.0","sconelab1","bdp_trlrn","Mon Feb 20 2023 23:41:30 GMT-0500 (Eastern Standard Time)","1006477","Untrustworthy,Trustworthy","","7809","","","","decision","","<div class='trialDiv'><img src='trustrating_stim/white_mw097.bmp'><br><font class='baseline'><strong>Devin</strong><p>Choose number of points to send.</font><div class='respPicDiv'><img src='img/responseButtonOffersNo0L.png' class='respPic'></div></div>","4","1","Devin","1","Kept","0.35,0.8","14","0.35","trustrating_stim/white_mw097.bmp","2.5","5","1"
"html-keyboard-response","138","588320","0.0-19.0-2.0","sconelab1","bdp_trlrn","Mon Feb 20 2023 23:41:30 GMT-0500 (Eastern Standard Time)","1006477","Untrustworthy,Trustworthy","","null","","","","decisionFB","","<div class='trialDiv'><img src='trustrating_stim/white_mw097.bmp'><br><font class='baseline'><strong>Devin</strong><p>Choose number of points to send.</font><div class='respPicDiv'><img src='img/responseButtonOffersNo0L4.png' class='respPic'></div></div>","null","1","Devin","1","Kept","0.35,0.8","14","0.35","trustrating_stim/white_mw097.bmp","2.5","1","1"
"html-keyboard-response","139","589324","0.0-19.0-3.0","sconelab1","bdp_trlrn","Mon Feb 20 2023 23:41:30 GMT-0500 (Eastern Standard Time)","1006477","Untrustworthy,Trustworthy","","null","","","","feedback","","<div class='trialDiv'><img src='trustrating_stim/white_mw097.bmp'><br><font class='baseline'><strong>Devin</strong><p>Received: <strong>16</strong></font> &nbsp; &nbsp; &nbsp; &nbsp; &nbsp; &nbsp;<font class='negOutcome'>Shared back: <strong>0</strong></font></font><div class='respPicDiv'><img src='img/responseButtonOffersNo0_wht.png' class='respPic'></div></div>","null","1","Devin","1","Kept","0.35,0.8","14","0.35","trustrating_stim/white_mw097.bmp","2.5","1","1"
"html-keyboard-response","140","598169","0.0-19.0-1.1","sconelab1","bdp_trlrn","Mon Feb 20 2023 23:41:30 GMT-0500 (Eastern Standard Time)","1006477","Untrustworthy,Trustworthy","","8842","","","","decision","","<div class='trialDiv'><img src='trustrating_stim/white_00898_960530_fa_edt.bmp'><br><font class='baseline'><strong>Marcus</strong><p>Choose number of points to send.</font><div class='respPicDiv'><img src='img/responseButtonOffersNo0L.png' class='respPic'></div></div>","4","1","Marcus","10","Shared","0.65,0.2","14","0.65","trustrating_stim/white_00898_960530_fa_edt.bmp","6.5","6","2"
"html-keyboard-response","141","598429","0.0-19.0-2.1","sconelab1","bdp_trlrn","Mon Feb 20 2023 23:41:30 GMT-0500 (Eastern Standard Time)","1006477","Untrustworthy,Trustworthy","","null","","","","decisionFB","","<div class='trialDiv'><img src='trustrating_stim/white_00898_960530_fa_edt.bmp'><br><font class='baseline'><strong>Marcus</strong><p>Choose number of points to send.</font><div class='respPicDiv'><img src='img/responseButtonOffersNo0L4.png' class='respPic'></div></div>","null","1","Marcus","10","Shared","0.65,0.2","14","0.65","trustrating_stim/white_00898_960530_fa_edt.bmp","6.5","2","2"
"html-keyboard-response","142","599435","0.0-19.0-3.1","sconelab1","bdp_trlrn","Mon Feb 20 2023 23:41:30 GMT-0500 (Eastern Standard Time)","1006477","Untrustworthy,Trustworthy","","null","","","","feedback","","<div class='trialDiv'><img src='trustrating_stim/white_00898_960530_fa_edt.bmp'><br><font class='baseline'><strong>Marcus</strong><p>Received: <strong>16</strong></font> &nbsp; &nbsp; &nbsp; &nbsp; &nbsp; &nbsp;<font class='posOutcome'>Shared back: <strong>8</strong></font></font><div class='respPicDiv'><img src='img/responseButtonOffersNo0_wht.png' class='respPic'></div></div>","null","1","Marcus","10","Shared","0.65,0.2","14","0.65","trustrating_stim/white_00898_960530_fa_edt.bmp","6.5","10","2"
"html-keyboard-response","143","600773","0.0-19.0-1.2","sconelab1","bdp_trlrn","Mon Feb 20 2023 23:41:30 GMT-0500 (Eastern Standard Time)","1006477","Untrustworthy,Trustworthy","","1335","","","","decision","","<div class='trialDiv'><img src='trustrating_stim/white_mw035.bmp'><br><font class='baseline'><strong>Anthony</strong><p>Choose number of points to send.</font><div class='respPicDiv'><img src='img/responseButtonOffersNo0L.png' class='respPic'></div></div>","4","1","Anthony","5","Kept","0.2,0.8","14","0.2","trustrating_stim/white_mw035.bmp","4.5","15","3"
"html-keyboard-response","144","601031","0.0-19.0-2.2","sconelab1","bdp_trlrn","Mon Feb 20 2023 23:41:30 GMT-0500 (Eastern Standard Time)","1006477","Untrustworthy,Trustworthy","","null","","","","decisionFB","","<div class='trialDiv'><img src='trustrating_stim/white_mw035.bmp'><br><font class='baseline'><strong>Anthony</strong><p>Choose number of points to send.</font><div class='respPicDiv'><img src='img/responseButtonOffersNo0L4.png' class='respPic'></div></div>","null","1","Anthony","5","Kept","0.2,0.8","14","0.2","trustrating_stim/white_mw035.bmp","4.5","11","3"
"html-keyboard-response","145","602039","0.0-19.0-3.2","sconelab1","bdp_trlrn","Mon Feb 20 2023 23:41:30 GMT-0500 (Eastern Standard Time)","1006477","Untrustworthy,Trustworthy","","null","","","","feedback","","<div class='trialDiv'><img src='trustrating_stim/white_mw035.bmp'><br><font class='baseline'><strong>Anthony</strong><p>Received: <strong>16</strong></font> &nbsp; &nbsp; &nbsp; &nbsp; &nbsp; &nbsp;<font class='negOutcome'>Shared back: <strong>0</strong></font></font><div class='respPicDiv'><img src='img/responseButtonOffersNo0_wht.png' class='respPic'></div></div>","null","1","Anthony","5","Kept","0.2,0.8","14","0.2","trustrating_stim/white_mw035.bmp","4.5","11","3"
"html-keyboard-response","146","605218","0.0-19.0-1.3","sconelab1","bdp_trlrn","Mon Feb 20 2023 23:41:30 GMT-0500 (Eastern Standard Time)","1006477","Untrustworthy,Trustworthy","","3176","","","","decision","","<div class='trialDiv'><img src='trustrating_stim/white_mw097.bmp'><br><font class='baseline'><strong>Devin</strong><p>Choose number of points to send.</font><div class='respPicDiv'><img src='img/responseButtonOffersNo0L.png' class='respPic'></div></div>","1","2","Devin","1","Shared","0.35,0.8","14","0.35","trustrating_stim/white_mw097.bmp","2.5","16","4"
"html-keyboard-response","147","605479","0.0-19.0-2.3","sconelab1","bdp_trlrn","Mon Feb 20 2023 23:41:30 GMT-0500 (Eastern Standard Time)","1006477","Untrustworthy,Trustworthy","","null","","","","decisionFB","","<div class='trialDiv'><img src='trustrating_stim/white_mw097.bmp'><br><font class='baseline'><strong>Devin</strong><p>Choose number of points to send.</font><div class='respPicDiv'><img src='img/responseButtonOffersNo0L1.png' class='respPic'></div></div>","null","2","Devin","1","Shared","0.35,0.8","14","0.35","trustrating_stim/white_mw097.bmp","2.5","15","4"
"html-keyboard-response","148","606487","0.0-19.0-3.3","sconelab1","bdp_trlrn","Mon Feb 20 2023 23:41:30 GMT-0500 (Eastern Standard Time)","1006477","Untrustworthy,Trustworthy","","null","","","","feedback","","<div class='trialDiv'><img src='trustrating_stim/white_mw097.bmp'><br><font class='baseline'><strong>Devin</strong><p>Received: <strong>4</strong></font> &nbsp; &nbsp; &nbsp; &nbsp; &nbsp; &nbsp;<font class='posOutcome'>Shared back: <strong>2</strong></font></font><div class='respPicDiv'><img src='img/responseButtonOffersNo0_wht.png' class='respPic'></div></div>","null","2","Devin","1","Shared","0.35,0.8","14","0.35","trustrating_stim/white_mw097.bmp","2.5","17","4"
"html-keyboard-response","149","609226","0.0-19.0-1.4","sconelab1","bdp_trlrn","Mon Feb 20 2023 23:41:30 GMT-0500 (Eastern Standard Time)","1006477","Untrustworthy,Trustworthy","","2737","","","","decision","","<div class='trialDiv'><img src='trustrating_stim/white_mw035.bmp'><br><font class='baseline'><strong>Anthony</strong><p>Choose number of points to send.</font><div class='respPicDiv'><img src='img/responseButtonOffersNo0L.png' class='respPic'></div></div>","1","2","Anthony","5","Kept","0.2,0.8","14","0.2","trustrating_stim/white_mw035.bmp","4.5","22","5"
"html-keyboard-response","150","609489","0.0-19.0-2.4","sconelab1","bdp_trlrn","Mon Feb 20 2023 23:41:30 GMT-0500 (Eastern Standard Time)","1006477","Untrustworthy,Trustworthy","","null","","","","decisionFB","","<div class='trialDiv'><img src='trustrating_stim/white_mw035.bmp'><br><font class='baseline'><strong>Anthony</strong><p>Choose number of points to send.</font><div class='respPicDiv'><img src='img/responseButtonOffersNo0L1.png' class='respPic'></div></div>","null","2","Anthony","5","Kept","0.2,0.8","14","0.2","trustrating_stim/white_mw035.bmp","4.5","21","5"
"html-keyboard-response","151","610492","0.0-19.0-3.4","sconelab1","bdp_trlrn","Mon Feb 20 2023 23:41:30 GMT-0500 (Eastern Standard Time)","1006477","Untrustworthy,Trustworthy","","null","","","","feedback","","<div class='trialDiv'><img src='trustrating_stim/white_mw035.bmp'><br><font class='baseline'><strong>Anthony</strong><p>Received: <strong>4</strong></font> &nbsp; &nbsp; &nbsp; &nbsp; &nbsp; &nbsp;<font class='negOutcome'>Shared back: <strong>0</strong></font></font><div class='respPicDiv'><img src='img/responseButtonOffersNo0_wht.png' class='respPic'></div></div>","null","2","Anthony","5","Kept","0.2,0.8","14","0.2","trustrating_stim/white_mw035.bmp","4.5","21","5"
"html-keyboard-response","152","612607","0.0-19.0-1.5","sconelab1","bdp_trlrn","Mon Feb 20 2023 23:41:30 GMT-0500 (Eastern Standard Time)","1006477","Untrustworthy,Trustworthy","","2112","","","","decision","","<div class='trialDiv'><img src='trustrating_stim/white_00898_960530_fa_edt.bmp'><br><font class='baseline'><strong>Marcus</strong><p>Choose number of points to send.</font><div class='respPicDiv'><img src='img/responseButtonOffersNo0L.png' class='respPic'></div></div>","5","2","Marcus","10","Kept","0.65,0.2","14","0.65","trustrating_stim/white_00898_960530_fa_edt.bmp","6.5","26","6"
"html-keyboard-response","153","612864","0.0-19.0-2.5","sconelab1","bdp_trlrn","Mon Feb 20 2023 23:41:30 GMT-0500 (Eastern Standard Time)","1006477","Untrustworthy,Trustworthy","","null","","","","decisionFB","","<div class='trialDiv'><img src='trustrating_stim/white_00898_960530_fa_edt.bmp'><br><font class='baseline'><strong>Marcus</strong><p>Choose number of points to send.</font><div class='respPicDiv'><img src='img/responseButtonOffersNo0L5.png' class='respPic'></div></div>","null","2","Marcus","10","Kept","0.65,0.2","14","0.65","trustrating_stim/white_00898_960530_fa_edt.bmp","6.5","21","6"
"html-keyboard-response","154","613873","0.0-19.0-3.5","sconelab1","bdp_trlrn","Mon Feb 20 2023 23:41:30 GMT-0500 (Eastern Standard Time)","1006477","Untrustworthy,Trustworthy","","null","","","","feedback","","<div class='trialDiv'><img src='trustrating_stim/white_00898_960530_fa_edt.bmp'><br><font class='baseline'><strong>Marcus</strong><p>Received: <strong>20</strong></font> &nbsp; &nbsp; &nbsp; &nbsp; &nbsp; &nbsp;<font class='negOutcome'>Shared back: <strong>0</strong></font></font><div class='respPicDiv'><img src='img/responseButtonOffersNo0_wht.png' class='respPic'></div></div>","null","2","Marcus","10","Kept","0.65,0.2","14","0.65","trustrating_stim/white_00898_960530_fa_edt.bmp","6.5","21","6"
"html-keyboard-response","155","615421","0.0-19.0-1.6","sconelab1","bdp_trlrn","Mon Feb 20 2023 23:41:30 GMT-0500 (Eastern Standard Time)","1006477","Untrustworthy,Trustworthy","","1545","","","","decision","","<div class='trialDiv'><img src='trustrating_stim/white_mw035.bmp'><br><font class='baseline'><strong>Anthony</strong><p>Choose number of points to send.</font><div class='respPicDiv'><img src='img/responseButtonOffersNo0L.png' class='respPic'></div></div>","1","3","Anthony","5","Kept","0.2,0.8","14","0.2","trustrating_stim/white_mw035.bmp","4.5","26","7"
"html-keyboard-response","156","615678","0.0-19.0-2.6","sconelab1","bdp_trlrn","Mon Feb 20 2023 23:41:30 GMT-0500 (Eastern Standard Time)","1006477","Untrustworthy,Trustworthy","","null","","","","decisionFB","","<div class='trialDiv'><img src='trustrating_stim/white_mw035.bmp'><br><font class='baseline'><strong>Anthony</strong><p>Choose number of points to send.</font><div class='respPicDiv'><img src='img/responseButtonOffersNo0L1.png' class='respPic'></div></div>","null","3","Anthony","5","Kept","0.2,0.8","14","0.2","trustrating_stim/white_mw035.bmp","4.5","25","7"
"html-keyboard-response","157","616689","0.0-19.0-3.6","sconelab1","bdp_trlrn","Mon Feb 20 2023 23:41:30 GMT-0500 (Eastern Standard Time)","1006477","Untrustworthy,Trustworthy","","null","","","","feedback","","<div class='trialDiv'><img src='trustrating_stim/white_mw035.bmp'><br><font class='baseline'><strong>Anthony</strong><p>Received: <strong>4</strong></font> &nbsp; &nbsp; &nbsp; &nbsp; &nbsp; &nbsp;<font class='negOutcome'>Shared back: <strong>0</strong></font></font><div class='respPicDiv'><img src='img/responseButtonOffersNo0_wht.png' class='respPic'></div></div>","null","3","Anthony","5","Kept","0.2,0.8","14","0.2","trustrating_stim/white_mw035.bmp","4.5","25","7"
"html-keyboard-response","158","619250","0.0-19.0-1.7","sconelab1","bdp_trlrn","Mon Feb 20 2023 23:41:30 GMT-0500 (Eastern Standard Time)","1006477","Untrustworthy,Trustworthy","","2559","","","","decision","","<div class='trialDiv'><img src='trustrating_stim/white_mw097.bmp'><br><font class='baseline'><strong>Devin</strong><p>Choose number of points to send.</font><div class='respPicDiv'><img src='img/responseButtonOffersNo0L.png' class='respPic'></div></div>","2","3","Devin","1","Shared","0.35,0.8","14","0.35","trustrating_stim/white_mw097.bmp","2.5","30","8"
"html-keyboard-response","159","619512","0.0-19.0-2.7","sconelab1","bdp_trlrn","Mon Feb 20 2023 23:41:30 GMT-0500 (Eastern Standard Time)","1006477","Untrustworthy,Trustworthy","","null","","","","decisionFB","","<div class='trialDiv'><img src='trustrating_stim/white_mw097.bmp'><br><font class='baseline'><strong>Devin</strong><p>Choose number of points to send.</font><div class='respPicDiv'><img src='img/responseButtonOffersNo0L2.png' class='respPic'></div></div>","null","3","Devin","1","Shared","0.35,0.8","14","0.35","trustrating_stim/white_mw097.bmp","2.5","28","8"
"html-keyboard-response","160","620518","0.0-19.0-3.7","sconelab1","bdp_trlrn","Mon Feb 20 2023 23:41:30 GMT-0500 (Eastern Standard Time)","1006477","Untrustworthy,Trustworthy","","null","","","","feedback","","<div class='trialDiv'><img src='trustrating_stim/white_mw097.bmp'><br><font class='baseline'><strong>Devin</strong><p>Received: <strong>8</strong></font> &nbsp; &nbsp; &nbsp; &nbsp; &nbsp; &nbsp;<font class='posOutcome'>Shared back: <strong>4</strong></font></font><div class='respPicDiv'><img src='img/responseButtonOffersNo0_wht.png' class='respPic'></div></div>","null","3","Devin","1","Shared","0.35,0.8","14","0.35","trustrating_stim/white_mw097.bmp","2.5","32","8"
"html-keyboard-response","161","621655","0.0-19.0-1.8","sconelab1","bdp_trlrn","Mon Feb 20 2023 23:41:30 GMT-0500 (Eastern Standard Time)","1006477","Untrustworthy,Trustworthy","","1133","","","","decision","","<div class='trialDiv'><img src='trustrating_stim/white_00898_960530_fa_edt.bmp'><br><font class='baseline'><strong>Marcus</strong><p>Choose number of points to send.</font><div class='respPicDiv'><img src='img/responseButtonOffersNo0L.png' class='respPic'></div></div>","3","3","Marcus","10","Shared","0.65,0.2","14","0.65","trustrating_stim/white_00898_960530_fa_edt.bmp","6.5","37","9"
"html-keyboard-response","162","621911","0.0-19.0-2.8","sconelab1","bdp_trlrn","Mon Feb 20 2023 23:41:30 GMT-0500 (Eastern Standard Time)","1006477","Untrustworthy,Trustworthy","","null","","","","decisionFB","","<div class='trialDiv'><img src='trustrating_stim/white_00898_960530_fa_edt.bmp'><br><font class='baseline'><strong>Marcus</strong><p>Choose number of points to send.</font><div class='respPicDiv'><img src='img/responseButtonOffersNo0L3.png' class='respPic'></div></div>","null","3","Marcus","10","Shared","0.65,0.2","14","0.65","trustrating_stim/white_00898_960530_fa_edt.bmp","6.5","34","9"
"html-keyboard-response","163","622917","0.0-19.0-3.8","sconelab1","bdp_trlrn","Mon Feb 20 2023 23:41:30 GMT-0500 (Eastern Standard Time)","1006477","Untrustworthy,Trustworthy","","null","","","","feedback","","<div class='trialDiv'><img src='trustrating_stim/white_00898_960530_fa_edt.bmp'><br><font class='baseline'><strong>Marcus</strong><p>Received: <strong>12</strong></font> &nbsp; &nbsp; &nbsp; &nbsp; &nbsp; &nbsp;<font class='posOutcome'>Shared back: <strong>6</strong></font></font><div class='respPicDiv'><img src='img/responseButtonOffersNo0_wht.png' class='respPic'></div></div>","null","3","Marcus","10","Shared","0.65,0.2","14","0.65","trustrating_stim/white_00898_960530_fa_edt.bmp","6.5","40","9"
"html-keyboard-response","164","626966","0.0-19.0-1.9","sconelab1","bdp_trlrn","Mon Feb 20 2023 23:41:30 GMT-0500 (Eastern Standard Time)","1006477","Untrustworthy,Trustworthy","","4044","","","","decision","","<div class='trialDiv'><img src='trustrating_stim/white_mw035.bmp'><br><font class='baseline'><strong>Anthony</strong><p>Choose number of points to send.</font><div class='respPicDiv'><img src='img/responseButtonOffersNo0L.png' class='respPic'></div></div>","1","4","Anthony","5","Kept","0.2,0.8","14","0.2","trustrating_stim/white_mw035.bmp","4.5","45","10"
"html-keyboard-response","165","627223","0.0-19.0-2.9","sconelab1","bdp_trlrn","Mon Feb 20 2023 23:41:30 GMT-0500 (Eastern Standard Time)","1006477","Untrustworthy,Trustworthy","","null","","","","decisionFB","","<div class='trialDiv'><img src='trustrating_stim/white_mw035.bmp'><br><font class='baseline'><strong>Anthony</strong><p>Choose number of points to send.</font><div class='respPicDiv'><img src='img/responseButtonOffersNo0L1.png' class='respPic'></div></div>","null","4","Anthony","5","Kept","0.2,0.8","14","0.2","trustrating_stim/white_mw035.bmp","4.5","44","10"
"html-keyboard-response","166","628230","0.0-19.0-3.9","sconelab1","bdp_trlrn","Mon Feb 20 2023 23:41:30 GMT-0500 (Eastern Standard Time)","1006477","Untrustworthy,Trustworthy","","null","","","","feedback","","<div class='trialDiv'><img src='trustrating_stim/white_mw035.bmp'><br><font class='baseline'><strong>Anthony</strong><p>Received: <strong>4</strong></font> &nbsp; &nbsp; &nbsp; &nbsp; &nbsp; &nbsp;<font class='negOutcome'>Shared back: <strong>0</strong></font></font><div class='respPicDiv'><img src='img/responseButtonOffersNo0_wht.png' class='respPic'></div></div>","null","4","Anthony","5","Kept","0.2,0.8","14","0.2","trustrating_stim/white_mw035.bmp","4.5","44","10"
"html-keyboard-response","167","629844","0.0-19.0-1.10","sconelab1","bdp_trlrn","Mon Feb 20 2023 23:41:30 GMT-0500 (Eastern Standard Time)","1006477","Untrustworthy,Trustworthy","","1611","","","","decision","","<div class='trialDiv'><img src='trustrating_stim/white_00898_960530_fa_edt.bmp'><br><font class='baseline'><strong>Marcus</strong><p>Choose number of points to send.</font><div class='respPicDiv'><img src='img/responseButtonOffersNo0L.png' class='respPic'></div></div>","3","4","Marcus","10","Shared","0.65,0.2","14","0.65","trustrating_stim/white_00898_960530_fa_edt.bmp","6.5","49","11"
"html-keyboard-response","168","630102","0.0-19.0-2.10","sconelab1","bdp_trlrn","Mon Feb 20 2023 23:41:30 GMT-0500 (Eastern Standard Time)","1006477","Untrustworthy,Trustworthy","","null","","","","decisionFB","","<div class='trialDiv'><img src='trustrating_stim/white_00898_960530_fa_edt.bmp'><br><font class='baseline'><strong>Marcus</strong><p>Choose number of points to send.</font><div class='respPicDiv'><img src='img/responseButtonOffersNo0L3.png' class='respPic'></div></div>","null","4","Marcus","10","Shared","0.65,0.2","14","0.65","trustrating_stim/white_00898_960530_fa_edt.bmp","6.5","46","11"
"html-keyboard-response","169","631111","0.0-19.0-3.10","sconelab1","bdp_trlrn","Mon Feb 20 2023 23:41:30 GMT-0500 (Eastern Standard Time)","1006477","Untrustworthy,Trustworthy","","null","","","","feedback","","<div class='trialDiv'><img src='trustrating_stim/white_00898_960530_fa_edt.bmp'><br><font class='baseline'><strong>Marcus</strong><p>Received: <strong>12</strong></font> &nbsp; &nbsp; &nbsp; &nbsp; &nbsp; &nbsp;<font class='posOutcome'>Shared back: <strong>6</strong></font></font><div class='respPicDiv'><img src='img/responseButtonOffersNo0_wht.png' class='respPic'></div></div>","null","4","Marcus","10","Shared","0.65,0.2","14","0.65","trustrating_stim/white_00898_960530_fa_edt.bmp","6.5","52","11"
"html-keyboard-response","170","631850","0.0-19.0-1.11","sconelab1","bdp_trlrn","Mon Feb 20 2023 23:41:30 GMT-0500 (Eastern Standard Time)","1006477","Untrustworthy,Trustworthy","","737","","","","decision","","<div class='trialDiv'><img src='trustrating_stim/white_mw097.bmp'><br><font class='baseline'><strong>Devin</strong><p>Choose number of points to send.</font><div class='respPicDiv'><img src='img/responseButtonOffersNo0L.png' class='respPic'></div></div>","3","4","Devin","1","Shared","0.35,0.8","14","0.35","trustrating_stim/white_mw097.bmp","2.5","57","12"
"html-keyboard-response","171","632111","0.0-19.0-2.11","sconelab1","bdp_trlrn","Mon Feb 20 2023 23:41:30 GMT-0500 (Eastern Standard Time)","1006477","Untrustworthy,Trustworthy","","null","","","","decisionFB","","<div class='trialDiv'><img src='trustrating_stim/white_mw097.bmp'><br><font class='baseline'><strong>Devin</strong><p>Choose number of points to send.</font><div class='respPicDiv'><img src='img/responseButtonOffersNo0L3.png' class='respPic'></div></div>","null","4","Devin","1","Shared","0.35,0.8","14","0.35","trustrating_stim/white_mw097.bmp","2.5","54","12"
"html-keyboard-response","172","633117","0.0-19.0-3.11","sconelab1","bdp_trlrn","Mon Feb 20 2023 23:41:30 GMT-0500 (Eastern Standard Time)","1006477","Untrustworthy,Trustworthy","","null","","","","feedback","","<div class='trialDiv'><img src='trustrating_stim/white_mw097.bmp'><br><font class='baseline'><strong>Devin</strong><p>Received: <strong>12</strong></font> &nbsp; &nbsp; &nbsp; &nbsp; &nbsp; &nbsp;<font class='posOutcome'>Shared back: <strong>6</strong></font></font><div class='respPicDiv'><img src='img/responseButtonOffersNo0_wht.png' class='respPic'></div></div>","null","4","Devin","1","Shared","0.35,0.8","14","0.35","trustrating_stim/white_mw097.bmp","2.5","60","12"
"html-keyboard-response","173","633963","0.0-19.0-1.12","sconelab1","bdp_trlrn","Mon Feb 20 2023 23:41:30 GMT-0500 (Eastern Standard Time)","1006477","Untrustworthy,Trustworthy","","845","","","","decision","","<div class='trialDiv'><img src='trustrating_stim/white_00898_960530_fa_edt.bmp'><br><font class='baseline'><strong>Marcus</strong><p>Choose number of points to send.</font><div class='respPicDiv'><img src='img/responseButtonOffersNo0L.png' class='respPic'></div></div>","3","5","Marcus","10","Shared","0.65,0.2","14","0.65","trustrating_stim/white_00898_960530_fa_edt.bmp","6.5","65","13"
"html-keyboard-response","174","634222","0.0-19.0-2.12","sconelab1","bdp_trlrn","Mon Feb 20 2023 23:41:30 GMT-0500 (Eastern Standard Time)","1006477","Untrustworthy,Trustworthy","","null","","","","decisionFB","","<div class='trialDiv'><img src='trustrating_stim/white_00898_960530_fa_edt.bmp'><br><font class='baseline'><strong>Marcus</strong><p>Choose number of points to send.</font><div class='respPicDiv'><img src='img/responseButtonOffersNo0L3.png' class='respPic'></div></div>","null","5","Marcus","10","Shared","0.65,0.2","14","0.65","trustrating_stim/white_00898_960530_fa_edt.bmp","6.5","62","13"
"html-keyboard-response","175","635224","0.0-19.0-3.12","sconelab1","bdp_trlrn","Mon Feb 20 2023 23:41:30 GMT-0500 (Eastern Standard Time)","1006477","Untrustworthy,Trustworthy","","null","","","","feedback","","<div class='trialDiv'><img src='trustrating_stim/white_00898_960530_fa_edt.bmp'><br><font class='baseline'><strong>Marcus</strong><p>Received: <strong>12</strong></font> &nbsp; &nbsp; &nbsp; &nbsp; &nbsp; &nbsp;<font class='posOutcome'>Shared back: <strong>6</strong></font></font><div class='respPicDiv'><img src='img/responseButtonOffersNo0_wht.png' class='respPic'></div></div>","null","5","Marcus","10","Shared","0.65,0.2","14","0.65","trustrating_stim/white_00898_960530_fa_edt.bmp","6.5","68","13"
"html-keyboard-response","176","635949","0.0-19.0-1.13","sconelab1","bdp_trlrn","Mon Feb 20 2023 23:41:30 GMT-0500 (Eastern Standard Time)","1006477","Untrustworthy,Trustworthy","","724","","","","decision","","<div class='trialDiv'><img src='trustrating_stim/white_mw035.bmp'><br><font class='baseline'><strong>Anthony</strong><p>Choose number of points to send.</font><div class='respPicDiv'><img src='img/responseButtonOffersNo0L.png' class='respPic'></div></div>","1","5","Anthony","5","Kept","0.2,0.8","14","0.2","trustrating_stim/white_mw035.bmp","4.5","73","14"
"html-keyboard-response","177","636207","0.0-19.0-2.13","sconelab1","bdp_trlrn","Mon Feb 20 2023 23:41:30 GMT-0500 (Eastern Standard Time)","1006477","Untrustworthy,Trustworthy","","null","","","","decisionFB","","<div class='trialDiv'><img src='trustrating_stim/white_mw035.bmp'><br><font class='baseline'><strong>Anthony</strong><p>Choose number of points to send.</font><div class='respPicDiv'><img src='img/responseButtonOffersNo0L1.png' class='respPic'></div></div>","null","5","Anthony","5","Kept","0.2,0.8","14","0.2","trustrating_stim/white_mw035.bmp","4.5","72","14"
"html-keyboard-response","178","637212","0.0-19.0-3.13","sconelab1","bdp_trlrn","Mon Feb 20 2023 23:41:30 GMT-0500 (Eastern Standard Time)","1006477","Untrustworthy,Trustworthy","","null","","","","feedback","","<div class='trialDiv'><img src='trustrating_stim/white_mw035.bmp'><br><font class='baseline'><strong>Anthony</strong><p>Received: <strong>4</strong></font> &nbsp; &nbsp; &nbsp; &nbsp; &nbsp; &nbsp;<font class='negOutcome'>Shared back: <strong>0</strong></font></font><div class='respPicDiv'><img src='img/responseButtonOffersNo0_wht.png' class='respPic'></div></div>","null","5","Anthony","5","Kept","0.2,0.8","14","0.2","trustrating_stim/white_mw035.bmp","4.5","72","14"
"html-keyboard-response","179","639117","0.0-19.0-1.14","sconelab1","bdp_trlrn","Mon Feb 20 2023 23:41:30 GMT-0500 (Eastern Standard Time)","1006477","Untrustworthy,Trustworthy","","1904","","","","decision","","<div class='trialDiv'><img src='trustrating_stim/white_mw097.bmp'><br><font class='baseline'><strong>Devin</strong><p>Choose number of points to send.</font><div class='respPicDiv'><img src='img/responseButtonOffersNo0L.png' class='respPic'></div></div>","3","5","Devin","1","Kept","0.35,0.8","14","0.35","trustrating_stim/white_mw097.bmp","2.5","77","15"
"html-keyboard-response","180","639371","0.0-19.0-2.14","sconelab1","bdp_trlrn","Mon Feb 20 2023 23:41:30 GMT-0500 (Eastern Standard Time)","1006477","Untrustworthy,Trustworthy","","null","","","","decisionFB","","<div class='trialDiv'><img src='trustrating_stim/white_mw097.bmp'><br><font class='baseline'><strong>Devin</strong><p>Choose number of points to send.</font><div class='respPicDiv'><img src='img/responseButtonOffersNo0L3.png' class='respPic'></div></div>","null","5","Devin","1","Kept","0.35,0.8","14","0.35","trustrating_stim/white_mw097.bmp","2.5","74","15"
"html-keyboard-response","181","640379","0.0-19.0-3.14","sconelab1","bdp_trlrn","Mon Feb 20 2023 23:41:30 GMT-0500 (Eastern Standard Time)","1006477","Untrustworthy,Trustworthy","","null","","","","feedback","","<div class='trialDiv'><img src='trustrating_stim/white_mw097.bmp'><br><font class='baseline'><strong>Devin</strong><p>Received: <strong>12</strong></font> &nbsp; &nbsp; &nbsp; &nbsp; &nbsp; &nbsp;<font class='negOutcome'>Shared back: <strong>0</strong></font></font><div class='respPicDiv'><img src='img/responseButtonOffersNo0_wht.png' class='respPic'></div></div>","null","5","Devin","1","Kept","0.35,0.8","14","0.35","trustrating_stim/white_mw097.bmp","2.5","74","15"
"html-keyboard-response","182","641714","0.0-19.0-1.15","sconelab1","bdp_trlrn","Mon Feb 20 2023 23:41:30 GMT-0500 (Eastern Standard Time)","1006477","Untrustworthy,Trustworthy","","1334","","","","decision","","<div class='trialDiv'><img src='trustrating_stim/white_00898_960530_fa_edt.bmp'><br><font class='baseline'><strong>Marcus</strong><p>Choose number of points to send.</font><div class='respPicDiv'><img src='img/responseButtonOffersNo0L.png' class='respPic'></div></div>","5","6","Marcus","10","Shared","0.65,0.2","14","0.65","trustrating_stim/white_00898_960530_fa_edt.bmp","6.5","79","16"
"html-keyboard-response","183","641970","0.0-19.0-2.15","sconelab1","bdp_trlrn","Mon Feb 20 2023 23:41:30 GMT-0500 (Eastern Standard Time)","1006477","Untrustworthy,Trustworthy","","null","","","","decisionFB","","<div class='trialDiv'><img src='trustrating_stim/white_00898_960530_fa_edt.bmp'><br><font class='baseline'><strong>Marcus</strong><p>Choose number of points to send.</font><div class='respPicDiv'><img src='img/responseButtonOffersNo0L5.png' class='respPic'></div></div>","null","6","Marcus","10","Shared","0.65,0.2","14","0.65","trustrating_stim/white_00898_960530_fa_edt.bmp","6.5","74","16"
"html-keyboard-response","184","642981","0.0-19.0-3.15","sconelab1","bdp_trlrn","Mon Feb 20 2023 23:41:30 GMT-0500 (Eastern Standard Time)","1006477","Untrustworthy,Trustworthy","","null","","","","feedback","","<div class='trialDiv'><img src='trustrating_stim/white_00898_960530_fa_edt.bmp'><br><font class='baseline'><strong>Marcus</strong><p>Received: <strong>20</strong></font> &nbsp; &nbsp; &nbsp; &nbsp; &nbsp; &nbsp;<font class='posOutcome'>Shared back: <strong>10</strong></font></font><div class='respPicDiv'><img src='img/responseButtonOffersNo0_wht.png' class='respPic'></div></div>","null","6","Marcus","10","Shared","0.65,0.2","14","0.65","trustrating_stim/white_00898_960530_fa_edt.bmp","6.5","84","16"
"html-keyboard-response","185","644104","0.0-19.0-1.16","sconelab1","bdp_trlrn","Mon Feb 20 2023 23:41:30 GMT-0500 (Eastern Standard Time)","1006477","Untrustworthy,Trustworthy","","1121","","","","decision","","<div class='trialDiv'><img src='trustrating_stim/white_mw035.bmp'><br><font class='baseline'><strong>Anthony</strong><p>Choose number of points to send.</font><div class='respPicDiv'><img src='img/responseButtonOffersNo0L.png' class='respPic'></div></div>","1","6","Anthony","5","Shared","0.2,0.8","14","0.2","trustrating_stim/white_mw035.bmp","4.5","89","17"
"html-keyboard-response","186","644367","0.0-19.0-2.16","sconelab1","bdp_trlrn","Mon Feb 20 2023 23:41:30 GMT-0500 (Eastern Standard Time)","1006477","Untrustworthy,Trustworthy","","null","","","","decisionFB","","<div class='trialDiv'><img src='trustrating_stim/white_mw035.bmp'><br><font class='baseline'><strong>Anthony</strong><p>Choose number of points to send.</font><div class='respPicDiv'><img src='img/responseButtonOffersNo0L1.png' class='respPic'></div></div>","null","6","Anthony","5","Shared","0.2,0.8","14","0.2","trustrating_stim/white_mw035.bmp","4.5","88","17"
"html-keyboard-response","187","645375","0.0-19.0-3.16","sconelab1","bdp_trlrn","Mon Feb 20 2023 23:41:30 GMT-0500 (Eastern Standard Time)","1006477","Untrustworthy,Trustworthy","","null","","","","feedback","","<div class='trialDiv'><img src='trustrating_stim/white_mw035.bmp'><br><font class='baseline'><strong>Anthony</strong><p>Received: <strong>4</strong></font> &nbsp; &nbsp; &nbsp; &nbsp; &nbsp; &nbsp;<font class='posOutcome'>Shared back: <strong>2</strong></font></font><div class='respPicDiv'><img src='img/responseButtonOffersNo0_wht.png' class='respPic'></div></div>","null","6","Anthony","5","Shared","0.2,0.8","14","0.2","trustrating_stim/white_mw035.bmp","4.5","90","17"
"html-keyboard-response","188","648382","0.0-19.0-1.17","sconelab1","bdp_trlrn","Mon Feb 20 2023 23:41:30 GMT-0500 (Eastern Standard Time)","1006477","Untrustworthy,Trustworthy","","3005","","","","decision","","<div class='trialDiv'><img src='trustrating_stim/white_mw097.bmp'><br><font class='baseline'><strong>Devin</strong><p>Choose number of points to send.</font><div class='respPicDiv'><img src='img/responseButtonOffersNo0L.png' class='respPic'></div></div>","3","6","Devin","1","Shared","0.35,0.8","14","0.35","trustrating_stim/white_mw097.bmp","2.5","95","18"
"html-keyboard-response","189","648635","0.0-19.0-2.17","sconelab1","bdp_trlrn","Mon Feb 20 2023 23:41:30 GMT-0500 (Eastern Standard Time)","1006477","Untrustworthy,Trustworthy","","null","","","","decisionFB","","<div class='trialDiv'><img src='trustrating_stim/white_mw097.bmp'><br><font class='baseline'><strong>Devin</strong><p>Choose number of points to send.</font><div class='respPicDiv'><img src='img/responseButtonOffersNo0L3.png' class='respPic'></div></div>","null","6","Devin","1","Shared","0.35,0.8","14","0.35","trustrating_stim/white_mw097.bmp","2.5","92","18"
"html-keyboard-response","190","649646","0.0-19.0-3.17","sconelab1","bdp_trlrn","Mon Feb 20 2023 23:41:30 GMT-0500 (Eastern Standard Time)","1006477","Untrustworthy,Trustworthy","","null","","","","feedback","","<div class='trialDiv'><img src='trustrating_stim/white_mw097.bmp'><br><font class='baseline'><strong>Devin</strong><p>Received: <strong>12</strong></font> &nbsp; &nbsp; &nbsp; &nbsp; &nbsp; &nbsp;<font class='posOutcome'>Shared back: <strong>6</strong></font></font><div class='respPicDiv'><img src='img/responseButtonOffersNo0_wht.png' class='respPic'></div></div>","null","6","Devin","1","Shared","0.35,0.8","14","0.35","trustrating_stim/white_mw097.bmp","2.5","98","18"
"html-keyboard-response","191","651031","0.0-19.0-1.18","sconelab1","bdp_trlrn","Mon Feb 20 2023 23:41:30 GMT-0500 (Eastern Standard Time)","1006477","Untrustworthy,Trustworthy","","1383","","","","decision","","<div class='trialDiv'><img src='trustrating_stim/white_00898_960530_fa_edt.bmp'><br><font class='baseline'><strong>Marcus</strong><p>Choose number of points to send.</font><div class='respPicDiv'><img src='img/responseButtonOffersNo0L.png' class='respPic'></div></div>","5","7","Marcus","10","Kept","0.65,0.2","14","0.65","trustrating_stim/white_00898_960530_fa_edt.bmp","6.5","103","19"
"html-keyboard-response","192","651291","0.0-19.0-2.18","sconelab1","bdp_trlrn","Mon Feb 20 2023 23:41:30 GMT-0500 (Eastern Standard Time)","1006477","Untrustworthy,Trustworthy","","null","","","","decisionFB","","<div class='trialDiv'><img src='trustrating_stim/white_00898_960530_fa_edt.bmp'><br><font class='baseline'><strong>Marcus</strong><p>Choose number of points to send.</font><div class='respPicDiv'><img src='img/responseButtonOffersNo0L5.png' class='respPic'></div></div>","null","7","Marcus","10","Kept","0.65,0.2","14","0.65","trustrating_stim/white_00898_960530_fa_edt.bmp","6.5","98","19"
"html-keyboard-response","193","652296","0.0-19.0-3.18","sconelab1","bdp_trlrn","Mon Feb 20 2023 23:41:30 GMT-0500 (Eastern Standard Time)","1006477","Untrustworthy,Trustworthy","","null","","","","feedback","","<div class='trialDiv'><img src='trustrating_stim/white_00898_960530_fa_edt.bmp'><br><font class='baseline'><strong>Marcus</strong><p>Received: <strong>20</strong></font> &nbsp; &nbsp; &nbsp; &nbsp; &nbsp; &nbsp;<font class='negOutcome'>Shared back: <strong>0</strong></font></font><div class='respPicDiv'><img src='img/responseButtonOffersNo0_wht.png' class='respPic'></div></div>","null","7","Marcus","10","Kept","0.65,0.2","14","0.65","trustrating_stim/white_00898_960530_fa_edt.bmp","6.5","98","19"
"html-keyboard-response","194","653811","0.0-19.0-1.19","sconelab1","bdp_trlrn","Mon Feb 20 2023 23:41:30 GMT-0500 (Eastern Standard Time)","1006477","Untrustworthy,Trustworthy","","1513","","","","decision","","<div class='trialDiv'><img src='trustrating_stim/white_mw097.bmp'><br><font class='baseline'><strong>Devin</strong><p>Choose number of points to send.</font><div class='respPicDiv'><img src='img/responseButtonOffersNo0L.png' class='respPic'></div></div>","3","7","Devin","1","Kept","0.35,0.8","14","0.35","trustrating_stim/white_mw097.bmp","2.5","103","20"
"html-keyboard-response","195","654070","0.0-19.0-2.19","sconelab1","bdp_trlrn","Mon Feb 20 2023 23:41:30 GMT-0500 (Eastern Standard Time)","1006477","Untrustworthy,Trustworthy","","null","","","","decisionFB","","<div class='trialDiv'><img src='trustrating_stim/white_mw097.bmp'><br><font class='baseline'><strong>Devin</strong><p>Choose number of points to send.</font><div class='respPicDiv'><img src='img/responseButtonOffersNo0L3.png' class='respPic'></div></div>","null","7","Devin","1","Kept","0.35,0.8","14","0.35","trustrating_stim/white_mw097.bmp","2.5","100","20"
"html-keyboard-response","196","655076","0.0-19.0-3.19","sconelab1","bdp_trlrn","Mon Feb 20 2023 23:41:30 GMT-0500 (Eastern Standard Time)","1006477","Untrustworthy,Trustworthy","","null","","","","feedback","","<div class='trialDiv'><img src='trustrating_stim/white_mw097.bmp'><br><font class='baseline'><strong>Devin</strong><p>Received: <strong>12</strong></font> &nbsp; &nbsp; &nbsp; &nbsp; &nbsp; &nbsp;<font class='negOutcome'>Shared back: <strong>0</strong></font></font><div class='respPicDiv'><img src='img/responseButtonOffersNo0_wht.png' class='respPic'></div></div>","null","7","Devin","1","Kept","0.35,0.8","14","0.35","trustrating_stim/white_mw097.bmp","2.5","100","20"
"html-keyboard-response","197","655822","0.0-19.0-1.20","sconelab1","bdp_trlrn","Mon Feb 20 2023 23:41:30 GMT-0500 (Eastern Standard Time)","1006477","Untrustworthy,Trustworthy","","743","","","","decision","","<div class='trialDiv'><img src='trustrating_stim/white_mw035.bmp'><br><font class='baseline'><strong>Anthony</strong><p>Choose number of points to send.</font><div class='respPicDiv'><img src='img/responseButtonOffersNo0L.png' class='respPic'></div></div>","1","7","Anthony","5","Kept","0.2,0.8","14","0.2","trustrating_stim/white_mw035.bmp","4.5","105","21"
"html-keyboard-response","198","656076","0.0-19.0-2.20","sconelab1","bdp_trlrn","Mon Feb 20 2023 23:41:30 GMT-0500 (Eastern Standard Time)","1006477","Untrustworthy,Trustworthy","","null","","","","decisionFB","","<div class='trialDiv'><img src='trustrating_stim/white_mw035.bmp'><br><font class='baseline'><strong>Anthony</strong><p>Choose number of points to send.</font><div class='respPicDiv'><img src='img/responseButtonOffersNo0L1.png' class='respPic'></div></div>","null","7","Anthony","5","Kept","0.2,0.8","14","0.2","trustrating_stim/white_mw035.bmp","4.5","104","21"
"html-keyboard-response","199","657086","0.0-19.0-3.20","sconelab1","bdp_trlrn","Mon Feb 20 2023 23:41:30 GMT-0500 (Eastern Standard Time)","1006477","Untrustworthy,Trustworthy","","null","","","","feedback","","<div class='trialDiv'><img src='trustrating_stim/white_mw035.bmp'><br><font class='baseline'><strong>Anthony</strong><p>Received: <strong>4</strong></font> &nbsp; &nbsp; &nbsp; &nbsp; &nbsp; &nbsp;<font class='negOutcome'>Shared back: <strong>0</strong></font></font><div class='respPicDiv'><img src='img/responseButtonOffersNo0_wht.png' class='respPic'></div></div>","null","7","Anthony","5","Kept","0.2,0.8","14","0.2","trustrating_stim/white_mw035.bmp","4.5","104","21"
"html-keyboard-response","200","658593","0.0-19.0-1.21","sconelab1","bdp_trlrn","Mon Feb 20 2023 23:41:30 GMT-0500 (Eastern Standard Time)","1006477","Untrustworthy,Trustworthy","","1505","","","","decision","","<div class='trialDiv'><img src='trustrating_stim/white_00898_960530_fa_edt.bmp'><br><font class='baseline'><strong>Marcus</strong><p>Choose number of points to send.</font><div class='respPicDiv'><img src='img/responseButtonOffersNo0L.png' class='respPic'></div></div>","3","8","Marcus","10","Kept","0.65,0.2","14","0.65","trustrating_stim/white_00898_960530_fa_edt.bmp","6.5","109","22"
"html-keyboard-response","201","658851","0.0-19.0-2.21","sconelab1","bdp_trlrn","Mon Feb 20 2023 23:41:30 GMT-0500 (Eastern Standard Time)","1006477","Untrustworthy,Trustworthy","","null","","","","decisionFB","","<div class='trialDiv'><img src='trustrating_stim/white_00898_960530_fa_edt.bmp'><br><font class='baseline'><strong>Marcus</strong><p>Choose number of points to send.</font><div class='respPicDiv'><img src='img/responseButtonOffersNo0L3.png' class='respPic'></div></div>","null","8","Marcus","10","Kept","0.65,0.2","14","0.65","trustrating_stim/white_00898_960530_fa_edt.bmp","6.5","106","22"
"html-keyboard-response","202","659856","0.0-19.0-3.21","sconelab1","bdp_trlrn","Mon Feb 20 2023 23:41:30 GMT-0500 (Eastern Standard Time)","1006477","Untrustworthy,Trustworthy","","null","","","","feedback","","<div class='trialDiv'><img src='trustrating_stim/white_00898_960530_fa_edt.bmp'><br><font class='baseline'><strong>Marcus</strong><p>Received: <strong>12</strong></font> &nbsp; &nbsp; &nbsp; &nbsp; &nbsp; &nbsp;<font class='negOutcome'>Shared back: <strong>0</strong></font></font><div class='respPicDiv'><img src='img/responseButtonOffersNo0_wht.png' class='respPic'></div></div>","null","8","Marcus","10","Kept","0.65,0.2","14","0.65","trustrating_stim/white_00898_960530_fa_edt.bmp","6.5","106","22"
"html-keyboard-response","203","662133","0.0-19.0-1.22","sconelab1","bdp_trlrn","Mon Feb 20 2023 23:41:30 GMT-0500 (Eastern Standard Time)","1006477","Untrustworthy,Trustworthy","","2275","","","","decision","","<div class='trialDiv'><img src='trustrating_stim/white_mw035.bmp'><br><font class='baseline'><strong>Anthony</strong><p>Choose number of points to send.</font><div class='respPicDiv'><img src='img/responseButtonOffersNo0L.png' class='respPic'></div></div>","1","8","Anthony","5","Shared","0.2,0.8","14","0.2","trustrating_stim/white_mw035.bmp","4.5","111","23"
"html-keyboard-response","204","662388","0.0-19.0-2.22","sconelab1","bdp_trlrn","Mon Feb 20 2023 23:41:30 GMT-0500 (Eastern Standard Time)","1006477","Untrustworthy,Trustworthy","","null","","","","decisionFB","","<div class='trialDiv'><img src='trustrating_stim/white_mw035.bmp'><br><font class='baseline'><strong>Anthony</strong><p>Choose number of points to send.</font><div class='respPicDiv'><img src='img/responseButtonOffersNo0L1.png' class='respPic'></div></div>","null","8","Anthony","5","Shared","0.2,0.8","14","0.2","trustrating_stim/white_mw035.bmp","4.5","110","23"
"html-keyboard-response","205","663395","0.0-19.0-3.22","sconelab1","bdp_trlrn","Mon Feb 20 2023 23:41:30 GMT-0500 (Eastern Standard Time)","1006477","Untrustworthy,Trustworthy","","null","","","","feedback","","<div class='trialDiv'><img src='trustrating_stim/white_mw035.bmp'><br><font class='baseline'><strong>Anthony</strong><p>Received: <strong>4</strong></font> &nbsp; &nbsp; &nbsp; &nbsp; &nbsp; &nbsp;<font class='posOutcome'>Shared back: <strong>2</strong></font></font><div class='respPicDiv'><img src='img/responseButtonOffersNo0_wht.png' class='respPic'></div></div>","null","8","Anthony","5","Shared","0.2,0.8","14","0.2","trustrating_stim/white_mw035.bmp","4.5","112","23"
"html-keyboard-response","206","664917","0.0-19.0-1.23","sconelab1","bdp_trlrn","Mon Feb 20 2023 23:41:30 GMT-0500 (Eastern Standard Time)","1006477","Untrustworthy,Trustworthy","","1520","","","","decision","","<div class='trialDiv'><img src='trustrating_stim/white_mw097.bmp'><br><font class='baseline'><strong>Devin</strong><p>Choose number of points to send.</font><div class='respPicDiv'><img src='img/responseButtonOffersNo0L.png' class='respPic'></div></div>","3","8","Devin","1","Kept","0.35,0.8","14","0.35","trustrating_stim/white_mw097.bmp","2.5","117","24"
"html-keyboard-response","207","665169","0.0-19.0-2.23","sconelab1","bdp_trlrn","Mon Feb 20 2023 23:41:30 GMT-0500 (Eastern Standard Time)","1006477","Untrustworthy,Trustworthy","","null","","","","decisionFB","","<div class='trialDiv'><img src='trustrating_stim/white_mw097.bmp'><br><font class='baseline'><strong>Devin</strong><p>Choose number of points to send.</font><div class='respPicDiv'><img src='img/responseButtonOffersNo0L3.png' class='respPic'></div></div>","null","8","Devin","1","Kept","0.35,0.8","14","0.35","trustrating_stim/white_mw097.bmp","2.5","114","24"
"html-keyboard-response","208","666307","0.0-19.0-3.23","sconelab1","bdp_trlrn","Mon Feb 20 2023 23:41:30 GMT-0500 (Eastern Standard Time)","1006477","Untrustworthy,Trustworthy","","null","","","","feedback","","<div class='trialDiv'><img src='trustrating_stim/white_mw097.bmp'><br><font class='baseline'><strong>Devin</strong><p>Received: <strong>12</strong></font> &nbsp; &nbsp; &nbsp; &nbsp; &nbsp; &nbsp;<font class='negOutcome'>Shared back: <strong>0</strong></font></font><div class='respPicDiv'><img src='img/responseButtonOffersNo0_wht.png' class='respPic'></div></div>","null","8","Devin","1","Kept","0.35,0.8","14","0.35","trustrating_stim/white_mw097.bmp","2.5","114","24"
"html-keyboard-response","209","667514","0.0-19.0-1.24","sconelab1","bdp_trlrn","Mon Feb 20 2023 23:41:30 GMT-0500 (Eastern Standard Time)","1006477","Untrustworthy,Trustworthy","","1205","","","","decision","","<div class='trialDiv'><img src='trustrating_stim/white_00898_960530_fa_edt.bmp'><br><font class='baseline'><strong>Marcus</strong><p>Choose number of points to send.</font><div class='respPicDiv'><img src='img/responseButtonOffersNo0L.png' class='respPic'></div></div>","3","9","Marcus","10","Shared","0.65,0.2","14","0.65","trustrating_stim/white_00898_960530_fa_edt.bmp","6.5","119","25"
"html-keyboard-response","210","667774","0.0-19.0-2.24","sconelab1","bdp_trlrn","Mon Feb 20 2023 23:41:30 GMT-0500 (Eastern Standard Time)","1006477","Untrustworthy,Trustworthy","","null","","","","decisionFB","","<div class='trialDiv'><img src='trustrating_stim/white_00898_960530_fa_edt.bmp'><br><font class='baseline'><strong>Marcus</strong><p>Choose number of points to send.</font><div class='respPicDiv'><img src='img/responseButtonOffersNo0L3.png' class='respPic'></div></div>","null","9","Marcus","10","Shared","0.65,0.2","14","0.65","trustrating_stim/white_00898_960530_fa_edt.bmp","6.5","116","25"
"html-keyboard-response","211","668779","0.0-19.0-3.24","sconelab1","bdp_trlrn","Mon Feb 20 2023 23:41:30 GMT-0500 (Eastern Standard Time)","1006477","Untrustworthy,Trustworthy","","null","","","","feedback","","<div class='trialDiv'><img src='trustrating_stim/white_00898_960530_fa_edt.bmp'><br><font class='baseline'><strong>Marcus</strong><p>Received: <strong>12</strong></font> &nbsp; &nbsp; &nbsp; &nbsp; &nbsp; &nbsp;<font class='posOutcome'>Shared back: <strong>6</strong></font></font><div class='respPicDiv'><img src='img/responseButtonOffersNo0_wht.png' class='respPic'></div></div>","null","9","Marcus","10","Shared","0.65,0.2","14","0.65","trustrating_stim/white_00898_960530_fa_edt.bmp","6.5","122","25"
"html-keyboard-response","212","670847","0.0-19.0-1.25","sconelab1","bdp_trlrn","Mon Feb 20 2023 23:41:30 GMT-0500 (Eastern Standard Time)","1006477","Untrustworthy,Trustworthy","","2068","","","","decision","","<div class='trialDiv'><img src='trustrating_stim/white_mw097.bmp'><br><font class='baseline'><strong>Devin</strong><p>Choose number of points to send.</font><div class='respPicDiv'><img src='img/responseButtonOffersNo0L.png' class='respPic'></div></div>","3","9","Devin","1","Kept","0.35,0.8","14","0.35","trustrating_stim/white_mw097.bmp","2.5","127","26"
"html-keyboard-response","213","671107","0.0-19.0-2.25","sconelab1","bdp_trlrn","Mon Feb 20 2023 23:41:30 GMT-0500 (Eastern Standard Time)","1006477","Untrustworthy,Trustworthy","","null","","","","decisionFB","","<div class='trialDiv'><img src='trustrating_stim/white_mw097.bmp'><br><font class='baseline'><strong>Devin</strong><p>Choose number of points to send.</font><div class='respPicDiv'><img src='img/responseButtonOffersNo0L3.png' class='respPic'></div></div>","null","9","Devin","1","Kept","0.35,0.8","14","0.35","trustrating_stim/white_mw097.bmp","2.5","124","26"
"html-keyboard-response","214","672110","0.0-19.0-3.25","sconelab1","bdp_trlrn","Mon Feb 20 2023 23:41:30 GMT-0500 (Eastern Standard Time)","1006477","Untrustworthy,Trustworthy","","null","","","","feedback","","<div class='trialDiv'><img src='trustrating_stim/white_mw097.bmp'><br><font class='baseline'><strong>Devin</strong><p>Received: <strong>12</strong></font> &nbsp; &nbsp; &nbsp; &nbsp; &nbsp; &nbsp;<font class='negOutcome'>Shared back: <strong>0</strong></font></font><div class='respPicDiv'><img src='img/responseButtonOffersNo0_wht.png' class='respPic'></div></div>","null","9","Devin","1","Kept","0.35,0.8","14","0.35","trustrating_stim/white_mw097.bmp","2.5","124","26"
"html-keyboard-response","215","673063","0.0-19.0-1.26","sconelab1","bdp_trlrn","Mon Feb 20 2023 23:41:30 GMT-0500 (Eastern Standard Time)","1006477","Untrustworthy,Trustworthy","","952","","","","decision","","<div class='trialDiv'><img src='trustrating_stim/white_mw035.bmp'><br><font class='baseline'><strong>Anthony</strong><p>Choose number of points to send.</font><div class='respPicDiv'><img src='img/responseButtonOffersNo0L.png' class='respPic'></div></div>","1","9","Anthony","5","Kept","0.2,0.8","14","0.2","trustrating_stim/white_mw035.bmp","4.5","129","27"
"html-keyboard-response","216","673326","0.0-19.0-2.26","sconelab1","bdp_trlrn","Mon Feb 20 2023 23:41:30 GMT-0500 (Eastern Standard Time)","1006477","Untrustworthy,Trustworthy","","null","","","","decisionFB","","<div class='trialDiv'><img src='trustrating_stim/white_mw035.bmp'><br><font class='baseline'><strong>Anthony</strong><p>Choose number of points to send.</font><div class='respPicDiv'><img src='img/responseButtonOffersNo0L1.png' class='respPic'></div></div>","null","9","Anthony","5","Kept","0.2,0.8","14","0.2","trustrating_stim/white_mw035.bmp","4.5","128","27"
"html-keyboard-response","217","674328","0.0-19.0-3.26","sconelab1","bdp_trlrn","Mon Feb 20 2023 23:41:30 GMT-0500 (Eastern Standard Time)","1006477","Untrustworthy,Trustworthy","","null","","","","feedback","","<div class='trialDiv'><img src='trustrating_stim/white_mw035.bmp'><br><font class='baseline'><strong>Anthony</strong><p>Received: <strong>4</strong></font> &nbsp; &nbsp; &nbsp; &nbsp; &nbsp; &nbsp;<font class='negOutcome'>Shared back: <strong>0</strong></font></font><div class='respPicDiv'><img src='img/responseButtonOffersNo0_wht.png' class='respPic'></div></div>","null","9","Anthony","5","Kept","0.2,0.8","14","0.2","trustrating_stim/white_mw035.bmp","4.5","128","27"
"html-keyboard-response","218","675560","0.0-19.0-1.27","sconelab1","bdp_trlrn","Mon Feb 20 2023 23:41:30 GMT-0500 (Eastern Standard Time)","1006477","Untrustworthy,Trustworthy","","1229","","","","decision","","<div class='trialDiv'><img src='trustrating_stim/white_00898_960530_fa_edt.bmp'><br><font class='baseline'><strong>Marcus</strong><p>Choose number of points to send.</font><div class='respPicDiv'><img src='img/responseButtonOffersNo0L.png' class='respPic'></div></div>","4","10","Marcus","10","Shared","0.65,0.2","14","0.65","trustrating_stim/white_00898_960530_fa_edt.bmp","6.5","133","28"
"html-keyboard-response","219","675822","0.0-19.0-2.27","sconelab1","bdp_trlrn","Mon Feb 20 2023 23:41:30 GMT-0500 (Eastern Standard Time)","1006477","Untrustworthy,Trustworthy","","null","","","","decisionFB","","<div class='trialDiv'><img src='trustrating_stim/white_00898_960530_fa_edt.bmp'><br><font class='baseline'><strong>Marcus</strong><p>Choose number of points to send.</font><div class='respPicDiv'><img src='img/responseButtonOffersNo0L4.png' class='respPic'></div></div>","null","10","Marcus","10","Shared","0.65,0.2","14","0.65","trustrating_stim/white_00898_960530_fa_edt.bmp","6.5","129","28"
"html-keyboard-response","220","676828","0.0-19.0-3.27","sconelab1","bdp_trlrn","Mon Feb 20 2023 23:41:30 GMT-0500 (Eastern Standard Time)","1006477","Untrustworthy,Trustworthy","","null","","","","feedback","","<div class='trialDiv'><img src='trustrating_stim/white_00898_960530_fa_edt.bmp'><br><font class='baseline'><strong>Marcus</strong><p>Received: <strong>16</strong></font> &nbsp; &nbsp; &nbsp; &nbsp; &nbsp; &nbsp;<font class='posOutcome'>Shared back: <strong>8</strong></font></font><div class='respPicDiv'><img src='img/responseButtonOffersNo0_wht.png' class='respPic'></div></div>","null","10","Marcus","10","Shared","0.65,0.2","14","0.65","trustrating_stim/white_00898_960530_fa_edt.bmp","6.5","137","28"
"html-keyboard-response","221","678038","0.0-19.0-1.28","sconelab1","bdp_trlrn","Mon Feb 20 2023 23:41:30 GMT-0500 (Eastern Standard Time)","1006477","Untrustworthy,Trustworthy","","1208","","","","decision","","<div class='trialDiv'><img src='trustrating_stim/white_mw097.bmp'><br><font class='baseline'><strong>Devin</strong><p>Choose number of points to send.</font><div class='respPicDiv'><img src='img/responseButtonOffersNo0L.png' class='respPic'></div></div>","3","10","Devin","1","Kept","0.35,0.8","14","0.35","trustrating_stim/white_mw097.bmp","2.5","142","29"
"html-keyboard-response","222","678291","0.0-19.0-2.28","sconelab1","bdp_trlrn","Mon Feb 20 2023 23:41:30 GMT-0500 (Eastern Standard Time)","1006477","Untrustworthy,Trustworthy","","null","","","","decisionFB","","<div class='trialDiv'><img src='trustrating_stim/white_mw097.bmp'><br><font class='baseline'><strong>Devin</strong><p>Choose number of points to send.</font><div class='respPicDiv'><img src='img/responseButtonOffersNo0L3.png' class='respPic'></div></div>","null","10","Devin","1","Kept","0.35,0.8","14","0.35","trustrating_stim/white_mw097.bmp","2.5","139","29"
"html-keyboard-response","223","679299","0.0-19.0-3.28","sconelab1","bdp_trlrn","Mon Feb 20 2023 23:41:30 GMT-0500 (Eastern Standard Time)","1006477","Untrustworthy,Trustworthy","","null","","","","feedback","","<div class='trialDiv'><img src='trustrating_stim/white_mw097.bmp'><br><font class='baseline'><strong>Devin</strong><p>Received: <strong>12</strong></font> &nbsp; &nbsp; &nbsp; &nbsp; &nbsp; &nbsp;<font class='negOutcome'>Shared back: <strong>0</strong></font></font><div class='respPicDiv'><img src='img/responseButtonOffersNo0_wht.png' class='respPic'></div></div>","null","10","Devin","1","Kept","0.35,0.8","14","0.35","trustrating_stim/white_mw097.bmp","2.5","139","29"
"html-keyboard-response","224","680266","0.0-19.0-1.29","sconelab1","bdp_trlrn","Mon Feb 20 2023 23:41:30 GMT-0500 (Eastern Standard Time)","1006477","Untrustworthy,Trustworthy","","965","","","","decision","","<div class='trialDiv'><img src='trustrating_stim/white_mw035.bmp'><br><font class='baseline'><strong>Anthony</strong><p>Choose number of points to send.</font><div class='respPicDiv'><img src='img/responseButtonOffersNo0L.png' class='respPic'></div></div>","1","10","Anthony","5","Kept","0.2,0.8","14","0.2","trustrating_stim/white_mw035.bmp","4.5","144","30"
"html-keyboard-response","225","680521","0.0-19.0-2.29","sconelab1","bdp_trlrn","Mon Feb 20 2023 23:41:30 GMT-0500 (Eastern Standard Time)","1006477","Untrustworthy,Trustworthy","","null","","","","decisionFB","","<div class='trialDiv'><img src='trustrating_stim/white_mw035.bmp'><br><font class='baseline'><strong>Anthony</strong><p>Choose number of points to send.</font><div class='respPicDiv'><img src='img/responseButtonOffersNo0L1.png' class='respPic'></div></div>","null","10","Anthony","5","Kept","0.2,0.8","14","0.2","trustrating_stim/white_mw035.bmp","4.5","143","30"
