"trial_type","trial_index","time_elapsed","internal_node_id","subject_id","task","startTime","totalTime","labels","event","trial","time","trialtype","numBlurs","view_history","rt","success","stimulus","key_press","aground","name","faceID","outcome","agenttype","agentswpt","agentcurrpshare","face","avgRating","point_total","round"
"pavlovia","0","2","0.0-0.0","61492ac26b91b5b11ba2c88b","bdp_trlrn","Fri Mar 10 2023 12:20:11 GMT-0700 (Mountain Standard Time)","631332","Untrustworthy,Trustworthy","","","","","","","","","","","","","","","","","","","","",""
"","","","","61492ac26b91b5b11ba2c88b","bdp_trlrn","Fri Mar 10 2023 12:20:11 GMT-0700 (Mountain Standard Time)","631332","Untrustworthy,Trustworthy","blur","1","5126","blurevent","1","","","","","","","","","","","","","","","",""
"","","","","61492ac26b91b5b11ba2c88b","bdp_trlrn","Fri Mar 10 2023 12:20:11 GMT-0700 (Mountain Standard Time)","631332","Untrustworthy,Trustworthy","focus","1","7844","focusevent","","","","","","","","","","","","","","","","",""
"instructions","1","10817","0.0-1.0","61492ac26b91b5b11ba2c88b","bdp_trlrn","Fri Mar 10 2023 12:20:11 GMT-0700 (Mountain Standard Time)","631332","Untrustworthy,Trustworthy","","","","","","[{""page_index"":0,""viewing_time"":10815}]","10815","","","","","","","","","","","","","",""
"","","","","61492ac26b91b5b11ba2c88b","bdp_trlrn","Fri Mar 10 2023 12:20:11 GMT-0700 (Mountain Standard Time)","631332","Untrustworthy,Trustworthy","fullscreenenter","2","14702","fullscreenenter","","","","","","","","","","","","","","","","",""
"fullscreen","2","15696","0.0-2.0","61492ac26b91b5b11ba2c88b","bdp_trlrn","Fri Mar 10 2023 12:20:11 GMT-0700 (Mountain Standard Time)","631332","Untrustworthy,Trustworthy","","","","","","","","true","","","","","","","","","","","","",""
"instructions","3","24125","0.0-4.0","61492ac26b91b5b11ba2c88b","bdp_trlrn","Fri Mar 10 2023 12:20:11 GMT-0700 (Mountain Standard Time)","631332","Untrustworthy,Trustworthy","","","","","","[{""page_index"":0,""viewing_time"":6210},{""page_index"":1,""viewing_time"":2213}]","8424","","","","","","","","","","","","","",""
"instructions","4","26560","0.0-5.0","61492ac26b91b5b11ba2c88b","bdp_trlrn","Fri Mar 10 2023 12:20:11 GMT-0700 (Mountain Standard Time)","631332","Untrustworthy,Trustworthy","","","","","","[{""page_index"":0,""viewing_time"":2435}]","2435","","","","","","","","","","","","","",""
"image-keyboard-response","5","29092","0.0-6.0-1.0","61492ac26b91b5b11ba2c88b","bdp_trlrn","Fri Mar 10 2023 12:20:11 GMT-0700 (Mountain Standard Time)","631332","Untrustworthy,Trustworthy","","","","rating","","","2424","","trustrating_stim/white_00129_931230_fb_edt.bmp","5","","","","","","","","","","",""
"image-keyboard-response","6","29296","0.0-6.0-2.0","61492ac26b91b5b11ba2c88b","bdp_trlrn","Fri Mar 10 2023 12:20:11 GMT-0700 (Mountain Standard Time)","631332","Untrustworthy,Trustworthy","","","","ratingFB","","","null","","trustrating_stim/white_00129_931230_fb_edt.bmp","null","","","","","","","","","","",""
"image-keyboard-response","7","30751","0.0-6.0-1.1","61492ac26b91b5b11ba2c88b","bdp_trlrn","Fri Mar 10 2023 12:20:11 GMT-0700 (Mountain Standard Time)","631332","Untrustworthy,Trustworthy","","","","rating","","","1350","","trustrating_stim/white_mw056.bmp","2","","","","","","","","","","",""
"image-keyboard-response","8","30960","0.0-6.0-2.1","61492ac26b91b5b11ba2c88b","bdp_trlrn","Fri Mar 10 2023 12:20:11 GMT-0700 (Mountain Standard Time)","631332","Untrustworthy,Trustworthy","","","","ratingFB","","","null","","trustrating_stim/white_mw056.bmp","null","","","","","","","","","","",""
"image-keyboard-response","9","32418","0.0-6.0-1.2","61492ac26b91b5b11ba2c88b","bdp_trlrn","Fri Mar 10 2023 12:20:11 GMT-0700 (Mountain Standard Time)","631332","Untrustworthy,Trustworthy","","","","rating","","","1353","","trustrating_stim/white_mw060.bmp","1","","","","","","","","","","",""
"image-keyboard-response","10","32626","0.0-6.0-2.2","61492ac26b91b5b11ba2c88b","bdp_trlrn","Fri Mar 10 2023 12:20:11 GMT-0700 (Mountain Standard Time)","631332","Untrustworthy,Trustworthy","","","","ratingFB","","","null","","trustrating_stim/white_mw060.bmp","null","","","","","","","","","","",""
"image-keyboard-response","11","34411","0.0-6.0-1.3","61492ac26b91b5b11ba2c88b","bdp_trlrn","Fri Mar 10 2023 12:20:11 GMT-0700 (Mountain Standard Time)","631332","Untrustworthy,Trustworthy","","","","rating","","","1674","","trustrating_stim/white_00785_941205_fb_edt.bmp","3","","","","","","","","","","",""
"image-keyboard-response","12","34617","0.0-6.0-2.3","61492ac26b91b5b11ba2c88b","bdp_trlrn","Fri Mar 10 2023 12:20:11 GMT-0700 (Mountain Standard Time)","631332","Untrustworthy,Trustworthy","","","","ratingFB","","","null","","trustrating_stim/white_00785_941205_fb_edt.bmp","null","","","","","","","","","","",""
"image-keyboard-response","13","36906","0.0-6.0-1.4","61492ac26b91b5b11ba2c88b","bdp_trlrn","Fri Mar 10 2023 12:20:11 GMT-0700 (Mountain Standard Time)","631332","Untrustworthy,Trustworthy","","","","rating","","","2182","","trustrating_stim/white_00299_940422_fa_edt.bmp","4","","","","","","","","","","",""
"image-keyboard-response","14","37113","0.0-6.0-2.4","61492ac26b91b5b11ba2c88b","bdp_trlrn","Fri Mar 10 2023 12:20:11 GMT-0700 (Mountain Standard Time)","631332","Untrustworthy,Trustworthy","","","","ratingFB","","","null","","trustrating_stim/white_00299_940422_fa_edt.bmp","null","","","","","","","","","","",""
"image-keyboard-response","15","40043","0.0-6.0-1.5","61492ac26b91b5b11ba2c88b","bdp_trlrn","Fri Mar 10 2023 12:20:11 GMT-0700 (Mountain Standard Time)","631332","Untrustworthy,Trustworthy","","","","rating","","","2823","","trustrating_stim/white_00519_940519_fb_edt.bmp","5","","","","","","","","","","",""
"image-keyboard-response","16","40248","0.0-6.0-2.5","61492ac26b91b5b11ba2c88b","bdp_trlrn","Fri Mar 10 2023 12:20:11 GMT-0700 (Mountain Standard Time)","631332","Untrustworthy,Trustworthy","","","","ratingFB","","","null","","trustrating_stim/white_00519_940519_fb_edt.bmp","null","","","","","","","","","","",""
"image-keyboard-response","17","41617","0.0-6.0-1.6","61492ac26b91b5b11ba2c88b","bdp_trlrn","Fri Mar 10 2023 12:20:11 GMT-0700 (Mountain Standard Time)","631332","Untrustworthy,Trustworthy","","","","rating","","","1263","","trustrating_stim/white_mw066.bmp","6","","","","","","","","","","",""
"image-keyboard-response","18","41827","0.0-6.0-2.6","61492ac26b91b5b11ba2c88b","bdp_trlrn","Fri Mar 10 2023 12:20:11 GMT-0700 (Mountain Standard Time)","631332","Untrustworthy,Trustworthy","","","","ratingFB","","","null","","trustrating_stim/white_mw066.bmp","null","","","","","","","","","","",""
"image-keyboard-response","19","44703","0.0-6.0-1.7","61492ac26b91b5b11ba2c88b","bdp_trlrn","Fri Mar 10 2023 12:20:11 GMT-0700 (Mountain Standard Time)","631332","Untrustworthy,Trustworthy","","","","rating","","","2764","","trustrating_stim/white_00761_941201_fb_edt.bmp","6","","","","","","","","","","",""
"image-keyboard-response","20","44914","0.0-6.0-2.7","61492ac26b91b5b11ba2c88b","bdp_trlrn","Fri Mar 10 2023 12:20:11 GMT-0700 (Mountain Standard Time)","631332","Untrustworthy,Trustworthy","","","","ratingFB","","","null","","trustrating_stim/white_00761_941201_fb_edt.bmp","null","","","","","","","","","","",""
"image-keyboard-response","21","46465","0.0-6.0-1.8","61492ac26b91b5b11ba2c88b","bdp_trlrn","Fri Mar 10 2023 12:20:11 GMT-0700 (Mountain Standard Time)","631332","Untrustworthy,Trustworthy","","","","rating","","","1439","","trustrating_stim/white_00109_931230_fa_edt.bmp","7","","","","","","","","","","",""
"image-keyboard-response","22","46674","0.0-6.0-2.8","61492ac26b91b5b11ba2c88b","bdp_trlrn","Fri Mar 10 2023 12:20:11 GMT-0700 (Mountain Standard Time)","631332","Untrustworthy,Trustworthy","","","","ratingFB","","","null","","trustrating_stim/white_00109_931230_fa_edt.bmp","null","","","","","","","","","","",""
"image-keyboard-response","23","47698","0.0-6.0-1.9","61492ac26b91b5b11ba2c88b","bdp_trlrn","Fri Mar 10 2023 12:20:11 GMT-0700 (Mountain Standard Time)","631332","Untrustworthy,Trustworthy","","","","rating","","","912","","trustrating_stim/white_00577_940928_fa_edt.bmp","1","","","","","","","","","","",""
"image-keyboard-response","24","47904","0.0-6.0-2.9","61492ac26b91b5b11ba2c88b","bdp_trlrn","Fri Mar 10 2023 12:20:11 GMT-0700 (Mountain Standard Time)","631332","Untrustworthy,Trustworthy","","","","ratingFB","","","null","","trustrating_stim/white_00577_940928_fa_edt.bmp","null","","","","","","","","","","",""
"image-keyboard-response","25","48879","0.0-6.0-1.10","61492ac26b91b5b11ba2c88b","bdp_trlrn","Fri Mar 10 2023 12:20:11 GMT-0700 (Mountain Standard Time)","631332","Untrustworthy,Trustworthy","","","","rating","","","868","","trustrating_stim/white_mw063.bmp","1","","","","","","","","","","",""
"image-keyboard-response","26","49089","0.0-6.0-2.10","61492ac26b91b5b11ba2c88b","bdp_trlrn","Fri Mar 10 2023 12:20:11 GMT-0700 (Mountain Standard Time)","631332","Untrustworthy,Trustworthy","","","","ratingFB","","","null","","trustrating_stim/white_mw063.bmp","null","","","","","","","","","","",""
"image-keyboard-response","27","50017","0.0-6.0-1.11","61492ac26b91b5b11ba2c88b","bdp_trlrn","Fri Mar 10 2023 12:20:11 GMT-0700 (Mountain Standard Time)","631332","Untrustworthy,Trustworthy","","","","rating","","","823","","trustrating_stim/white_00340_940422_fa_edt.bmp","1","","","","","","","","","","",""
"image-keyboard-response","28","50226","0.0-6.0-2.11","61492ac26b91b5b11ba2c88b","bdp_trlrn","Fri Mar 10 2023 12:20:11 GMT-0700 (Mountain Standard Time)","631332","Untrustworthy,Trustworthy","","","","ratingFB","","","null","","trustrating_stim/white_00340_940422_fa_edt.bmp","null","","","","","","","","","","",""
"image-keyboard-response","29","51893","0.0-6.0-1.12","61492ac26b91b5b11ba2c88b","bdp_trlrn","Fri Mar 10 2023 12:20:11 GMT-0700 (Mountain Standard Time)","631332","Untrustworthy,Trustworthy","","","","rating","","","1555","","trustrating_stim/white_mw053.bmp","6","","","","","","","","","","",""
"image-keyboard-response","30","52103","0.0-6.0-2.12","61492ac26b91b5b11ba2c88b","bdp_trlrn","Fri Mar 10 2023 12:20:11 GMT-0700 (Mountain Standard Time)","631332","Untrustworthy,Trustworthy","","","","ratingFB","","","null","","trustrating_stim/white_mw053.bmp","null","","","","","","","","","","",""
"image-keyboard-response","31","54126","0.0-6.0-1.13","61492ac26b91b5b11ba2c88b","bdp_trlrn","Fri Mar 10 2023 12:20:11 GMT-0700 (Mountain Standard Time)","631332","Untrustworthy,Trustworthy","","","","rating","","","1919","","trustrating_stim/white_mw071.bmp","5","","","","","","","","","","",""
"image-keyboard-response","32","54336","0.0-6.0-2.13","61492ac26b91b5b11ba2c88b","bdp_trlrn","Fri Mar 10 2023 12:20:11 GMT-0700 (Mountain Standard Time)","631332","Untrustworthy,Trustworthy","","","","ratingFB","","","null","","trustrating_stim/white_mw071.bmp","null","","","","","","","","","","",""
"image-keyboard-response","33","55665","0.0-6.0-1.14","61492ac26b91b5b11ba2c88b","bdp_trlrn","Fri Mar 10 2023 12:20:11 GMT-0700 (Mountain Standard Time)","631332","Untrustworthy,Trustworthy","","","","rating","","","1224","","trustrating_stim/white_00223_940128_fb_edt.bmp","1","","","","","","","","","","",""
"image-keyboard-response","34","55874","0.0-6.0-2.14","61492ac26b91b5b11ba2c88b","bdp_trlrn","Fri Mar 10 2023 12:20:11 GMT-0700 (Mountain Standard Time)","631332","Untrustworthy,Trustworthy","","","","ratingFB","","","null","","trustrating_stim/white_00223_940128_fb_edt.bmp","null","","","","","","","","","","",""
"image-keyboard-response","35","56999","0.0-6.0-1.15","61492ac26b91b5b11ba2c88b","bdp_trlrn","Fri Mar 10 2023 12:20:11 GMT-0700 (Mountain Standard Time)","631332","Untrustworthy,Trustworthy","","","","rating","","","1013","","trustrating_stim/white_mw048.bmp","1","","","","","","","","","","",""
"image-keyboard-response","36","57210","0.0-6.0-2.15","61492ac26b91b5b11ba2c88b","bdp_trlrn","Fri Mar 10 2023 12:20:11 GMT-0700 (Mountain Standard Time)","631332","Untrustworthy,Trustworthy","","","","ratingFB","","","null","","trustrating_stim/white_mw048.bmp","null","","","","","","","","","","",""
"image-keyboard-response","37","58798","0.0-6.0-1.16","61492ac26b91b5b11ba2c88b","bdp_trlrn","Fri Mar 10 2023 12:20:11 GMT-0700 (Mountain Standard Time)","631332","Untrustworthy,Trustworthy","","","","rating","","","1476","","trustrating_stim/white_00757_941201_fa_edt.bmp","1","","","","","","","","","","",""
"image-keyboard-response","38","59009","0.0-6.0-2.16","61492ac26b91b5b11ba2c88b","bdp_trlrn","Fri Mar 10 2023 12:20:11 GMT-0700 (Mountain Standard Time)","631332","Untrustworthy,Trustworthy","","","","ratingFB","","","null","","trustrating_stim/white_00757_941201_fa_edt.bmp","null","","","","","","","","","","",""
"image-keyboard-response","39","60942","0.0-6.0-1.17","61492ac26b91b5b11ba2c88b","bdp_trlrn","Fri Mar 10 2023 12:20:11 GMT-0700 (Mountain Standard Time)","631332","Untrustworthy,Trustworthy","","","","rating","","","1822","","trustrating_stim/white_mw084.bmp","4","","","","","","","","","","",""
"image-keyboard-response","40","61151","0.0-6.0-2.17","61492ac26b91b5b11ba2c88b","bdp_trlrn","Fri Mar 10 2023 12:20:11 GMT-0700 (Mountain Standard Time)","631332","Untrustworthy,Trustworthy","","","","ratingFB","","","null","","trustrating_stim/white_mw084.bmp","null","","","","","","","","","","",""
"image-keyboard-response","41","63131","0.0-6.0-1.18","61492ac26b91b5b11ba2c88b","bdp_trlrn","Fri Mar 10 2023 12:20:11 GMT-0700 (Mountain Standard Time)","631332","Untrustworthy,Trustworthy","","","","rating","","","1875","","trustrating_stim/white_mw046.bmp","2","","","","","","","","","","",""
"image-keyboard-response","42","63334","0.0-6.0-2.18","61492ac26b91b5b11ba2c88b","bdp_trlrn","Fri Mar 10 2023 12:20:11 GMT-0700 (Mountain Standard Time)","631332","Untrustworthy,Trustworthy","","","","ratingFB","","","null","","trustrating_stim/white_mw046.bmp","null","","","","","","","","","","",""
"image-keyboard-response","43","65352","0.0-6.0-1.19","61492ac26b91b5b11ba2c88b","bdp_trlrn","Fri Mar 10 2023 12:20:11 GMT-0700 (Mountain Standard Time)","631332","Untrustworthy,Trustworthy","","","","rating","","","1913","","trustrating_stim/white_mw099.bmp","3","","","","","","","","","","",""
"image-keyboard-response","44","65561","0.0-6.0-2.19","61492ac26b91b5b11ba2c88b","bdp_trlrn","Fri Mar 10 2023 12:20:11 GMT-0700 (Mountain Standard Time)","631332","Untrustworthy,Trustworthy","","","","ratingFB","","","null","","trustrating_stim/white_mw099.bmp","null","","","","","","","","","","",""
"image-keyboard-response","45","67283","0.0-6.0-1.20","61492ac26b91b5b11ba2c88b","bdp_trlrn","Fri Mar 10 2023 12:20:11 GMT-0700 (Mountain Standard Time)","631332","Untrustworthy,Trustworthy","","","","rating","","","1609","","trustrating_stim/white_mw035.bmp","3","","","","","","","","","","",""
"image-keyboard-response","46","67489","0.0-6.0-2.20","61492ac26b91b5b11ba2c88b","bdp_trlrn","Fri Mar 10 2023 12:20:11 GMT-0700 (Mountain Standard Time)","631332","Untrustworthy,Trustworthy","","","","ratingFB","","","null","","trustrating_stim/white_mw035.bmp","null","","","","","","","","","","",""
"image-keyboard-response","47","68416","0.0-6.0-1.21","61492ac26b91b5b11ba2c88b","bdp_trlrn","Fri Mar 10 2023 12:20:11 GMT-0700 (Mountain Standard Time)","631332","Untrustworthy,Trustworthy","","","","rating","","","815","","trustrating_stim/white_00807_941205_fb_edt.bmp","1","","","","","","","","","","",""
"image-keyboard-response","48","68622","0.0-6.0-2.21","61492ac26b91b5b11ba2c88b","bdp_trlrn","Fri Mar 10 2023 12:20:11 GMT-0700 (Mountain Standard Time)","631332","Untrustworthy,Trustworthy","","","","ratingFB","","","null","","trustrating_stim/white_00807_941205_fb_edt.bmp","null","","","","","","","","","","",""
"image-keyboard-response","49","70877","0.0-6.0-1.22","61492ac26b91b5b11ba2c88b","bdp_trlrn","Fri Mar 10 2023 12:20:11 GMT-0700 (Mountain Standard Time)","631332","Untrustworthy,Trustworthy","","","","rating","","","2150","","trustrating_stim/white_mw033.bmp","5","","","","","","","","","","",""
"image-keyboard-response","50","71089","0.0-6.0-2.22","61492ac26b91b5b11ba2c88b","bdp_trlrn","Fri Mar 10 2023 12:20:11 GMT-0700 (Mountain Standard Time)","631332","Untrustworthy,Trustworthy","","","","ratingFB","","","null","","trustrating_stim/white_mw033.bmp","null","","","","","","","","","","",""
"image-keyboard-response","51","72243","0.0-6.0-1.23","61492ac26b91b5b11ba2c88b","bdp_trlrn","Fri Mar 10 2023 12:20:11 GMT-0700 (Mountain Standard Time)","631332","Untrustworthy,Trustworthy","","","","rating","","","1042","","trustrating_stim/white_00659_941121_fa_edt.bmp","1","","","","","","","","","","",""
"image-keyboard-response","52","72447","0.0-6.0-2.23","61492ac26b91b5b11ba2c88b","bdp_trlrn","Fri Mar 10 2023 12:20:11 GMT-0700 (Mountain Standard Time)","631332","Untrustworthy,Trustworthy","","","","ratingFB","","","null","","trustrating_stim/white_00659_941121_fa_edt.bmp","null","","","","","","","","","","",""
"image-keyboard-response","53","74588","0.0-6.0-1.24","61492ac26b91b5b11ba2c88b","bdp_trlrn","Fri Mar 10 2023 12:20:11 GMT-0700 (Mountain Standard Time)","631332","Untrustworthy,Trustworthy","","","","rating","","","2035","","trustrating_stim/white_mw097.bmp","6","","","","","","","","","","",""
"image-keyboard-response","54","74798","0.0-6.0-2.24","61492ac26b91b5b11ba2c88b","bdp_trlrn","Fri Mar 10 2023 12:20:11 GMT-0700 (Mountain Standard Time)","631332","Untrustworthy,Trustworthy","","","","ratingFB","","","null","","trustrating_stim/white_mw097.bmp","null","","","","","","","","","","",""
"image-keyboard-response","55","77081","0.0-6.0-1.25","61492ac26b91b5b11ba2c88b","bdp_trlrn","Fri Mar 10 2023 12:20:11 GMT-0700 (Mountain Standard Time)","631332","Untrustworthy,Trustworthy","","","","rating","","","2176","","trustrating_stim/white_mw049.bmp","8","","","","","","","","","","",""
"image-keyboard-response","56","77289","0.0-6.0-2.25","61492ac26b91b5b11ba2c88b","bdp_trlrn","Fri Mar 10 2023 12:20:11 GMT-0700 (Mountain Standard Time)","631332","Untrustworthy,Trustworthy","","","","ratingFB","","","null","","trustrating_stim/white_mw049.bmp","null","","","","","","","","","","",""
"image-keyboard-response","57","79104","0.0-6.0-1.26","61492ac26b91b5b11ba2c88b","bdp_trlrn","Fri Mar 10 2023 12:20:11 GMT-0700 (Mountain Standard Time)","631332","Untrustworthy,Trustworthy","","","","rating","","","1704","","trustrating_stim/white_00898_960530_fa_edt.bmp","8","","","","","","","","","","",""
"image-keyboard-response","58","79310","0.0-6.0-2.26","61492ac26b91b5b11ba2c88b","bdp_trlrn","Fri Mar 10 2023 12:20:11 GMT-0700 (Mountain Standard Time)","631332","Untrustworthy,Trustworthy","","","","ratingFB","","","null","","trustrating_stim/white_00898_960530_fa_edt.bmp","null","","","","","","","","","","",""
"image-keyboard-response","59","80809","0.0-6.0-1.27","61492ac26b91b5b11ba2c88b","bdp_trlrn","Fri Mar 10 2023 12:20:11 GMT-0700 (Mountain Standard Time)","631332","Untrustworthy,Trustworthy","","","","rating","","","1395","","trustrating_stim/white_mw089.bmp","7","","","","","","","","","","",""
"image-keyboard-response","60","81015","0.0-6.0-2.27","61492ac26b91b5b11ba2c88b","bdp_trlrn","Fri Mar 10 2023 12:20:11 GMT-0700 (Mountain Standard Time)","631332","Untrustworthy,Trustworthy","","","","ratingFB","","","null","","trustrating_stim/white_mw089.bmp","null","","","","","","","","","","",""
"image-keyboard-response","61","82364","0.0-6.0-1.28","61492ac26b91b5b11ba2c88b","bdp_trlrn","Fri Mar 10 2023 12:20:11 GMT-0700 (Mountain Standard Time)","631332","Untrustworthy,Trustworthy","","","","rating","","","1237","","trustrating_stim/white_00120_931230_fa_edt.bmp","7","","","","","","","","","","",""
"image-keyboard-response","62","82577","0.0-6.0-2.28","61492ac26b91b5b11ba2c88b","bdp_trlrn","Fri Mar 10 2023 12:20:11 GMT-0700 (Mountain Standard Time)","631332","Untrustworthy,Trustworthy","","","","ratingFB","","","null","","trustrating_stim/white_00120_931230_fa_edt.bmp","null","","","","","","","","","","",""
"image-keyboard-response","63","83821","0.0-6.0-1.29","61492ac26b91b5b11ba2c88b","bdp_trlrn","Fri Mar 10 2023 12:20:11 GMT-0700 (Mountain Standard Time)","631332","Untrustworthy,Trustworthy","","","","rating","","","1133","","trustrating_stim/white_00602_940928_fb_edt.bmp","8","","","","","","","","","","",""
"image-keyboard-response","64","84034","0.0-6.0-2.29","61492ac26b91b5b11ba2c88b","bdp_trlrn","Fri Mar 10 2023 12:20:11 GMT-0700 (Mountain Standard Time)","631332","Untrustworthy,Trustworthy","","","","ratingFB","","","null","","trustrating_stim/white_00602_940928_fb_edt.bmp","null","","","","","","","","","","",""
"image-keyboard-response","65","85618","0.0-6.0-1.30","61492ac26b91b5b11ba2c88b","bdp_trlrn","Fri Mar 10 2023 12:20:11 GMT-0700 (Mountain Standard Time)","631332","Untrustworthy,Trustworthy","","","","rating","","","1472","","trustrating_stim/white_mw049.bmp","8","","","","","","","","","","",""
"image-keyboard-response","66","85821","0.0-6.0-2.30","61492ac26b91b5b11ba2c88b","bdp_trlrn","Fri Mar 10 2023 12:20:11 GMT-0700 (Mountain Standard Time)","631332","Untrustworthy,Trustworthy","","","","ratingFB","","","null","","trustrating_stim/white_mw049.bmp","null","","","","","","","","","","",""
"image-keyboard-response","67","88617","0.0-6.0-1.31","61492ac26b91b5b11ba2c88b","bdp_trlrn","Fri Mar 10 2023 12:20:11 GMT-0700 (Mountain Standard Time)","631332","Untrustworthy,Trustworthy","","","","rating","","","2690","","trustrating_stim/white_00519_940519_fb_edt.bmp","4","","","","","","","","","","",""
"image-keyboard-response","68","88823","0.0-6.0-2.31","61492ac26b91b5b11ba2c88b","bdp_trlrn","Fri Mar 10 2023 12:20:11 GMT-0700 (Mountain Standard Time)","631332","Untrustworthy,Trustworthy","","","","ratingFB","","","null","","trustrating_stim/white_00519_940519_fb_edt.bmp","null","","","","","","","","","","",""
"image-keyboard-response","69","90474","0.0-6.0-1.32","61492ac26b91b5b11ba2c88b","bdp_trlrn","Fri Mar 10 2023 12:20:11 GMT-0700 (Mountain Standard Time)","631332","Untrustworthy,Trustworthy","","","","rating","","","1546","","trustrating_stim/white_00129_931230_fb_edt.bmp","6","","","","","","","","","","",""
"image-keyboard-response","70","90680","0.0-6.0-2.32","61492ac26b91b5b11ba2c88b","bdp_trlrn","Fri Mar 10 2023 12:20:11 GMT-0700 (Mountain Standard Time)","631332","Untrustworthy,Trustworthy","","","","ratingFB","","","null","","trustrating_stim/white_00129_931230_fb_edt.bmp","null","","","","","","","","","","",""
"image-keyboard-response","71","91913","0.0-6.0-1.33","61492ac26b91b5b11ba2c88b","bdp_trlrn","Fri Mar 10 2023 12:20:11 GMT-0700 (Mountain Standard Time)","631332","Untrustworthy,Trustworthy","","","","rating","","","1128","","trustrating_stim/white_00577_940928_fa_edt.bmp","1","","","","","","","","","","",""
"image-keyboard-response","72","92120","0.0-6.0-2.33","61492ac26b91b5b11ba2c88b","bdp_trlrn","Fri Mar 10 2023 12:20:11 GMT-0700 (Mountain Standard Time)","631332","Untrustworthy,Trustworthy","","","","ratingFB","","","null","","trustrating_stim/white_00577_940928_fa_edt.bmp","null","","","","","","","","","","",""
"image-keyboard-response","73","93641","0.0-6.0-1.34","61492ac26b91b5b11ba2c88b","bdp_trlrn","Fri Mar 10 2023 12:20:11 GMT-0700 (Mountain Standard Time)","631332","Untrustworthy,Trustworthy","","","","rating","","","1410","","trustrating_stim/white_mw033.bmp","7","","","","","","","","","","",""
"image-keyboard-response","74","93849","0.0-6.0-2.34","61492ac26b91b5b11ba2c88b","bdp_trlrn","Fri Mar 10 2023 12:20:11 GMT-0700 (Mountain Standard Time)","631332","Untrustworthy,Trustworthy","","","","ratingFB","","","null","","trustrating_stim/white_mw033.bmp","null","","","","","","","","","","",""
"image-keyboard-response","75","96158","0.0-6.0-1.35","61492ac26b91b5b11ba2c88b","bdp_trlrn","Fri Mar 10 2023 12:20:11 GMT-0700 (Mountain Standard Time)","631332","Untrustworthy,Trustworthy","","","","rating","","","2197","","trustrating_stim/white_00299_940422_fa_edt.bmp","6","","","","","","","","","","",""
"image-keyboard-response","76","96369","0.0-6.0-2.35","61492ac26b91b5b11ba2c88b","bdp_trlrn","Fri Mar 10 2023 12:20:11 GMT-0700 (Mountain Standard Time)","631332","Untrustworthy,Trustworthy","","","","ratingFB","","","null","","trustrating_stim/white_00299_940422_fa_edt.bmp","null","","","","","","","","","","",""
"image-keyboard-response","77","98904","0.0-6.0-1.36","61492ac26b91b5b11ba2c88b","bdp_trlrn","Fri Mar 10 2023 12:20:11 GMT-0700 (Mountain Standard Time)","631332","Untrustworthy,Trustworthy","","","","rating","","","2423","","trustrating_stim/white_mw084.bmp","4","","","","","","","","","","",""
"image-keyboard-response","78","99109","0.0-6.0-2.36","61492ac26b91b5b11ba2c88b","bdp_trlrn","Fri Mar 10 2023 12:20:11 GMT-0700 (Mountain Standard Time)","631332","Untrustworthy,Trustworthy","","","","ratingFB","","","null","","trustrating_stim/white_mw084.bmp","null","","","","","","","","","","",""
"image-keyboard-response","79","100147","0.0-6.0-1.37","61492ac26b91b5b11ba2c88b","bdp_trlrn","Fri Mar 10 2023 12:20:11 GMT-0700 (Mountain Standard Time)","631332","Untrustworthy,Trustworthy","","","","rating","","","932","","trustrating_stim/white_00659_941121_fa_edt.bmp","1","","","","","","","","","","",""
"image-keyboard-response","80","100351","0.0-6.0-2.37","61492ac26b91b5b11ba2c88b","bdp_trlrn","Fri Mar 10 2023 12:20:11 GMT-0700 (Mountain Standard Time)","631332","Untrustworthy,Trustworthy","","","","ratingFB","","","null","","trustrating_stim/white_00659_941121_fa_edt.bmp","null","","","","","","","","","","",""
"image-keyboard-response","81","101671","0.0-6.0-1.38","61492ac26b91b5b11ba2c88b","bdp_trlrn","Fri Mar 10 2023 12:20:11 GMT-0700 (Mountain Standard Time)","631332","Untrustworthy,Trustworthy","","","","rating","","","1208","","trustrating_stim/white_00807_941205_fb_edt.bmp","1","","","","","","","","","","",""
"image-keyboard-response","82","101877","0.0-6.0-2.38","61492ac26b91b5b11ba2c88b","bdp_trlrn","Fri Mar 10 2023 12:20:11 GMT-0700 (Mountain Standard Time)","631332","Untrustworthy,Trustworthy","","","","ratingFB","","","null","","trustrating_stim/white_00807_941205_fb_edt.bmp","null","","","","","","","","","","",""
"image-keyboard-response","83","103778","0.0-6.0-1.39","61492ac26b91b5b11ba2c88b","bdp_trlrn","Fri Mar 10 2023 12:20:11 GMT-0700 (Mountain Standard Time)","631332","Untrustworthy,Trustworthy","","","","rating","","","1794","","trustrating_stim/white_00761_941201_fb_edt.bmp","6","","","","","","","","","","",""
"image-keyboard-response","84","103985","0.0-6.0-2.39","61492ac26b91b5b11ba2c88b","bdp_trlrn","Fri Mar 10 2023 12:20:11 GMT-0700 (Mountain Standard Time)","631332","Untrustworthy,Trustworthy","","","","ratingFB","","","null","","trustrating_stim/white_00761_941201_fb_edt.bmp","null","","","","","","","","","","",""
"image-keyboard-response","85","104981","0.0-6.0-1.40","61492ac26b91b5b11ba2c88b","bdp_trlrn","Fri Mar 10 2023 12:20:11 GMT-0700 (Mountain Standard Time)","631332","Untrustworthy,Trustworthy","","","","rating","","","884","","trustrating_stim/white_mw060.bmp","1","","","","","","","","","","",""
"image-keyboard-response","86","105192","0.0-6.0-2.40","61492ac26b91b5b11ba2c88b","bdp_trlrn","Fri Mar 10 2023 12:20:11 GMT-0700 (Mountain Standard Time)","631332","Untrustworthy,Trustworthy","","","","ratingFB","","","null","","trustrating_stim/white_mw060.bmp","null","","","","","","","","","","",""
"image-keyboard-response","87","106079","0.0-6.0-1.41","61492ac26b91b5b11ba2c88b","bdp_trlrn","Fri Mar 10 2023 12:20:11 GMT-0700 (Mountain Standard Time)","631332","Untrustworthy,Trustworthy","","","","rating","","","776","","trustrating_stim/white_mw048.bmp","1","","","","","","","","","","",""
"image-keyboard-response","88","106288","0.0-6.0-2.41","61492ac26b91b5b11ba2c88b","bdp_trlrn","Fri Mar 10 2023 12:20:11 GMT-0700 (Mountain Standard Time)","631332","Untrustworthy,Trustworthy","","","","ratingFB","","","null","","trustrating_stim/white_mw048.bmp","null","","","","","","","","","","",""
"image-keyboard-response","89","107285","0.0-6.0-1.42","61492ac26b91b5b11ba2c88b","bdp_trlrn","Fri Mar 10 2023 12:20:11 GMT-0700 (Mountain Standard Time)","631332","Untrustworthy,Trustworthy","","","","rating","","","884","","trustrating_stim/white_00757_941201_fa_edt.bmp","1","","","","","","","","","","",""
"image-keyboard-response","90","107497","0.0-6.0-2.42","61492ac26b91b5b11ba2c88b","bdp_trlrn","Fri Mar 10 2023 12:20:11 GMT-0700 (Mountain Standard Time)","631332","Untrustworthy,Trustworthy","","","","ratingFB","","","null","","trustrating_stim/white_00757_941201_fa_edt.bmp","null","","","","","","","","","","",""
"image-keyboard-response","91","108856","0.0-6.0-1.43","61492ac26b91b5b11ba2c88b","bdp_trlrn","Fri Mar 10 2023 12:20:11 GMT-0700 (Mountain Standard Time)","631332","Untrustworthy,Trustworthy","","","","rating","","","1247","","trustrating_stim/white_mw071.bmp","6","","","","","","","","","","",""
"image-keyboard-response","92","109064","0.0-6.0-2.43","61492ac26b91b5b11ba2c88b","bdp_trlrn","Fri Mar 10 2023 12:20:11 GMT-0700 (Mountain Standard Time)","631332","Untrustworthy,Trustworthy","","","","ratingFB","","","null","","trustrating_stim/white_mw071.bmp","null","","","","","","","","","","",""
"image-keyboard-response","93","110472","0.0-6.0-1.44","61492ac26b91b5b11ba2c88b","bdp_trlrn","Fri Mar 10 2023 12:20:11 GMT-0700 (Mountain Standard Time)","631332","Untrustworthy,Trustworthy","","","","rating","","","1296","","trustrating_stim/white_mw035.bmp","4","","","","","","","","","","",""
"image-keyboard-response","94","110678","0.0-6.0-2.44","61492ac26b91b5b11ba2c88b","bdp_trlrn","Fri Mar 10 2023 12:20:11 GMT-0700 (Mountain Standard Time)","631332","Untrustworthy,Trustworthy","","","","ratingFB","","","null","","trustrating_stim/white_mw035.bmp","null","","","","","","","","","","",""
"image-keyboard-response","95","111600","0.0-6.0-1.45","61492ac26b91b5b11ba2c88b","bdp_trlrn","Fri Mar 10 2023 12:20:11 GMT-0700 (Mountain Standard Time)","631332","Untrustworthy,Trustworthy","","","","rating","","","810","","trustrating_stim/white_00340_940422_fa_edt.bmp","1","","","","","","","","","","",""
"image-keyboard-response","96","111806","0.0-6.0-2.45","61492ac26b91b5b11ba2c88b","bdp_trlrn","Fri Mar 10 2023 12:20:11 GMT-0700 (Mountain Standard Time)","631332","Untrustworthy,Trustworthy","","","","ratingFB","","","null","","trustrating_stim/white_00340_940422_fa_edt.bmp","null","","","","","","","","","","",""
"image-keyboard-response","97","113402","0.0-6.0-1.46","61492ac26b91b5b11ba2c88b","bdp_trlrn","Fri Mar 10 2023 12:20:11 GMT-0700 (Mountain Standard Time)","631332","Untrustworthy,Trustworthy","","","","rating","","","1493","","trustrating_stim/white_mw097.bmp","7","","","","","","","","","","",""
"image-keyboard-response","98","113605","0.0-6.0-2.46","61492ac26b91b5b11ba2c88b","bdp_trlrn","Fri Mar 10 2023 12:20:11 GMT-0700 (Mountain Standard Time)","631332","Untrustworthy,Trustworthy","","","","ratingFB","","","null","","trustrating_stim/white_mw097.bmp","null","","","","","","","","","","",""
"image-keyboard-response","99","115229","0.0-6.0-1.47","61492ac26b91b5b11ba2c88b","bdp_trlrn","Fri Mar 10 2023 12:20:11 GMT-0700 (Mountain Standard Time)","631332","Untrustworthy,Trustworthy","","","","rating","","","1518","","trustrating_stim/white_mw089.bmp","7","","","","","","","","","","",""
"image-keyboard-response","100","115438","0.0-6.0-2.47","61492ac26b91b5b11ba2c88b","bdp_trlrn","Fri Mar 10 2023 12:20:11 GMT-0700 (Mountain Standard Time)","631332","Untrustworthy,Trustworthy","","","","ratingFB","","","null","","trustrating_stim/white_mw089.bmp","null","","","","","","","","","","",""
"image-keyboard-response","101","116773","0.0-6.0-1.48","61492ac26b91b5b11ba2c88b","bdp_trlrn","Fri Mar 10 2023 12:20:11 GMT-0700 (Mountain Standard Time)","631332","Untrustworthy,Trustworthy","","","","rating","","","1224","","trustrating_stim/white_00109_931230_fa_edt.bmp","8","","","","","","","","","","",""
"image-keyboard-response","102","116982","0.0-6.0-2.48","61492ac26b91b5b11ba2c88b","bdp_trlrn","Fri Mar 10 2023 12:20:11 GMT-0700 (Mountain Standard Time)","631332","Untrustworthy,Trustworthy","","","","ratingFB","","","null","","trustrating_stim/white_00109_931230_fa_edt.bmp","null","","","","","","","","","","",""
"image-keyboard-response","103","118189","0.0-6.0-1.49","61492ac26b91b5b11ba2c88b","bdp_trlrn","Fri Mar 10 2023 12:20:11 GMT-0700 (Mountain Standard Time)","631332","Untrustworthy,Trustworthy","","","","rating","","","1102","","trustrating_stim/white_00120_931230_fa_edt.bmp","7","","","","","","","","","","",""
"image-keyboard-response","104","118398","0.0-6.0-2.49","61492ac26b91b5b11ba2c88b","bdp_trlrn","Fri Mar 10 2023 12:20:11 GMT-0700 (Mountain Standard Time)","631332","Untrustworthy,Trustworthy","","","","ratingFB","","","null","","trustrating_stim/white_00120_931230_fa_edt.bmp","null","","","","","","","","","","",""
"image-keyboard-response","105","120111","0.0-6.0-1.50","61492ac26b91b5b11ba2c88b","bdp_trlrn","Fri Mar 10 2023 12:20:11 GMT-0700 (Mountain Standard Time)","631332","Untrustworthy,Trustworthy","","","","rating","","","1607","","trustrating_stim/white_mw046.bmp","4","","","","","","","","","","",""
"image-keyboard-response","106","120320","0.0-6.0-2.50","61492ac26b91b5b11ba2c88b","bdp_trlrn","Fri Mar 10 2023 12:20:11 GMT-0700 (Mountain Standard Time)","631332","Untrustworthy,Trustworthy","","","","ratingFB","","","null","","trustrating_stim/white_mw046.bmp","null","","","","","","","","","","",""
"image-keyboard-response","107","121467","0.0-6.0-1.51","61492ac26b91b5b11ba2c88b","bdp_trlrn","Fri Mar 10 2023 12:20:11 GMT-0700 (Mountain Standard Time)","631332","Untrustworthy,Trustworthy","","","","rating","","","1036","","trustrating_stim/white_mw066.bmp","6","","","","","","","","","","",""
"image-keyboard-response","108","121678","0.0-6.0-2.51","61492ac26b91b5b11ba2c88b","bdp_trlrn","Fri Mar 10 2023 12:20:11 GMT-0700 (Mountain Standard Time)","631332","Untrustworthy,Trustworthy","","","","ratingFB","","","null","","trustrating_stim/white_mw066.bmp","null","","","","","","","","","","",""
"image-keyboard-response","109","123173","0.0-6.0-1.52","61492ac26b91b5b11ba2c88b","bdp_trlrn","Fri Mar 10 2023 12:20:11 GMT-0700 (Mountain Standard Time)","631332","Untrustworthy,Trustworthy","","","","rating","","","1389","","trustrating_stim/white_mw053.bmp","8","","","","","","","","","","",""
"image-keyboard-response","110","123385","0.0-6.0-2.52","61492ac26b91b5b11ba2c88b","bdp_trlrn","Fri Mar 10 2023 12:20:11 GMT-0700 (Mountain Standard Time)","631332","Untrustworthy,Trustworthy","","","","ratingFB","","","null","","trustrating_stim/white_mw053.bmp","null","","","","","","","","","","",""
"image-keyboard-response","111","124815","0.0-6.0-1.53","61492ac26b91b5b11ba2c88b","bdp_trlrn","Fri Mar 10 2023 12:20:11 GMT-0700 (Mountain Standard Time)","631332","Untrustworthy,Trustworthy","","","","rating","","","1319","","trustrating_stim/white_00898_960530_fa_edt.bmp","8","","","","","","","","","","",""
"image-keyboard-response","112","125022","0.0-6.0-2.53","61492ac26b91b5b11ba2c88b","bdp_trlrn","Fri Mar 10 2023 12:20:11 GMT-0700 (Mountain Standard Time)","631332","Untrustworthy,Trustworthy","","","","ratingFB","","","null","","trustrating_stim/white_00898_960530_fa_edt.bmp","null","","","","","","","","","","",""
"image-keyboard-response","113","127662","0.0-6.0-1.54","61492ac26b91b5b11ba2c88b","bdp_trlrn","Fri Mar 10 2023 12:20:11 GMT-0700 (Mountain Standard Time)","631332","Untrustworthy,Trustworthy","","","","rating","","","2529","","trustrating_stim/white_mw099.bmp","4","","","","","","","","","","",""
"image-keyboard-response","114","127872","0.0-6.0-2.54","61492ac26b91b5b11ba2c88b","bdp_trlrn","Fri Mar 10 2023 12:20:11 GMT-0700 (Mountain Standard Time)","631332","Untrustworthy,Trustworthy","","","","ratingFB","","","null","","trustrating_stim/white_mw099.bmp","null","","","","","","","","","","",""
"image-keyboard-response","115","129411","0.0-6.0-1.55","61492ac26b91b5b11ba2c88b","bdp_trlrn","Fri Mar 10 2023 12:20:11 GMT-0700 (Mountain Standard Time)","631332","Untrustworthy,Trustworthy","","","","rating","","","1428","","trustrating_stim/white_mw056.bmp","2","","","","","","","","","","",""
"image-keyboard-response","116","129625","0.0-6.0-2.55","61492ac26b91b5b11ba2c88b","bdp_trlrn","Fri Mar 10 2023 12:20:11 GMT-0700 (Mountain Standard Time)","631332","Untrustworthy,Trustworthy","","","","ratingFB","","","null","","trustrating_stim/white_mw056.bmp","null","","","","","","","","","","",""
"image-keyboard-response","117","130636","0.0-6.0-1.56","61492ac26b91b5b11ba2c88b","bdp_trlrn","Fri Mar 10 2023 12:20:11 GMT-0700 (Mountain Standard Time)","631332","Untrustworthy,Trustworthy","","","","rating","","","899","","trustrating_stim/white_mw063.bmp","1","","","","","","","","","","",""
"image-keyboard-response","118","130849","0.0-6.0-2.56","61492ac26b91b5b11ba2c88b","bdp_trlrn","Fri Mar 10 2023 12:20:11 GMT-0700 (Mountain Standard Time)","631332","Untrustworthy,Trustworthy","","","","ratingFB","","","null","","trustrating_stim/white_mw063.bmp","null","","","","","","","","","","",""
"image-keyboard-response","119","131901","0.0-6.0-1.57","61492ac26b91b5b11ba2c88b","bdp_trlrn","Fri Mar 10 2023 12:20:11 GMT-0700 (Mountain Standard Time)","631332","Untrustworthy,Trustworthy","","","","rating","","","939","","trustrating_stim/white_00223_940128_fb_edt.bmp","3","","","","","","","","","","",""
"image-keyboard-response","120","132109","0.0-6.0-2.57","61492ac26b91b5b11ba2c88b","bdp_trlrn","Fri Mar 10 2023 12:20:11 GMT-0700 (Mountain Standard Time)","631332","Untrustworthy,Trustworthy","","","","ratingFB","","","null","","trustrating_stim/white_00223_940128_fb_edt.bmp","null","","","","","","","","","","",""
"image-keyboard-response","121","133568","0.0-6.0-1.58","61492ac26b91b5b11ba2c88b","bdp_trlrn","Fri Mar 10 2023 12:20:11 GMT-0700 (Mountain Standard Time)","631332","Untrustworthy,Trustworthy","","","","rating","","","1346","","trustrating_stim/white_00602_940928_fb_edt.bmp","8","","","","","","","","","","",""
"image-keyboard-response","122","133775","0.0-6.0-2.58","61492ac26b91b5b11ba2c88b","bdp_trlrn","Fri Mar 10 2023 12:20:11 GMT-0700 (Mountain Standard Time)","631332","Untrustworthy,Trustworthy","","","","ratingFB","","","null","","trustrating_stim/white_00602_940928_fb_edt.bmp","null","","","","","","","","","","",""
"image-keyboard-response","123","136407","0.0-6.0-1.59","61492ac26b91b5b11ba2c88b","bdp_trlrn","Fri Mar 10 2023 12:20:11 GMT-0700 (Mountain Standard Time)","631332","Untrustworthy,Trustworthy","","","","rating","","","2521","","trustrating_stim/white_00785_941205_fb_edt.bmp","3","","","","","","","","","","",""
"image-keyboard-response","124","136614","0.0-6.0-2.59","61492ac26b91b5b11ba2c88b","bdp_trlrn","Fri Mar 10 2023 12:20:11 GMT-0700 (Mountain Standard Time)","631332","Untrustworthy,Trustworthy","","","","ratingFB","","","null","","trustrating_stim/white_00785_941205_fb_edt.bmp","null","","","","","","","","","","",""
"instructions","125","138244","0.0-7.0","61492ac26b91b5b11ba2c88b","bdp_trlrn","Fri Mar 10 2023 12:20:11 GMT-0700 (Mountain Standard Time)","631332","Untrustworthy,Trustworthy","","","","","","[{""page_index"":0,""viewing_time"":1519}]","1520","","","","","","","","","","","","","",""
"instructions","126","227551","0.0-8.0","61492ac26b91b5b11ba2c88b","bdp_trlrn","Fri Mar 10 2023 12:20:11 GMT-0700 (Mountain Standard Time)","631332","Untrustworthy,Trustworthy","","","","","","[{""page_index"":0,""viewing_time"":23627},{""page_index"":1,""viewing_time"":12045},{""page_index"":2,""viewing_time"":8532},{""page_index"":3,""viewing_time"":6826},{""page_index"":4,""viewing_time"":2937},{""page_index"":5,""viewing_time"":7355},{""page_index"":6,""viewing_time"":21564},{""page_index"":7,""viewing_time"":6317}]","89203","","","","","","","","","","","","","",""
"html-keyboard-response","127","231654","0.0-9.0","61492ac26b91b5b11ba2c88b","bdp_trlrn","Fri Mar 10 2023 12:20:11 GMT-0700 (Mountain Standard Time)","631332","Untrustworthy,Trustworthy","","","","","","","4100","","<div class='header' style='text-align:left; position: absolute; top: 5%; left: 5%;'><small>Task 3 of 5</small></div><div class='instruxDiv'><p><strong>1) What is the minimum number of points you can choose to send to your partner?</strong></p><p>a) 0</p><p>b) 1</p><p>c) 5</p>","C","","","","","","","","","","",""
"html-keyboard-response","128","235450","0.0-10.0","61492ac26b91b5b11ba2c88b","bdp_trlrn","Fri Mar 10 2023 12:20:11 GMT-0700 (Mountain Standard Time)","631332","Untrustworthy,Trustworthy","","","","","","","3685","","<div class='header' style='text-align:left; position: absolute; top: 5%; left: 5%;'><small>Task 3 of 5</small></div><div class='instruxDiv'><p><strong>1) What is the minimum number of points you can choose to send to your partner?</strong></p><p>a) 1</p><p>b) 1</p><p style='color:#FF0000'>c) 5</p><h3 style='color:#FF0000'>Incorrect!</h3><h3 class='center-content'>The correct response is b).</h3><h3 class='center-content'>The minimum number of points you can choose to send to your partner is 1 point.</h3><p><em>Press SPACEBAR to continue</em></p></div>"," ","","","","","","","","","","",""
"html-keyboard-response","129","239763","0.0-11.0","61492ac26b91b5b11ba2c88b","bdp_trlrn","Fri Mar 10 2023 12:20:11 GMT-0700 (Mountain Standard Time)","631332","Untrustworthy,Trustworthy","","","","","","","4204","","<div class='header' style='text-align:left; position: absolute; top: 5%; left: 5%;'><small>Task 3 of 5</small></div><div class='instruxDiv'><p><strong>2) What is the maximum number of points you can choose to send to your partner?</strong></p><p>a) 8</p><p>b) 5</p><p>c) 3</p>","B","","","","","","","","","","",""
"html-keyboard-response","130","241107","0.0-12.0","61492ac26b91b5b11ba2c88b","bdp_trlrn","Fri Mar 10 2023 12:20:11 GMT-0700 (Mountain Standard Time)","631332","Untrustworthy,Trustworthy","","","","","","","1237","","<div class='header' style='text-align:left; position: absolute; top: 5%; left: 5%;'><small>Task 3 of 5</small></div><div class='instruxDiv'><p><strong>2) What is the maximum number of points you can choose to send to your partner?</strong></p><p>a) 8</p><p style='color:#00FF00'>b) 5</p><p>c) 3</p><h3 style='color:#00FF00'>Correct!</h3><h3 class='center-content'>The correct response is b).</h3><h3 class='center-content'>The maximum number of points you can choose to send to your partner is 5 points.</h3><p><em>Press SPACEBAR to continue</em></p></div>"," ","","","","","","","","","","",""
"html-keyboard-response","131","243858","0.0-13.0","61492ac26b91b5b11ba2c88b","bdp_trlrn","Fri Mar 10 2023 12:20:11 GMT-0700 (Mountain Standard Time)","631332","Untrustworthy,Trustworthy","","","","","","","2645","","<div class='header' style='text-align:left; position: absolute; top: 5%; left: 5%;'><small>Task 3 of 5</small></div><div class='instruxDiv'><p><strong>3) What happens to the amount of points you send to your partner?</strong></p><p>a) Nothing</p><p>b) It doubles</p><p>c) It quadruples</p>","C","","","","","","","","","","",""
"html-keyboard-response","132","245291","0.0-14.0","61492ac26b91b5b11ba2c88b","bdp_trlrn","Fri Mar 10 2023 12:20:11 GMT-0700 (Mountain Standard Time)","631332","Untrustworthy,Trustworthy","","","","","","","1327","","<div class='header' style='text-align:left; position: absolute; top: 5%; left: 5%;'><small>Task 3 of 5</small></div><div class='instruxDiv'><p><strong>3) What happens to the amount of points you send to your partner?</strong></p><p>a) Nothing</p><p>b) It doubles</p><p style='color:#00FF00'>c) It quadruples</p><h3 style='color:#00FF00'>Correct!</h3><h3 class='center-content'>The correct response is c).</h3><h3 class='center-content'>The amount of points you send to your partner quadruples.</h3><p><em>Press SPACEBAR to continue</em></p></div>"," ","","","","","","","","","","",""
"html-keyboard-response","133","254343","0.0-15.0","61492ac26b91b5b11ba2c88b","bdp_trlrn","Fri Mar 10 2023 12:20:11 GMT-0700 (Mountain Standard Time)","631332","Untrustworthy,Trustworthy","","","","","","","8947","","<div class='header' style='text-align:left; position: absolute; top: 5%; left: 5%;'><small>Task 3 of 5</small></div><div class='instruxDiv'><p><strong>4) If you decided to share 4 out of 5 points with your partner, and they decided to share half of the amount they received with you, how many points would you receive back from them on this round?</strong></p><p>a) 16</p><p>b) 0</p><p>c) 8</p>","C","","","","","","","","","","",""
"html-keyboard-response","134","255875","0.0-16.0","61492ac26b91b5b11ba2c88b","bdp_trlrn","Fri Mar 10 2023 12:20:11 GMT-0700 (Mountain Standard Time)","631332","Untrustworthy,Trustworthy","","","","","","","1426","","<div class='header' style='text-align:left; position: absolute; top: 5%; left: 5%;'><small>Task 3 of 5</small></div><div class='instruxDiv'><p><strong>4) If you decided to share 4 out of 5 points with your partner, and they decided to share half of the amount they received with you, how many points would you receive back from them on this round?</strong></p><p>a) 16</p><p>b) 0</p><p style='color:#00FF00'>c) 8</p><h3 style='color:#00FF00'>Correct!</h3><h3 class='center-content'>The correct response is c).</h3><h3 class='center-content'>If you shared 4 out of 5 points with your partner and they decided to share half of the amount they received with you, you would receive 8 points back (i.e. (4 x 4)/2 = 8).</h3><p><em>Press SPACEBAR to continue</em></p></div>"," ","","","","","","","","","","",""
"html-keyboard-response","135","260989","0.0-17.0","61492ac26b91b5b11ba2c88b","bdp_trlrn","Fri Mar 10 2023 12:20:11 GMT-0700 (Mountain Standard Time)","631332","Untrustworthy,Trustworthy","","","","","","","null","","<div class='header' style='text-align:left; position: absolute; top: 5%; left: 5%;'><small>Task 3 of 5</small></div><div class='instruxDiv'><p>Thank you for completing the quiz<p>These are the actual partners you will be interacting with in the next block:<p><div class='tc' align='center'><img class='introPic' src='trustrating_stim/white_00577_940928_fa_edt.bmp'><br><strong>Richard</strong></div><div class='bl' align='center'><img class='introPic' src='trustrating_stim/white_mw084.bmp'><br><strong>Gavin</strong></div><div class='br' align='center'><img class='introPic' src='trustrating_stim/white_mw049.bmp'><br><strong>Sean</strong></div></div><p>Across <strong>66 rounds</strong> you will interact with each partner <strong>22 times</strong> (in random order).<p style='align:center; color:white'><font <em>Press SPACEBAR to continue</em></p>","null","","","","","","","","","","",""
"instructions","136","269680","0.0-18.0","61492ac26b91b5b11ba2c88b","bdp_trlrn","Fri Mar 10 2023 12:20:11 GMT-0700 (Mountain Standard Time)","631332","Untrustworthy,Trustworthy","","","","","","[{""page_index"":0,""viewing_time"":6300},{""page_index"":1,""viewing_time"":2390}]","8690","","","","","","","","","","","","","",""
"html-keyboard-response","137","272290","0.0-19.0-1.0","61492ac26b91b5b11ba2c88b","bdp_trlrn","Fri Mar 10 2023 12:20:11 GMT-0700 (Mountain Standard Time)","631332","Untrustworthy,Trustworthy","","","","decision","","","2500","","<div class='trialDiv'><img src='trustrating_stim/white_00577_940928_fa_edt.bmp'><br><font class='baseline'><strong>Richard</strong><p>Choose number of points to send.</font><div class='respPicDiv'><img src='img/responseButtonOffersNo0L.png' class='respPic'></div></div>","3","1","Richard","2","Shared","0.65,0.35","11","0.65","trustrating_stim/white_00577_940928_fa_edt.bmp","1","5","1"
"html-keyboard-response","138","272546","0.0-19.0-2.0","61492ac26b91b5b11ba2c88b","bdp_trlrn","Fri Mar 10 2023 12:20:11 GMT-0700 (Mountain Standard Time)","631332","Untrustworthy,Trustworthy","","","","decisionFB","","","null","","<div class='trialDiv'><img src='trustrating_stim/white_00577_940928_fa_edt.bmp'><br><font class='baseline'><strong>Richard</strong><p>Choose number of points to send.</font><div class='respPicDiv'><img src='img/responseButtonOffersNo0L3.png' class='respPic'></div></div>","null","1","Richard","2","Shared","0.65,0.35","11","0.65","trustrating_stim/white_00577_940928_fa_edt.bmp","1","2","1"
"html-keyboard-response","139","273556","0.0-19.0-3.0","61492ac26b91b5b11ba2c88b","bdp_trlrn","Fri Mar 10 2023 12:20:11 GMT-0700 (Mountain Standard Time)","631332","Untrustworthy,Trustworthy","","","","feedback","","","null","","<div class='trialDiv'><img src='trustrating_stim/white_00577_940928_fa_edt.bmp'><br><font class='baseline'><strong>Richard</strong><p>Received: <strong>12</strong></font> &nbsp; &nbsp; &nbsp; &nbsp; &nbsp; &nbsp;<font class='posOutcome'>Shared back: <strong>6</strong></font></font><div class='respPicDiv'><img src='img/responseButtonOffersNo0_wht.png' class='respPic'></div></div>","null","1","Richard","2","Shared","0.65,0.35","11","0.65","trustrating_stim/white_00577_940928_fa_edt.bmp","1","8","1"
"html-keyboard-response","140","275371","0.0-19.0-1.1","61492ac26b91b5b11ba2c88b","bdp_trlrn","Fri Mar 10 2023 12:20:11 GMT-0700 (Mountain Standard Time)","631332","Untrustworthy,Trustworthy","","","","decision","","","1812","","<div class='trialDiv'><img src='trustrating_stim/white_mw049.bmp'><br><font class='baseline'><strong>Sean</strong><p>Choose number of points to send.</font><div class='respPicDiv'><img src='img/responseButtonOffersNo0L.png' class='respPic'></div></div>","3","1","Sean","9","Shared","0.8,0.35","14","0.8","trustrating_stim/white_mw049.bmp","8","13","2"
"html-keyboard-response","141","275628","0.0-19.0-2.1","61492ac26b91b5b11ba2c88b","bdp_trlrn","Fri Mar 10 2023 12:20:11 GMT-0700 (Mountain Standard Time)","631332","Untrustworthy,Trustworthy","","","","decisionFB","","","null","","<div class='trialDiv'><img src='trustrating_stim/white_mw049.bmp'><br><font class='baseline'><strong>Sean</strong><p>Choose number of points to send.</font><div class='respPicDiv'><img src='img/responseButtonOffersNo0L3.png' class='respPic'></div></div>","null","1","Sean","9","Shared","0.8,0.35","14","0.8","trustrating_stim/white_mw049.bmp","8","10","2"
"html-keyboard-response","142","276632","0.0-19.0-3.1","61492ac26b91b5b11ba2c88b","bdp_trlrn","Fri Mar 10 2023 12:20:11 GMT-0700 (Mountain Standard Time)","631332","Untrustworthy,Trustworthy","","","","feedback","","","null","","<div class='trialDiv'><img src='trustrating_stim/white_mw049.bmp'><br><font class='baseline'><strong>Sean</strong><p>Received: <strong>12</strong></font> &nbsp; &nbsp; &nbsp; &nbsp; &nbsp; &nbsp;<font class='posOutcome'>Shared back: <strong>6</strong></font></font><div class='respPicDiv'><img src='img/responseButtonOffersNo0_wht.png' class='respPic'></div></div>","null","1","Sean","9","Shared","0.8,0.35","14","0.8","trustrating_stim/white_mw049.bmp","8","16","2"
"html-keyboard-response","143","277881","0.0-19.0-1.2","61492ac26b91b5b11ba2c88b","bdp_trlrn","Fri Mar 10 2023 12:20:11 GMT-0700 (Mountain Standard Time)","631332","Untrustworthy,Trustworthy","","","","decision","","","1247","","<div class='trialDiv'><img src='trustrating_stim/white_mw084.bmp'><br><font class='baseline'><strong>Gavin</strong><p>Choose number of points to send.</font><div class='respPicDiv'><img src='img/responseButtonOffersNo0L.png' class='respPic'></div></div>","3","1","Gavin","5","Kept","0.2,0.65","11","0.2","trustrating_stim/white_mw084.bmp","4","21","3"
"html-keyboard-response","144","278136","0.0-19.0-2.2","61492ac26b91b5b11ba2c88b","bdp_trlrn","Fri Mar 10 2023 12:20:11 GMT-0700 (Mountain Standard Time)","631332","Untrustworthy,Trustworthy","","","","decisionFB","","","null","","<div class='trialDiv'><img src='trustrating_stim/white_mw084.bmp'><br><font class='baseline'><strong>Gavin</strong><p>Choose number of points to send.</font><div class='respPicDiv'><img src='img/responseButtonOffersNo0L3.png' class='respPic'></div></div>","null","1","Gavin","5","Kept","0.2,0.65","11","0.2","trustrating_stim/white_mw084.bmp","4","18","3"
"html-keyboard-response","145","279146","0.0-19.0-3.2","61492ac26b91b5b11ba2c88b","bdp_trlrn","Fri Mar 10 2023 12:20:11 GMT-0700 (Mountain Standard Time)","631332","Untrustworthy,Trustworthy","","","","feedback","","","null","","<div class='trialDiv'><img src='trustrating_stim/white_mw084.bmp'><br><font class='baseline'><strong>Gavin</strong><p>Received: <strong>12</strong></font> &nbsp; &nbsp; &nbsp; &nbsp; &nbsp; &nbsp;<font class='negOutcome'>Shared back: <strong>0</strong></font></font><div class='respPicDiv'><img src='img/responseButtonOffersNo0_wht.png' class='respPic'></div></div>","null","1","Gavin","5","Kept","0.2,0.65","11","0.2","trustrating_stim/white_mw084.bmp","4","18","3"
"html-keyboard-response","146","281661","0.0-19.0-1.3","61492ac26b91b5b11ba2c88b","bdp_trlrn","Fri Mar 10 2023 12:20:11 GMT-0700 (Mountain Standard Time)","631332","Untrustworthy,Trustworthy","","","","decision","","","2513","","<div class='trialDiv'><img src='trustrating_stim/white_mw049.bmp'><br><font class='baseline'><strong>Sean</strong><p>Choose number of points to send.</font><div class='respPicDiv'><img src='img/responseButtonOffersNo0L.png' class='respPic'></div></div>","3","2","Sean","9","Shared","0.8,0.35","14","0.8","trustrating_stim/white_mw049.bmp","8","23","4"
"html-keyboard-response","147","281920","0.0-19.0-2.3","61492ac26b91b5b11ba2c88b","bdp_trlrn","Fri Mar 10 2023 12:20:11 GMT-0700 (Mountain Standard Time)","631332","Untrustworthy,Trustworthy","","","","decisionFB","","","null","","<div class='trialDiv'><img src='trustrating_stim/white_mw049.bmp'><br><font class='baseline'><strong>Sean</strong><p>Choose number of points to send.</font><div class='respPicDiv'><img src='img/responseButtonOffersNo0L3.png' class='respPic'></div></div>","null","2","Sean","9","Shared","0.8,0.35","14","0.8","trustrating_stim/white_mw049.bmp","8","20","4"
"html-keyboard-response","148","282931","0.0-19.0-3.3","61492ac26b91b5b11ba2c88b","bdp_trlrn","Fri Mar 10 2023 12:20:11 GMT-0700 (Mountain Standard Time)","631332","Untrustworthy,Trustworthy","","","","feedback","","","null","","<div class='trialDiv'><img src='trustrating_stim/white_mw049.bmp'><br><font class='baseline'><strong>Sean</strong><p>Received: <strong>12</strong></font> &nbsp; &nbsp; &nbsp; &nbsp; &nbsp; &nbsp;<font class='posOutcome'>Shared back: <strong>6</strong></font></font><div class='respPicDiv'><img src='img/responseButtonOffersNo0_wht.png' class='respPic'></div></div>","null","2","Sean","9","Shared","0.8,0.35","14","0.8","trustrating_stim/white_mw049.bmp","8","26","4"
"html-keyboard-response","149","284658","0.0-19.0-1.4","61492ac26b91b5b11ba2c88b","bdp_trlrn","Fri Mar 10 2023 12:20:11 GMT-0700 (Mountain Standard Time)","631332","Untrustworthy,Trustworthy","","","","decision","","","1726","","<div class='trialDiv'><img src='trustrating_stim/white_mw084.bmp'><br><font class='baseline'><strong>Gavin</strong><p>Choose number of points to send.</font><div class='respPicDiv'><img src='img/responseButtonOffersNo0L.png' class='respPic'></div></div>","3","2","Gavin","5","Kept","0.2,0.65","11","0.2","trustrating_stim/white_mw084.bmp","4","31","5"
"html-keyboard-response","150","284916","0.0-19.0-2.4","61492ac26b91b5b11ba2c88b","bdp_trlrn","Fri Mar 10 2023 12:20:11 GMT-0700 (Mountain Standard Time)","631332","Untrustworthy,Trustworthy","","","","decisionFB","","","null","","<div class='trialDiv'><img src='trustrating_stim/white_mw084.bmp'><br><font class='baseline'><strong>Gavin</strong><p>Choose number of points to send.</font><div class='respPicDiv'><img src='img/responseButtonOffersNo0L3.png' class='respPic'></div></div>","null","2","Gavin","5","Kept","0.2,0.65","11","0.2","trustrating_stim/white_mw084.bmp","4","28","5"
"html-keyboard-response","151","285920","0.0-19.0-3.4","61492ac26b91b5b11ba2c88b","bdp_trlrn","Fri Mar 10 2023 12:20:11 GMT-0700 (Mountain Standard Time)","631332","Untrustworthy,Trustworthy","","","","feedback","","","null","","<div class='trialDiv'><img src='trustrating_stim/white_mw084.bmp'><br><font class='baseline'><strong>Gavin</strong><p>Received: <strong>12</strong></font> &nbsp; &nbsp; &nbsp; &nbsp; &nbsp; &nbsp;<font class='negOutcome'>Shared back: <strong>0</strong></font></font><div class='respPicDiv'><img src='img/responseButtonOffersNo0_wht.png' class='respPic'></div></div>","null","2","Gavin","5","Kept","0.2,0.65","11","0.2","trustrating_stim/white_mw084.bmp","4","28","5"
"html-keyboard-response","152","287523","0.0-19.0-1.5","61492ac26b91b5b11ba2c88b","bdp_trlrn","Fri Mar 10 2023 12:20:11 GMT-0700 (Mountain Standard Time)","631332","Untrustworthy,Trustworthy","","","","decision","","","1601","","<div class='trialDiv'><img src='trustrating_stim/white_00577_940928_fa_edt.bmp'><br><font class='baseline'><strong>Richard</strong><p>Choose number of points to send.</font><div class='respPicDiv'><img src='img/responseButtonOffersNo0L.png' class='respPic'></div></div>","3","2","Richard","2","Kept","0.65,0.35","11","0.65","trustrating_stim/white_00577_940928_fa_edt.bmp","1","33","6"
"html-keyboard-response","153","287778","0.0-19.0-2.5","61492ac26b91b5b11ba2c88b","bdp_trlrn","Fri Mar 10 2023 12:20:11 GMT-0700 (Mountain Standard Time)","631332","Untrustworthy,Trustworthy","","","","decisionFB","","","null","","<div class='trialDiv'><img src='trustrating_stim/white_00577_940928_fa_edt.bmp'><br><font class='baseline'><strong>Richard</strong><p>Choose number of points to send.</font><div class='respPicDiv'><img src='img/responseButtonOffersNo0L3.png' class='respPic'></div></div>","null","2","Richard","2","Kept","0.65,0.35","11","0.65","trustrating_stim/white_00577_940928_fa_edt.bmp","1","30","6"
"html-keyboard-response","154","288788","0.0-19.0-3.5","61492ac26b91b5b11ba2c88b","bdp_trlrn","Fri Mar 10 2023 12:20:11 GMT-0700 (Mountain Standard Time)","631332","Untrustworthy,Trustworthy","","","","feedback","","","null","","<div class='trialDiv'><img src='trustrating_stim/white_00577_940928_fa_edt.bmp'><br><font class='baseline'><strong>Richard</strong><p>Received: <strong>12</strong></font> &nbsp; &nbsp; &nbsp; &nbsp; &nbsp; &nbsp;<font class='negOutcome'>Shared back: <strong>0</strong></font></font><div class='respPicDiv'><img src='img/responseButtonOffersNo0_wht.png' class='respPic'></div></div>","null","2","Richard","2","Kept","0.65,0.35","11","0.65","trustrating_stim/white_00577_940928_fa_edt.bmp","1","30","6"
"html-keyboard-response","155","290144","0.0-19.0-1.6","61492ac26b91b5b11ba2c88b","bdp_trlrn","Fri Mar 10 2023 12:20:11 GMT-0700 (Mountain Standard Time)","631332","Untrustworthy,Trustworthy","","","","decision","","","1354","","<div class='trialDiv'><img src='trustrating_stim/white_mw084.bmp'><br><font class='baseline'><strong>Gavin</strong><p>Choose number of points to send.</font><div class='respPicDiv'><img src='img/responseButtonOffersNo0L.png' class='respPic'></div></div>","2","3","Gavin","5","Kept","0.2,0.65","11","0.2","trustrating_stim/white_mw084.bmp","4","35","7"
"html-keyboard-response","156","290401","0.0-19.0-2.6","61492ac26b91b5b11ba2c88b","bdp_trlrn","Fri Mar 10 2023 12:20:11 GMT-0700 (Mountain Standard Time)","631332","Untrustworthy,Trustworthy","","","","decisionFB","","","null","","<div class='trialDiv'><img src='trustrating_stim/white_mw084.bmp'><br><font class='baseline'><strong>Gavin</strong><p>Choose number of points to send.</font><div class='respPicDiv'><img src='img/responseButtonOffersNo0L2.png' class='respPic'></div></div>","null","3","Gavin","5","Kept","0.2,0.65","11","0.2","trustrating_stim/white_mw084.bmp","4","33","7"
"html-keyboard-response","157","291411","0.0-19.0-3.6","61492ac26b91b5b11ba2c88b","bdp_trlrn","Fri Mar 10 2023 12:20:11 GMT-0700 (Mountain Standard Time)","631332","Untrustworthy,Trustworthy","","","","feedback","","","null","","<div class='trialDiv'><img src='trustrating_stim/white_mw084.bmp'><br><font class='baseline'><strong>Gavin</strong><p>Received: <strong>8</strong></font> &nbsp; &nbsp; &nbsp; &nbsp; &nbsp; &nbsp;<font class='negOutcome'>Shared back: <strong>0</strong></font></font><div class='respPicDiv'><img src='img/responseButtonOffersNo0_wht.png' class='respPic'></div></div>","null","3","Gavin","5","Kept","0.2,0.65","11","0.2","trustrating_stim/white_mw084.bmp","4","33","7"
"html-keyboard-response","158","292555","0.0-19.0-1.7","61492ac26b91b5b11ba2c88b","bdp_trlrn","Fri Mar 10 2023 12:20:11 GMT-0700 (Mountain Standard Time)","631332","Untrustworthy,Trustworthy","","","","decision","","","1142","","<div class='trialDiv'><img src='trustrating_stim/white_mw049.bmp'><br><font class='baseline'><strong>Sean</strong><p>Choose number of points to send.</font><div class='respPicDiv'><img src='img/responseButtonOffersNo0L.png' class='respPic'></div></div>","4","3","Sean","9","Shared","0.8,0.35","14","0.8","trustrating_stim/white_mw049.bmp","8","38","8"
"html-keyboard-response","159","292810","0.0-19.0-2.7","61492ac26b91b5b11ba2c88b","bdp_trlrn","Fri Mar 10 2023 12:20:11 GMT-0700 (Mountain Standard Time)","631332","Untrustworthy,Trustworthy","","","","decisionFB","","","null","","<div class='trialDiv'><img src='trustrating_stim/white_mw049.bmp'><br><font class='baseline'><strong>Sean</strong><p>Choose number of points to send.</font><div class='respPicDiv'><img src='img/responseButtonOffersNo0L4.png' class='respPic'></div></div>","null","3","Sean","9","Shared","0.8,0.35","14","0.8","trustrating_stim/white_mw049.bmp","8","34","8"
"html-keyboard-response","160","293817","0.0-19.0-3.7","61492ac26b91b5b11ba2c88b","bdp_trlrn","Fri Mar 10 2023 12:20:11 GMT-0700 (Mountain Standard Time)","631332","Untrustworthy,Trustworthy","","","","feedback","","","null","","<div class='trialDiv'><img src='trustrating_stim/white_mw049.bmp'><br><font class='baseline'><strong>Sean</strong><p>Received: <strong>16</strong></font> &nbsp; &nbsp; &nbsp; &nbsp; &nbsp; &nbsp;<font class='posOutcome'>Shared back: <strong>8</strong></font></font><div class='respPicDiv'><img src='img/responseButtonOffersNo0_wht.png' class='respPic'></div></div>","null","3","Sean","9","Shared","0.8,0.35","14","0.8","trustrating_stim/white_mw049.bmp","8","42","8"
"html-keyboard-response","161","294917","0.0-19.0-1.8","61492ac26b91b5b11ba2c88b","bdp_trlrn","Fri Mar 10 2023 12:20:11 GMT-0700 (Mountain Standard Time)","631332","Untrustworthy,Trustworthy","","","","decision","","","1097","","<div class='trialDiv'><img src='trustrating_stim/white_00577_940928_fa_edt.bmp'><br><font class='baseline'><strong>Richard</strong><p>Choose number of points to send.</font><div class='respPicDiv'><img src='img/responseButtonOffersNo0L.png' class='respPic'></div></div>","2","3","Richard","2","Shared","0.65,0.35","11","0.65","trustrating_stim/white_00577_940928_fa_edt.bmp","1","47","9"
"html-keyboard-response","162","295179","0.0-19.0-2.8","61492ac26b91b5b11ba2c88b","bdp_trlrn","Fri Mar 10 2023 12:20:11 GMT-0700 (Mountain Standard Time)","631332","Untrustworthy,Trustworthy","","","","decisionFB","","","null","","<div class='trialDiv'><img src='trustrating_stim/white_00577_940928_fa_edt.bmp'><br><font class='baseline'><strong>Richard</strong><p>Choose number of points to send.</font><div class='respPicDiv'><img src='img/responseButtonOffersNo0L2.png' class='respPic'></div></div>","null","3","Richard","2","Shared","0.65,0.35","11","0.65","trustrating_stim/white_00577_940928_fa_edt.bmp","1","45","9"
"html-keyboard-response","163","296184","0.0-19.0-3.8","61492ac26b91b5b11ba2c88b","bdp_trlrn","Fri Mar 10 2023 12:20:11 GMT-0700 (Mountain Standard Time)","631332","Untrustworthy,Trustworthy","","","","feedback","","","null","","<div class='trialDiv'><img src='trustrating_stim/white_00577_940928_fa_edt.bmp'><br><font class='baseline'><strong>Richard</strong><p>Received: <strong>8</strong></font> &nbsp; &nbsp; &nbsp; &nbsp; &nbsp; &nbsp;<font class='posOutcome'>Shared back: <strong>4</strong></font></font><div class='respPicDiv'><img src='img/responseButtonOffersNo0_wht.png' class='respPic'></div></div>","null","3","Richard","2","Shared","0.65,0.35","11","0.65","trustrating_stim/white_00577_940928_fa_edt.bmp","1","49","9"
"html-keyboard-response","164","298046","0.0-19.0-1.9","61492ac26b91b5b11ba2c88b","bdp_trlrn","Fri Mar 10 2023 12:20:11 GMT-0700 (Mountain Standard Time)","631332","Untrustworthy,Trustworthy","","","","decision","","","1861","","<div class='trialDiv'><img src='trustrating_stim/white_mw084.bmp'><br><font class='baseline'><strong>Gavin</strong><p>Choose number of points to send.</font><div class='respPicDiv'><img src='img/responseButtonOffersNo0L.png' class='respPic'></div></div>","1","4","Gavin","5","Shared","0.2,0.65","11","0.2","trustrating_stim/white_mw084.bmp","4","54","10"
"html-keyboard-response","165","298308","0.0-19.0-2.9","61492ac26b91b5b11ba2c88b","bdp_trlrn","Fri Mar 10 2023 12:20:11 GMT-0700 (Mountain Standard Time)","631332","Untrustworthy,Trustworthy","","","","decisionFB","","","null","","<div class='trialDiv'><img src='trustrating_stim/white_mw084.bmp'><br><font class='baseline'><strong>Gavin</strong><p>Choose number of points to send.</font><div class='respPicDiv'><img src='img/responseButtonOffersNo0L1.png' class='respPic'></div></div>","null","4","Gavin","5","Shared","0.2,0.65","11","0.2","trustrating_stim/white_mw084.bmp","4","53","10"
"html-keyboard-response","166","299312","0.0-19.0-3.9","61492ac26b91b5b11ba2c88b","bdp_trlrn","Fri Mar 10 2023 12:20:11 GMT-0700 (Mountain Standard Time)","631332","Untrustworthy,Trustworthy","","","","feedback","","","null","","<div class='trialDiv'><img src='trustrating_stim/white_mw084.bmp'><br><font class='baseline'><strong>Gavin</strong><p>Received: <strong>4</strong></font> &nbsp; &nbsp; &nbsp; &nbsp; &nbsp; &nbsp;<font class='posOutcome'>Shared back: <strong>2</strong></font></font><div class='respPicDiv'><img src='img/responseButtonOffersNo0_wht.png' class='respPic'></div></div>","null","4","Gavin","5","Shared","0.2,0.65","11","0.2","trustrating_stim/white_mw084.bmp","4","55","10"
"html-keyboard-response","167","300481","0.0-19.0-1.10","61492ac26b91b5b11ba2c88b","bdp_trlrn","Fri Mar 10 2023 12:20:11 GMT-0700 (Mountain Standard Time)","631332","Untrustworthy,Trustworthy","","","","decision","","","1168","","<div class='trialDiv'><img src='trustrating_stim/white_mw049.bmp'><br><font class='baseline'><strong>Sean</strong><p>Choose number of points to send.</font><div class='respPicDiv'><img src='img/responseButtonOffersNo0L.png' class='respPic'></div></div>","5","4","Sean","9","Kept","0.8,0.35","14","0.8","trustrating_stim/white_mw049.bmp","8","60","11"
"html-keyboard-response","168","300740","0.0-19.0-2.10","61492ac26b91b5b11ba2c88b","bdp_trlrn","Fri Mar 10 2023 12:20:11 GMT-0700 (Mountain Standard Time)","631332","Untrustworthy,Trustworthy","","","","decisionFB","","","null","","<div class='trialDiv'><img src='trustrating_stim/white_mw049.bmp'><br><font class='baseline'><strong>Sean</strong><p>Choose number of points to send.</font><div class='respPicDiv'><img src='img/responseButtonOffersNo0L5.png' class='respPic'></div></div>","null","4","Sean","9","Kept","0.8,0.35","14","0.8","trustrating_stim/white_mw049.bmp","8","55","11"
"html-keyboard-response","169","301747","0.0-19.0-3.10","61492ac26b91b5b11ba2c88b","bdp_trlrn","Fri Mar 10 2023 12:20:11 GMT-0700 (Mountain Standard Time)","631332","Untrustworthy,Trustworthy","","","","feedback","","","null","","<div class='trialDiv'><img src='trustrating_stim/white_mw049.bmp'><br><font class='baseline'><strong>Sean</strong><p>Received: <strong>20</strong></font> &nbsp; &nbsp; &nbsp; &nbsp; &nbsp; &nbsp;<font class='negOutcome'>Shared back: <strong>0</strong></font></font><div class='respPicDiv'><img src='img/responseButtonOffersNo0_wht.png' class='respPic'></div></div>","null","4","Sean","9","Kept","0.8,0.35","14","0.8","trustrating_stim/white_mw049.bmp","8","55","11"
"html-keyboard-response","170","303289","0.0-19.0-1.11","61492ac26b91b5b11ba2c88b","bdp_trlrn","Fri Mar 10 2023 12:20:11 GMT-0700 (Mountain Standard Time)","631332","Untrustworthy,Trustworthy","","","","decision","","","1539","","<div class='trialDiv'><img src='trustrating_stim/white_00577_940928_fa_edt.bmp'><br><font class='baseline'><strong>Richard</strong><p>Choose number of points to send.</font><div class='respPicDiv'><img src='img/responseButtonOffersNo0L.png' class='respPic'></div></div>","3","4","Richard","2","Shared","0.65,0.35","11","0.65","trustrating_stim/white_00577_940928_fa_edt.bmp","1","60","12"
"html-keyboard-response","171","303544","0.0-19.0-2.11","61492ac26b91b5b11ba2c88b","bdp_trlrn","Fri Mar 10 2023 12:20:11 GMT-0700 (Mountain Standard Time)","631332","Untrustworthy,Trustworthy","","","","decisionFB","","","null","","<div class='trialDiv'><img src='trustrating_stim/white_00577_940928_fa_edt.bmp'><br><font class='baseline'><strong>Richard</strong><p>Choose number of points to send.</font><div class='respPicDiv'><img src='img/responseButtonOffersNo0L3.png' class='respPic'></div></div>","null","4","Richard","2","Shared","0.65,0.35","11","0.65","trustrating_stim/white_00577_940928_fa_edt.bmp","1","57","12"
"html-keyboard-response","172","304553","0.0-19.0-3.11","61492ac26b91b5b11ba2c88b","bdp_trlrn","Fri Mar 10 2023 12:20:11 GMT-0700 (Mountain Standard Time)","631332","Untrustworthy,Trustworthy","","","","feedback","","","null","","<div class='trialDiv'><img src='trustrating_stim/white_00577_940928_fa_edt.bmp'><br><font class='baseline'><strong>Richard</strong><p>Received: <strong>12</strong></font> &nbsp; &nbsp; &nbsp; &nbsp; &nbsp; &nbsp;<font class='posOutcome'>Shared back: <strong>6</strong></font></font><div class='respPicDiv'><img src='img/responseButtonOffersNo0_wht.png' class='respPic'></div></div>","null","4","Richard","2","Shared","0.65,0.35","11","0.65","trustrating_stim/white_00577_940928_fa_edt.bmp","1","63","12"
"html-keyboard-response","173","306112","0.0-19.0-1.12","61492ac26b91b5b11ba2c88b","bdp_trlrn","Fri Mar 10 2023 12:20:11 GMT-0700 (Mountain Standard Time)","631332","Untrustworthy,Trustworthy","","","","decision","","","1557","","<div class='trialDiv'><img src='trustrating_stim/white_mw049.bmp'><br><font class='baseline'><strong>Sean</strong><p>Choose number of points to send.</font><div class='respPicDiv'><img src='img/responseButtonOffersNo0L.png' class='respPic'></div></div>","4","5","Sean","9","Kept","0.8,0.35","14","0.8","trustrating_stim/white_mw049.bmp","8","68","13"
"html-keyboard-response","174","306370","0.0-19.0-2.12","61492ac26b91b5b11ba2c88b","bdp_trlrn","Fri Mar 10 2023 12:20:11 GMT-0700 (Mountain Standard Time)","631332","Untrustworthy,Trustworthy","","","","decisionFB","","","null","","<div class='trialDiv'><img src='trustrating_stim/white_mw049.bmp'><br><font class='baseline'><strong>Sean</strong><p>Choose number of points to send.</font><div class='respPicDiv'><img src='img/responseButtonOffersNo0L4.png' class='respPic'></div></div>","null","5","Sean","9","Kept","0.8,0.35","14","0.8","trustrating_stim/white_mw049.bmp","8","64","13"
"html-keyboard-response","175","307377","0.0-19.0-3.12","61492ac26b91b5b11ba2c88b","bdp_trlrn","Fri Mar 10 2023 12:20:11 GMT-0700 (Mountain Standard Time)","631332","Untrustworthy,Trustworthy","","","","feedback","","","null","","<div class='trialDiv'><img src='trustrating_stim/white_mw049.bmp'><br><font class='baseline'><strong>Sean</strong><p>Received: <strong>16</strong></font> &nbsp; &nbsp; &nbsp; &nbsp; &nbsp; &nbsp;<font class='negOutcome'>Shared back: <strong>0</strong></font></font><div class='respPicDiv'><img src='img/responseButtonOffersNo0_wht.png' class='respPic'></div></div>","null","5","Sean","9","Kept","0.8,0.35","14","0.8","trustrating_stim/white_mw049.bmp","8","64","13"
"html-keyboard-response","176","308683","0.0-19.0-1.13","61492ac26b91b5b11ba2c88b","bdp_trlrn","Fri Mar 10 2023 12:20:11 GMT-0700 (Mountain Standard Time)","631332","Untrustworthy,Trustworthy","","","","decision","","","1305","","<div class='trialDiv'><img src='trustrating_stim/white_mw084.bmp'><br><font class='baseline'><strong>Gavin</strong><p>Choose number of points to send.</font><div class='respPicDiv'><img src='img/responseButtonOffersNo0L.png' class='respPic'></div></div>","2","5","Gavin","5","Kept","0.2,0.65","11","0.2","trustrating_stim/white_mw084.bmp","4","69","14"
"html-keyboard-response","177","308948","0.0-19.0-2.13","61492ac26b91b5b11ba2c88b","bdp_trlrn","Fri Mar 10 2023 12:20:11 GMT-0700 (Mountain Standard Time)","631332","Untrustworthy,Trustworthy","","","","decisionFB","","","null","","<div class='trialDiv'><img src='trustrating_stim/white_mw084.bmp'><br><font class='baseline'><strong>Gavin</strong><p>Choose number of points to send.</font><div class='respPicDiv'><img src='img/responseButtonOffersNo0L2.png' class='respPic'></div></div>","null","5","Gavin","5","Kept","0.2,0.65","11","0.2","trustrating_stim/white_mw084.bmp","4","67","14"
"html-keyboard-response","178","309952","0.0-19.0-3.13","61492ac26b91b5b11ba2c88b","bdp_trlrn","Fri Mar 10 2023 12:20:11 GMT-0700 (Mountain Standard Time)","631332","Untrustworthy,Trustworthy","","","","feedback","","","null","","<div class='trialDiv'><img src='trustrating_stim/white_mw084.bmp'><br><font class='baseline'><strong>Gavin</strong><p>Received: <strong>8</strong></font> &nbsp; &nbsp; &nbsp; &nbsp; &nbsp; &nbsp;<font class='negOutcome'>Shared back: <strong>0</strong></font></font><div class='respPicDiv'><img src='img/responseButtonOffersNo0_wht.png' class='respPic'></div></div>","null","5","Gavin","5","Kept","0.2,0.65","11","0.2","trustrating_stim/white_mw084.bmp","4","67","14"
"html-keyboard-response","179","312100","0.0-19.0-1.14","61492ac26b91b5b11ba2c88b","bdp_trlrn","Fri Mar 10 2023 12:20:11 GMT-0700 (Mountain Standard Time)","631332","Untrustworthy,Trustworthy","","","","decision","","","2146","","<div class='trialDiv'><img src='trustrating_stim/white_00577_940928_fa_edt.bmp'><br><font class='baseline'><strong>Richard</strong><p>Choose number of points to send.</font><div class='respPicDiv'><img src='img/responseButtonOffersNo0L.png' class='respPic'></div></div>","2","5","Richard","2","Shared","0.65,0.35","11","0.65","trustrating_stim/white_00577_940928_fa_edt.bmp","1","72","15"
"html-keyboard-response","180","312361","0.0-19.0-2.14","61492ac26b91b5b11ba2c88b","bdp_trlrn","Fri Mar 10 2023 12:20:11 GMT-0700 (Mountain Standard Time)","631332","Untrustworthy,Trustworthy","","","","decisionFB","","","null","","<div class='trialDiv'><img src='trustrating_stim/white_00577_940928_fa_edt.bmp'><br><font class='baseline'><strong>Richard</strong><p>Choose number of points to send.</font><div class='respPicDiv'><img src='img/responseButtonOffersNo0L2.png' class='respPic'></div></div>","null","5","Richard","2","Shared","0.65,0.35","11","0.65","trustrating_stim/white_00577_940928_fa_edt.bmp","1","70","15"
"html-keyboard-response","181","313371","0.0-19.0-3.14","61492ac26b91b5b11ba2c88b","bdp_trlrn","Fri Mar 10 2023 12:20:11 GMT-0700 (Mountain Standard Time)","631332","Untrustworthy,Trustworthy","","","","feedback","","","null","","<div class='trialDiv'><img src='trustrating_stim/white_00577_940928_fa_edt.bmp'><br><font class='baseline'><strong>Richard</strong><p>Received: <strong>8</strong></font> &nbsp; &nbsp; &nbsp; &nbsp; &nbsp; &nbsp;<font class='posOutcome'>Shared back: <strong>4</strong></font></font><div class='respPicDiv'><img src='img/responseButtonOffersNo0_wht.png' class='respPic'></div></div>","null","5","Richard","2","Shared","0.65,0.35","11","0.65","trustrating_stim/white_00577_940928_fa_edt.bmp","1","74","15"
"html-keyboard-response","182","314730","0.0-19.0-1.15","61492ac26b91b5b11ba2c88b","bdp_trlrn","Fri Mar 10 2023 12:20:11 GMT-0700 (Mountain Standard Time)","631332","Untrustworthy,Trustworthy","","","","decision","","","1356","","<div class='trialDiv'><img src='trustrating_stim/white_mw049.bmp'><br><font class='baseline'><strong>Sean</strong><p>Choose number of points to send.</font><div class='respPicDiv'><img src='img/responseButtonOffersNo0L.png' class='respPic'></div></div>","4","6","Sean","9","Shared","0.8,0.35","14","0.8","trustrating_stim/white_mw049.bmp","8","79","16"
"html-keyboard-response","183","314985","0.0-19.0-2.15","61492ac26b91b5b11ba2c88b","bdp_trlrn","Fri Mar 10 2023 12:20:11 GMT-0700 (Mountain Standard Time)","631332","Untrustworthy,Trustworthy","","","","decisionFB","","","null","","<div class='trialDiv'><img src='trustrating_stim/white_mw049.bmp'><br><font class='baseline'><strong>Sean</strong><p>Choose number of points to send.</font><div class='respPicDiv'><img src='img/responseButtonOffersNo0L4.png' class='respPic'></div></div>","null","6","Sean","9","Shared","0.8,0.35","14","0.8","trustrating_stim/white_mw049.bmp","8","75","16"
"html-keyboard-response","184","315995","0.0-19.0-3.15","61492ac26b91b5b11ba2c88b","bdp_trlrn","Fri Mar 10 2023 12:20:11 GMT-0700 (Mountain Standard Time)","631332","Untrustworthy,Trustworthy","","","","feedback","","","null","","<div class='trialDiv'><img src='trustrating_stim/white_mw049.bmp'><br><font class='baseline'><strong>Sean</strong><p>Received: <strong>16</strong></font> &nbsp; &nbsp; &nbsp; &nbsp; &nbsp; &nbsp;<font class='posOutcome'>Shared back: <strong>8</strong></font></font><div class='respPicDiv'><img src='img/responseButtonOffersNo0_wht.png' class='respPic'></div></div>","null","6","Sean","9","Shared","0.8,0.35","14","0.8","trustrating_stim/white_mw049.bmp","8","83","16"
"html-keyboard-response","185","317352","0.0-19.0-1.16","61492ac26b91b5b11ba2c88b","bdp_trlrn","Fri Mar 10 2023 12:20:11 GMT-0700 (Mountain Standard Time)","631332","Untrustworthy,Trustworthy","","","","decision","","","1354","","<div class='trialDiv'><img src='trustrating_stim/white_mw084.bmp'><br><font class='baseline'><strong>Gavin</strong><p>Choose number of points to send.</font><div class='respPicDiv'><img src='img/responseButtonOffersNo0L.png' class='respPic'></div></div>","2","6","Gavin","5","Shared","0.2,0.65","11","0.2","trustrating_stim/white_mw084.bmp","4","88","17"
"html-keyboard-response","186","317608","0.0-19.0-2.16","61492ac26b91b5b11ba2c88b","bdp_trlrn","Fri Mar 10 2023 12:20:11 GMT-0700 (Mountain Standard Time)","631332","Untrustworthy,Trustworthy","","","","decisionFB","","","null","","<div class='trialDiv'><img src='trustrating_stim/white_mw084.bmp'><br><font class='baseline'><strong>Gavin</strong><p>Choose number of points to send.</font><div class='respPicDiv'><img src='img/responseButtonOffersNo0L2.png' class='respPic'></div></div>","null","6","Gavin","5","Shared","0.2,0.65","11","0.2","trustrating_stim/white_mw084.bmp","4","86","17"
"html-keyboard-response","187","318619","0.0-19.0-3.16","61492ac26b91b5b11ba2c88b","bdp_trlrn","Fri Mar 10 2023 12:20:11 GMT-0700 (Mountain Standard Time)","631332","Untrustworthy,Trustworthy","","","","feedback","","","null","","<div class='trialDiv'><img src='trustrating_stim/white_mw084.bmp'><br><font class='baseline'><strong>Gavin</strong><p>Received: <strong>8</strong></font> &nbsp; &nbsp; &nbsp; &nbsp; &nbsp; &nbsp;<font class='posOutcome'>Shared back: <strong>4</strong></font></font><div class='respPicDiv'><img src='img/responseButtonOffersNo0_wht.png' class='respPic'></div></div>","null","6","Gavin","5","Shared","0.2,0.65","11","0.2","trustrating_stim/white_mw084.bmp","4","90","17"
"html-keyboard-response","188","320372","0.0-19.0-1.17","61492ac26b91b5b11ba2c88b","bdp_trlrn","Fri Mar 10 2023 12:20:11 GMT-0700 (Mountain Standard Time)","631332","Untrustworthy,Trustworthy","","","","decision","","","1751","","<div class='trialDiv'><img src='trustrating_stim/white_00577_940928_fa_edt.bmp'><br><font class='baseline'><strong>Richard</strong><p>Choose number of points to send.</font><div class='respPicDiv'><img src='img/responseButtonOffersNo0L.png' class='respPic'></div></div>","2","6","Richard","2","Shared","0.65,0.35","11","0.65","trustrating_stim/white_00577_940928_fa_edt.bmp","1","95","18"
"html-keyboard-response","189","320633","0.0-19.0-2.17","61492ac26b91b5b11ba2c88b","bdp_trlrn","Fri Mar 10 2023 12:20:11 GMT-0700 (Mountain Standard Time)","631332","Untrustworthy,Trustworthy","","","","decisionFB","","","null","","<div class='trialDiv'><img src='trustrating_stim/white_00577_940928_fa_edt.bmp'><br><font class='baseline'><strong>Richard</strong><p>Choose number of points to send.</font><div class='respPicDiv'><img src='img/responseButtonOffersNo0L2.png' class='respPic'></div></div>","null","6","Richard","2","Shared","0.65,0.35","11","0.65","trustrating_stim/white_00577_940928_fa_edt.bmp","1","93","18"
"html-keyboard-response","190","321643","0.0-19.0-3.17","61492ac26b91b5b11ba2c88b","bdp_trlrn","Fri Mar 10 2023 12:20:11 GMT-0700 (Mountain Standard Time)","631332","Untrustworthy,Trustworthy","","","","feedback","","","null","","<div class='trialDiv'><img src='trustrating_stim/white_00577_940928_fa_edt.bmp'><br><font class='baseline'><strong>Richard</strong><p>Received: <strong>8</strong></font> &nbsp; &nbsp; &nbsp; &nbsp; &nbsp; &nbsp;<font class='posOutcome'>Shared back: <strong>4</strong></font></font><div class='respPicDiv'><img src='img/responseButtonOffersNo0_wht.png' class='respPic'></div></div>","null","6","Richard","2","Shared","0.65,0.35","11","0.65","trustrating_stim/white_00577_940928_fa_edt.bmp","1","97","18"
"html-keyboard-response","191","322545","0.0-19.0-1.18","61492ac26b91b5b11ba2c88b","bdp_trlrn","Fri Mar 10 2023 12:20:11 GMT-0700 (Mountain Standard Time)","631332","Untrustworthy,Trustworthy","","","","decision","","","900","","<div class='trialDiv'><img src='trustrating_stim/white_mw049.bmp'><br><font class='baseline'><strong>Sean</strong><p>Choose number of points to send.</font><div class='respPicDiv'><img src='img/responseButtonOffersNo0L.png' class='respPic'></div></div>","5","7","Sean","9","Kept","0.8,0.35","14","0.8","trustrating_stim/white_mw049.bmp","8","102","19"
"html-keyboard-response","192","322802","0.0-19.0-2.18","61492ac26b91b5b11ba2c88b","bdp_trlrn","Fri Mar 10 2023 12:20:11 GMT-0700 (Mountain Standard Time)","631332","Untrustworthy,Trustworthy","","","","decisionFB","","","null","","<div class='trialDiv'><img src='trustrating_stim/white_mw049.bmp'><br><font class='baseline'><strong>Sean</strong><p>Choose number of points to send.</font><div class='respPicDiv'><img src='img/responseButtonOffersNo0L5.png' class='respPic'></div></div>","null","7","Sean","9","Kept","0.8,0.35","14","0.8","trustrating_stim/white_mw049.bmp","8","97","19"
"html-keyboard-response","193","323808","0.0-19.0-3.18","61492ac26b91b5b11ba2c88b","bdp_trlrn","Fri Mar 10 2023 12:20:11 GMT-0700 (Mountain Standard Time)","631332","Untrustworthy,Trustworthy","","","","feedback","","","null","","<div class='trialDiv'><img src='trustrating_stim/white_mw049.bmp'><br><font class='baseline'><strong>Sean</strong><p>Received: <strong>20</strong></font> &nbsp; &nbsp; &nbsp; &nbsp; &nbsp; &nbsp;<font class='negOutcome'>Shared back: <strong>0</strong></font></font><div class='respPicDiv'><img src='img/responseButtonOffersNo0_wht.png' class='respPic'></div></div>","null","7","Sean","9","Kept","0.8,0.35","14","0.8","trustrating_stim/white_mw049.bmp","8","97","19"
"html-keyboard-response","194","326569","0.0-19.0-1.19","61492ac26b91b5b11ba2c88b","bdp_trlrn","Fri Mar 10 2023 12:20:11 GMT-0700 (Mountain Standard Time)","631332","Untrustworthy,Trustworthy","","","","decision","","","2758","","<div class='trialDiv'><img src='trustrating_stim/white_00577_940928_fa_edt.bmp'><br><font class='baseline'><strong>Richard</strong><p>Choose number of points to send.</font><div class='respPicDiv'><img src='img/responseButtonOffersNo0L.png' class='respPic'></div></div>","3","7","Richard","2","Kept","0.65,0.35","11","0.65","trustrating_stim/white_00577_940928_fa_edt.bmp","1","102","20"
"html-keyboard-response","195","326827","0.0-19.0-2.19","61492ac26b91b5b11ba2c88b","bdp_trlrn","Fri Mar 10 2023 12:20:11 GMT-0700 (Mountain Standard Time)","631332","Untrustworthy,Trustworthy","","","","decisionFB","","","null","","<div class='trialDiv'><img src='trustrating_stim/white_00577_940928_fa_edt.bmp'><br><font class='baseline'><strong>Richard</strong><p>Choose number of points to send.</font><div class='respPicDiv'><img src='img/responseButtonOffersNo0L3.png' class='respPic'></div></div>","null","7","Richard","2","Kept","0.65,0.35","11","0.65","trustrating_stim/white_00577_940928_fa_edt.bmp","1","99","20"
"html-keyboard-response","196","327831","0.0-19.0-3.19","61492ac26b91b5b11ba2c88b","bdp_trlrn","Fri Mar 10 2023 12:20:11 GMT-0700 (Mountain Standard Time)","631332","Untrustworthy,Trustworthy","","","","feedback","","","null","","<div class='trialDiv'><img src='trustrating_stim/white_00577_940928_fa_edt.bmp'><br><font class='baseline'><strong>Richard</strong><p>Received: <strong>12</strong></font> &nbsp; &nbsp; &nbsp; &nbsp; &nbsp; &nbsp;<font class='negOutcome'>Shared back: <strong>0</strong></font></font><div class='respPicDiv'><img src='img/responseButtonOffersNo0_wht.png' class='respPic'></div></div>","null","7","Richard","2","Kept","0.65,0.35","11","0.65","trustrating_stim/white_00577_940928_fa_edt.bmp","1","99","20"
"html-keyboard-response","197","329105","0.0-19.0-1.20","61492ac26b91b5b11ba2c88b","bdp_trlrn","Fri Mar 10 2023 12:20:11 GMT-0700 (Mountain Standard Time)","631332","Untrustworthy,Trustworthy","","","","decision","","","1272","","<div class='trialDiv'><img src='trustrating_stim/white_mw084.bmp'><br><font class='baseline'><strong>Gavin</strong><p>Choose number of points to send.</font><div class='respPicDiv'><img src='img/responseButtonOffersNo0L.png' class='respPic'></div></div>","1","7","Gavin","5","Kept","0.2,0.65","11","0.2","trustrating_stim/white_mw084.bmp","4","104","21"
"html-keyboard-response","198","329359","0.0-19.0-2.20","61492ac26b91b5b11ba2c88b","bdp_trlrn","Fri Mar 10 2023 12:20:11 GMT-0700 (Mountain Standard Time)","631332","Untrustworthy,Trustworthy","","","","decisionFB","","","null","","<div class='trialDiv'><img src='trustrating_stim/white_mw084.bmp'><br><font class='baseline'><strong>Gavin</strong><p>Choose number of points to send.</font><div class='respPicDiv'><img src='img/responseButtonOffersNo0L1.png' class='respPic'></div></div>","null","7","Gavin","5","Kept","0.2,0.65","11","0.2","trustrating_stim/white_mw084.bmp","4","103","21"
"html-keyboard-response","199","330368","0.0-19.0-3.20","61492ac26b91b5b11ba2c88b","bdp_trlrn","Fri Mar 10 2023 12:20:11 GMT-0700 (Mountain Standard Time)","631332","Untrustworthy,Trustworthy","","","","feedback","","","null","","<div class='trialDiv'><img src='trustrating_stim/white_mw084.bmp'><br><font class='baseline'><strong>Gavin</strong><p>Received: <strong>4</strong></font> &nbsp; &nbsp; &nbsp; &nbsp; &nbsp; &nbsp;<font class='negOutcome'>Shared back: <strong>0</strong></font></font><div class='respPicDiv'><img src='img/responseButtonOffersNo0_wht.png' class='respPic'></div></div>","null","7","Gavin","5","Kept","0.2,0.65","11","0.2","trustrating_stim/white_mw084.bmp","4","103","21"
"html-keyboard-response","200","331206","0.0-19.0-1.21","61492ac26b91b5b11ba2c88b","bdp_trlrn","Fri Mar 10 2023 12:20:11 GMT-0700 (Mountain Standard Time)","631332","Untrustworthy,Trustworthy","","","","decision","","","836","","<div class='trialDiv'><img src='trustrating_stim/white_00577_940928_fa_edt.bmp'><br><font class='baseline'><strong>Richard</strong><p>Choose number of points to send.</font><div class='respPicDiv'><img src='img/responseButtonOffersNo0L.png' class='respPic'></div></div>","1","8","Richard","2","Kept","0.65,0.35","11","0.65","trustrating_stim/white_00577_940928_fa_edt.bmp","1","108","22"
"html-keyboard-response","201","331465","0.0-19.0-2.21","61492ac26b91b5b11ba2c88b","bdp_trlrn","Fri Mar 10 2023 12:20:11 GMT-0700 (Mountain Standard Time)","631332","Untrustworthy,Trustworthy","","","","decisionFB","","","null","","<div class='trialDiv'><img src='trustrating_stim/white_00577_940928_fa_edt.bmp'><br><font class='baseline'><strong>Richard</strong><p>Choose number of points to send.</font><div class='respPicDiv'><img src='img/responseButtonOffersNo0L1.png' class='respPic'></div></div>","null","8","Richard","2","Kept","0.65,0.35","11","0.65","trustrating_stim/white_00577_940928_fa_edt.bmp","1","107","22"
"html-keyboard-response","202","332475","0.0-19.0-3.21","61492ac26b91b5b11ba2c88b","bdp_trlrn","Fri Mar 10 2023 12:20:11 GMT-0700 (Mountain Standard Time)","631332","Untrustworthy,Trustworthy","","","","feedback","","","null","","<div class='trialDiv'><img src='trustrating_stim/white_00577_940928_fa_edt.bmp'><br><font class='baseline'><strong>Richard</strong><p>Received: <strong>4</strong></font> &nbsp; &nbsp; &nbsp; &nbsp; &nbsp; &nbsp;<font class='negOutcome'>Shared back: <strong>0</strong></font></font><div class='respPicDiv'><img src='img/responseButtonOffersNo0_wht.png' class='respPic'></div></div>","null","8","Richard","2","Kept","0.65,0.35","11","0.65","trustrating_stim/white_00577_940928_fa_edt.bmp","1","107","22"
"html-keyboard-response","203","333142","0.0-19.0-1.22","61492ac26b91b5b11ba2c88b","bdp_trlrn","Fri Mar 10 2023 12:20:11 GMT-0700 (Mountain Standard Time)","631332","Untrustworthy,Trustworthy","","","","decision","","","664","","<div class='trialDiv'><img src='trustrating_stim/white_mw049.bmp'><br><font class='baseline'><strong>Sean</strong><p>Choose number of points to send.</font><div class='respPicDiv'><img src='img/responseButtonOffersNo0L.png' class='respPic'></div></div>","4","8","Sean","9","Shared","0.8,0.35","14","0.8","trustrating_stim/white_mw049.bmp","8","112","23"
"html-keyboard-response","204","333401","0.0-19.0-2.22","61492ac26b91b5b11ba2c88b","bdp_trlrn","Fri Mar 10 2023 12:20:11 GMT-0700 (Mountain Standard Time)","631332","Untrustworthy,Trustworthy","","","","decisionFB","","","null","","<div class='trialDiv'><img src='trustrating_stim/white_mw049.bmp'><br><font class='baseline'><strong>Sean</strong><p>Choose number of points to send.</font><div class='respPicDiv'><img src='img/responseButtonOffersNo0L4.png' class='respPic'></div></div>","null","8","Sean","9","Shared","0.8,0.35","14","0.8","trustrating_stim/white_mw049.bmp","8","108","23"
"html-keyboard-response","205","334408","0.0-19.0-3.22","61492ac26b91b5b11ba2c88b","bdp_trlrn","Fri Mar 10 2023 12:20:11 GMT-0700 (Mountain Standard Time)","631332","Untrustworthy,Trustworthy","","","","feedback","","","null","","<div class='trialDiv'><img src='trustrating_stim/white_mw049.bmp'><br><font class='baseline'><strong>Sean</strong><p>Received: <strong>16</strong></font> &nbsp; &nbsp; &nbsp; &nbsp; &nbsp; &nbsp;<font class='posOutcome'>Shared back: <strong>8</strong></font></font><div class='respPicDiv'><img src='img/responseButtonOffersNo0_wht.png' class='respPic'></div></div>","null","8","Sean","9","Shared","0.8,0.35","14","0.8","trustrating_stim/white_mw049.bmp","8","116","23"
"html-keyboard-response","206","335663","0.0-19.0-1.23","61492ac26b91b5b11ba2c88b","bdp_trlrn","Fri Mar 10 2023 12:20:11 GMT-0700 (Mountain Standard Time)","631332","Untrustworthy,Trustworthy","","","","decision","","","1252","","<div class='trialDiv'><img src='trustrating_stim/white_mw084.bmp'><br><font class='baseline'><strong>Gavin</strong><p>Choose number of points to send.</font><div class='respPicDiv'><img src='img/responseButtonOffersNo0L.png' class='respPic'></div></div>","1","8","Gavin","5","Kept","0.2,0.65","11","0.2","trustrating_stim/white_mw084.bmp","4","121","24"
"html-keyboard-response","207","335923","0.0-19.0-2.23","61492ac26b91b5b11ba2c88b","bdp_trlrn","Fri Mar 10 2023 12:20:11 GMT-0700 (Mountain Standard Time)","631332","Untrustworthy,Trustworthy","","","","decisionFB","","","null","","<div class='trialDiv'><img src='trustrating_stim/white_mw084.bmp'><br><font class='baseline'><strong>Gavin</strong><p>Choose number of points to send.</font><div class='respPicDiv'><img src='img/responseButtonOffersNo0L1.png' class='respPic'></div></div>","null","8","Gavin","5","Kept","0.2,0.65","11","0.2","trustrating_stim/white_mw084.bmp","4","120","24"
"html-keyboard-response","208","336927","0.0-19.0-3.23","61492ac26b91b5b11ba2c88b","bdp_trlrn","Fri Mar 10 2023 12:20:11 GMT-0700 (Mountain Standard Time)","631332","Untrustworthy,Trustworthy","","","","feedback","","","null","","<div class='trialDiv'><img src='trustrating_stim/white_mw084.bmp'><br><font class='baseline'><strong>Gavin</strong><p>Received: <strong>4</strong></font> &nbsp; &nbsp; &nbsp; &nbsp; &nbsp; &nbsp;<font class='negOutcome'>Shared back: <strong>0</strong></font></font><div class='respPicDiv'><img src='img/responseButtonOffersNo0_wht.png' class='respPic'></div></div>","null","8","Gavin","5","Kept","0.2,0.65","11","0.2","trustrating_stim/white_mw084.bmp","4","120","24"
"html-keyboard-response","209","338331","0.0-19.0-1.24","61492ac26b91b5b11ba2c88b","bdp_trlrn","Fri Mar 10 2023 12:20:11 GMT-0700 (Mountain Standard Time)","631332","Untrustworthy,Trustworthy","","","","decision","","","1402","","<div class='trialDiv'><img src='trustrating_stim/white_mw049.bmp'><br><font class='baseline'><strong>Sean</strong><p>Choose number of points to send.</font><div class='respPicDiv'><img src='img/responseButtonOffersNo0L.png' class='respPic'></div></div>","5","9","Sean","9","Shared","0.8,0.35","14","0.8","trustrating_stim/white_mw049.bmp","8","125","25"
"html-keyboard-response","210","338593","0.0-19.0-2.24","61492ac26b91b5b11ba2c88b","bdp_trlrn","Fri Mar 10 2023 12:20:11 GMT-0700 (Mountain Standard Time)","631332","Untrustworthy,Trustworthy","","","","decisionFB","","","null","","<div class='trialDiv'><img src='trustrating_stim/white_mw049.bmp'><br><font class='baseline'><strong>Sean</strong><p>Choose number of points to send.</font><div class='respPicDiv'><img src='img/responseButtonOffersNo0L5.png' class='respPic'></div></div>","null","9","Sean","9","Shared","0.8,0.35","14","0.8","trustrating_stim/white_mw049.bmp","8","120","25"
"html-keyboard-response","211","339599","0.0-19.0-3.24","61492ac26b91b5b11ba2c88b","bdp_trlrn","Fri Mar 10 2023 12:20:11 GMT-0700 (Mountain Standard Time)","631332","Untrustworthy,Trustworthy","","","","feedback","","","null","","<div class='trialDiv'><img src='trustrating_stim/white_mw049.bmp'><br><font class='baseline'><strong>Sean</strong><p>Received: <strong>20</strong></font> &nbsp; &nbsp; &nbsp; &nbsp; &nbsp; &nbsp;<font class='posOutcome'>Shared back: <strong>10</strong></font></font><div class='respPicDiv'><img src='img/responseButtonOffersNo0_wht.png' class='respPic'></div></div>","null","9","Sean","9","Shared","0.8,0.35","14","0.8","trustrating_stim/white_mw049.bmp","8","130","25"
"html-keyboard-response","212","340927","0.0-19.0-1.25","61492ac26b91b5b11ba2c88b","bdp_trlrn","Fri Mar 10 2023 12:20:11 GMT-0700 (Mountain Standard Time)","631332","Untrustworthy,Trustworthy","","","","decision","","","1327","","<div class='trialDiv'><img src='trustrating_stim/white_00577_940928_fa_edt.bmp'><br><font class='baseline'><strong>Richard</strong><p>Choose number of points to send.</font><div class='respPicDiv'><img src='img/responseButtonOffersNo0L.png' class='respPic'></div></div>","1","9","Richard","2","Kept","0.65,0.35","11","0.65","trustrating_stim/white_00577_940928_fa_edt.bmp","1","135","26"
"html-keyboard-response","213","341182","0.0-19.0-2.25","61492ac26b91b5b11ba2c88b","bdp_trlrn","Fri Mar 10 2023 12:20:11 GMT-0700 (Mountain Standard Time)","631332","Untrustworthy,Trustworthy","","","","decisionFB","","","null","","<div class='trialDiv'><img src='trustrating_stim/white_00577_940928_fa_edt.bmp'><br><font class='baseline'><strong>Richard</strong><p>Choose number of points to send.</font><div class='respPicDiv'><img src='img/responseButtonOffersNo0L1.png' class='respPic'></div></div>","null","9","Richard","2","Kept","0.65,0.35","11","0.65","trustrating_stim/white_00577_940928_fa_edt.bmp","1","134","26"
"html-keyboard-response","214","342192","0.0-19.0-3.25","61492ac26b91b5b11ba2c88b","bdp_trlrn","Fri Mar 10 2023 12:20:11 GMT-0700 (Mountain Standard Time)","631332","Untrustworthy,Trustworthy","","","","feedback","","","null","","<div class='trialDiv'><img src='trustrating_stim/white_00577_940928_fa_edt.bmp'><br><font class='baseline'><strong>Richard</strong><p>Received: <strong>4</strong></font> &nbsp; &nbsp; &nbsp; &nbsp; &nbsp; &nbsp;<font class='negOutcome'>Shared back: <strong>0</strong></font></font><div class='respPicDiv'><img src='img/responseButtonOffersNo0_wht.png' class='respPic'></div></div>","null","9","Richard","2","Kept","0.65,0.35","11","0.65","trustrating_stim/white_00577_940928_fa_edt.bmp","1","134","26"
"html-keyboard-response","215","343551","0.0-19.0-1.26","61492ac26b91b5b11ba2c88b","bdp_trlrn","Fri Mar 10 2023 12:20:11 GMT-0700 (Mountain Standard Time)","631332","Untrustworthy,Trustworthy","","","","decision","","","1357","","<div class='trialDiv'><img src='trustrating_stim/white_mw084.bmp'><br><font class='baseline'><strong>Gavin</strong><p>Choose number of points to send.</font><div class='respPicDiv'><img src='img/responseButtonOffersNo0L.png' class='respPic'></div></div>","1","9","Gavin","5","Kept","0.2,0.65","11","0.2","trustrating_stim/white_mw084.bmp","4","139","27"
"html-keyboard-response","216","343807","0.0-19.0-2.26","61492ac26b91b5b11ba2c88b","bdp_trlrn","Fri Mar 10 2023 12:20:11 GMT-0700 (Mountain Standard Time)","631332","Untrustworthy,Trustworthy","","","","decisionFB","","","null","","<div class='trialDiv'><img src='trustrating_stim/white_mw084.bmp'><br><font class='baseline'><strong>Gavin</strong><p>Choose number of points to send.</font><div class='respPicDiv'><img src='img/responseButtonOffersNo0L1.png' class='respPic'></div></div>","null","9","Gavin","5","Kept","0.2,0.65","11","0.2","trustrating_stim/white_mw084.bmp","4","138","27"
"html-keyboard-response","217","344816","0.0-19.0-3.26","61492ac26b91b5b11ba2c88b","bdp_trlrn","Fri Mar 10 2023 12:20:11 GMT-0700 (Mountain Standard Time)","631332","Untrustworthy,Trustworthy","","","","feedback","","","null","","<div class='trialDiv'><img src='trustrating_stim/white_mw084.bmp'><br><font class='baseline'><strong>Gavin</strong><p>Received: <strong>4</strong></font> &nbsp; &nbsp; &nbsp; &nbsp; &nbsp; &nbsp;<font class='negOutcome'>Shared back: <strong>0</strong></font></font><div class='respPicDiv'><img src='img/responseButtonOffersNo0_wht.png' class='respPic'></div></div>","null","9","Gavin","5","Kept","0.2,0.65","11","0.2","trustrating_stim/white_mw084.bmp","4","138","27"
"html-keyboard-response","218","346179","0.0-19.0-1.27","61492ac26b91b5b11ba2c88b","bdp_trlrn","Fri Mar 10 2023 12:20:11 GMT-0700 (Mountain Standard Time)","631332","Untrustworthy,Trustworthy","","","","decision","","","1361","","<div class='trialDiv'><img src='trustrating_stim/white_00577_940928_fa_edt.bmp'><br><font class='baseline'><strong>Richard</strong><p>Choose number of points to send.</font><div class='respPicDiv'><img src='img/responseButtonOffersNo0L.png' class='respPic'></div></div>","1","10","Richard","2","Kept","0.65,0.35","11","0.65","trustrating_stim/white_00577_940928_fa_edt.bmp","1","143","28"
"html-keyboard-response","219","346435","0.0-19.0-2.27","61492ac26b91b5b11ba2c88b","bdp_trlrn","Fri Mar 10 2023 12:20:11 GMT-0700 (Mountain Standard Time)","631332","Untrustworthy,Trustworthy","","","","decisionFB","","","null","","<div class='trialDiv'><img src='trustrating_stim/white_00577_940928_fa_edt.bmp'><br><font class='baseline'><strong>Richard</strong><p>Choose number of points to send.</font><div class='respPicDiv'><img src='img/responseButtonOffersNo0L1.png' class='respPic'></div></div>","null","10","Richard","2","Kept","0.65,0.35","11","0.65","trustrating_stim/white_00577_940928_fa_edt.bmp","1","142","28"
