"event","trial","time","trialtype","subject_id","task","startTime","totalTime","labels","numBlurs","trial_type","trial_index","time_elapsed","internal_node_id","view_history","rt","success","stimulus","key_press","aground","name","faceID","outcome","agenttype","agentswpt","agentcurrpshare","face","avgRating","point_total","round"
"focus","0","0","focusevent","63210b26bd58960c97b47ddc","bdp_trlrn","Sat Apr 08 2023 16:22:42 GMT+0100 (British Summer Time)","805402","Trustworthy,Untrustworthy","","","","","","","","","","","","","","","","","","","","",""
"focus","0","0","focusevent","63210b26bd58960c97b47ddc","bdp_trlrn","Sat Apr 08 2023 16:22:42 GMT+0100 (British Summer Time)","805402","Trustworthy,Untrustworthy","","","","","","","","","","","","","","","","","","","","",""
"blur","0","0","blurevent","63210b26bd58960c97b47ddc","bdp_trlrn","Sat Apr 08 2023 16:22:42 GMT+0100 (British Summer Time)","805402","Trustworthy,Untrustworthy","1","","","","","","","","","","","","","","","","","","","",""
"focus","0","0","focusevent","63210b26bd58960c97b47ddc","bdp_trlrn","Sat Apr 08 2023 16:22:42 GMT+0100 (British Summer Time)","805402","Trustworthy,Untrustworthy","","","","","","","","","","","","","","","","","","","","",""
"","","","","63210b26bd58960c97b47ddc","bdp_trlrn","Sat Apr 08 2023 16:22:42 GMT+0100 (British Summer Time)","805402","Trustworthy,Untrustworthy","","pavlovia","0","1","0.0-0.0","","","","","","","","","","","","","","","",""
"","","","","63210b26bd58960c97b47ddc","bdp_trlrn","Sat Apr 08 2023 16:22:42 GMT+0100 (British Summer Time)","805402","Trustworthy,Untrustworthy","","instructions","1","13601","0.0-1.0","[{""page_index"":0,""viewing_time"":13599}]","13599","","","","","","","","","","","","","",""
"blur","2","16382","blurevent","63210b26bd58960c97b47ddc","bdp_trlrn","Sat Apr 08 2023 16:22:42 GMT+0100 (British Summer Time)","805402","Trustworthy,Untrustworthy","2","","","","","","","","","","","","","","","","","","","",""
"focus","2","49171","focusevent","63210b26bd58960c97b47ddc","bdp_trlrn","Sat Apr 08 2023 16:22:42 GMT+0100 (British Summer Time)","805402","Trustworthy,Untrustworthy","","","","","","","","","","","","","","","","","","","","",""
"fullscreenenter","2","54650","fullscreenenter","63210b26bd58960c97b47ddc","bdp_trlrn","Sat Apr 08 2023 16:22:42 GMT+0100 (British Summer Time)","805402","Trustworthy,Untrustworthy","","","","","","","","","","","","","","","","","","","","",""
"","","","","63210b26bd58960c97b47ddc","bdp_trlrn","Sat Apr 08 2023 16:22:42 GMT+0100 (British Summer Time)","805402","Trustworthy,Untrustworthy","","fullscreen","2","55641","0.0-2.0","","","true","","","","","","","","","","","","",""
"","","","","63210b26bd58960c97b47ddc","bdp_trlrn","Sat Apr 08 2023 16:22:42 GMT+0100 (British Summer Time)","805402","Trustworthy,Untrustworthy","","instructions","3","144965","0.0-4.0","[{""page_index"":0,""viewing_time"":77686},{""page_index"":1,""viewing_time"":11637}]","89323","","","","","","","","","","","","","",""
"","","","","63210b26bd58960c97b47ddc","bdp_trlrn","Sat Apr 08 2023 16:22:42 GMT+0100 (British Summer Time)","805402","Trustworthy,Untrustworthy","","instructions","4","148688","0.0-5.0","[{""page_index"":0,""viewing_time"":3723}]","3723","","","","","","","","","","","","","",""
"","","","rating","63210b26bd58960c97b47ddc","bdp_trlrn","Sat Apr 08 2023 16:22:42 GMT+0100 (British Summer Time)","805402","Trustworthy,Untrustworthy","","image-keyboard-response","5","153131","0.0-6.0-1.0","","4341","","trustrating_stim/white_00519_940519_fb_edt.bmp","3","","","","","","","","","","",""
"","","","ratingFB","63210b26bd58960c97b47ddc","bdp_trlrn","Sat Apr 08 2023 16:22:42 GMT+0100 (British Summer Time)","805402","Trustworthy,Untrustworthy","","image-keyboard-response","6","153344","0.0-6.0-2.0","","null","","trustrating_stim/white_00519_940519_fb_edt.bmp","null","","","","","","","","","","",""
"","","","rating","63210b26bd58960c97b47ddc","bdp_trlrn","Sat Apr 08 2023 16:22:42 GMT+0100 (British Summer Time)","805402","Trustworthy,Untrustworthy","","image-keyboard-response","7","155974","0.0-6.0-1.1","","2522","","trustrating_stim/white_mw053.bmp","2","","","","","","","","","","",""
"","","","ratingFB","63210b26bd58960c97b47ddc","bdp_trlrn","Sat Apr 08 2023 16:22:42 GMT+0100 (British Summer Time)","805402","Trustworthy,Untrustworthy","","image-keyboard-response","8","156179","0.0-6.0-2.1","","null","","trustrating_stim/white_mw053.bmp","null","","","","","","","","","","",""
"","","","rating","63210b26bd58960c97b47ddc","bdp_trlrn","Sat Apr 08 2023 16:22:42 GMT+0100 (British Summer Time)","805402","Trustworthy,Untrustworthy","","image-keyboard-response","9","158178","0.0-6.0-1.2","","1897","","trustrating_stim/white_mw063.bmp","7","","","","","","","","","","",""
"","","","ratingFB","63210b26bd58960c97b47ddc","bdp_trlrn","Sat Apr 08 2023 16:22:42 GMT+0100 (British Summer Time)","805402","Trustworthy,Untrustworthy","","image-keyboard-response","10","158387","0.0-6.0-2.2","","null","","trustrating_stim/white_mw063.bmp","null","","","","","","","","","","",""
"","","","rating","63210b26bd58960c97b47ddc","bdp_trlrn","Sat Apr 08 2023 16:22:42 GMT+0100 (British Summer Time)","805402","Trustworthy,Untrustworthy","","image-keyboard-response","11","160229","0.0-6.0-1.3","","1733","","trustrating_stim/white_mw066.bmp","3","","","","","","","","","","",""
"","","","ratingFB","63210b26bd58960c97b47ddc","bdp_trlrn","Sat Apr 08 2023 16:22:42 GMT+0100 (British Summer Time)","805402","Trustworthy,Untrustworthy","","image-keyboard-response","12","160432","0.0-6.0-2.3","","null","","trustrating_stim/white_mw066.bmp","null","","","","","","","","","","",""
"","","","rating","63210b26bd58960c97b47ddc","bdp_trlrn","Sat Apr 08 2023 16:22:42 GMT+0100 (British Summer Time)","805402","Trustworthy,Untrustworthy","","image-keyboard-response","13","163204","0.0-6.0-1.4","","2662","","trustrating_stim/white_00299_940422_fa_edt.bmp","4","","","","","","","","","","",""
"","","","ratingFB","63210b26bd58960c97b47ddc","bdp_trlrn","Sat Apr 08 2023 16:22:42 GMT+0100 (British Summer Time)","805402","Trustworthy,Untrustworthy","","image-keyboard-response","14","163410","0.0-6.0-2.4","","null","","trustrating_stim/white_00299_940422_fa_edt.bmp","null","","","","","","","","","","",""
"","","","rating","63210b26bd58960c97b47ddc","bdp_trlrn","Sat Apr 08 2023 16:22:42 GMT+0100 (British Summer Time)","805402","Trustworthy,Untrustworthy","","image-keyboard-response","15","166966","0.0-6.0-1.5","","3447","","trustrating_stim/white_mw048.bmp","7","","","","","","","","","","",""
"","","","ratingFB","63210b26bd58960c97b47ddc","bdp_trlrn","Sat Apr 08 2023 16:22:42 GMT+0100 (British Summer Time)","805402","Trustworthy,Untrustworthy","","image-keyboard-response","16","167169","0.0-6.0-2.5","","null","","trustrating_stim/white_mw048.bmp","null","","","","","","","","","","",""
"","","","rating","63210b26bd58960c97b47ddc","bdp_trlrn","Sat Apr 08 2023 16:22:42 GMT+0100 (British Summer Time)","805402","Trustworthy,Untrustworthy","","image-keyboard-response","17","168572","0.0-6.0-1.6","","1301","","trustrating_stim/white_00761_941201_fb_edt.bmp","7","","","","","","","","","","",""
"","","","ratingFB","63210b26bd58960c97b47ddc","bdp_trlrn","Sat Apr 08 2023 16:22:42 GMT+0100 (British Summer Time)","805402","Trustworthy,Untrustworthy","","image-keyboard-response","18","168775","0.0-6.0-2.6","","null","","trustrating_stim/white_00761_941201_fb_edt.bmp","null","","","","","","","","","","",""
"","","","rating","63210b26bd58960c97b47ddc","bdp_trlrn","Sat Apr 08 2023 16:22:42 GMT+0100 (British Summer Time)","805402","Trustworthy,Untrustworthy","","image-keyboard-response","19","170418","0.0-6.0-1.7","","1542","","trustrating_stim/white_mw084.bmp","5","","","","","","","","","","",""
"","","","ratingFB","63210b26bd58960c97b47ddc","bdp_trlrn","Sat Apr 08 2023 16:22:42 GMT+0100 (British Summer Time)","805402","Trustworthy,Untrustworthy","","image-keyboard-response","20","170634","0.0-6.0-2.7","","null","","trustrating_stim/white_mw084.bmp","null","","","","","","","","","","",""
"","","","rating","63210b26bd58960c97b47ddc","bdp_trlrn","Sat Apr 08 2023 16:22:42 GMT+0100 (British Summer Time)","805402","Trustworthy,Untrustworthy","","image-keyboard-response","21","171990","0.0-6.0-1.8","","1246","","trustrating_stim/white_mw033.bmp","4","","","","","","","","","","",""
"","","","ratingFB","63210b26bd58960c97b47ddc","bdp_trlrn","Sat Apr 08 2023 16:22:42 GMT+0100 (British Summer Time)","805402","Trustworthy,Untrustworthy","","image-keyboard-response","22","172202","0.0-6.0-2.8","","null","","trustrating_stim/white_mw033.bmp","null","","","","","","","","","","",""
"","","","rating","63210b26bd58960c97b47ddc","bdp_trlrn","Sat Apr 08 2023 16:22:42 GMT+0100 (British Summer Time)","805402","Trustworthy,Untrustworthy","","image-keyboard-response","23","173942","0.0-6.0-1.9","","1630","","trustrating_stim/white_00757_941201_fa_edt.bmp","5","","","","","","","","","","",""
"","","","ratingFB","63210b26bd58960c97b47ddc","bdp_trlrn","Sat Apr 08 2023 16:22:42 GMT+0100 (British Summer Time)","805402","Trustworthy,Untrustworthy","","image-keyboard-response","24","174148","0.0-6.0-2.9","","null","","trustrating_stim/white_00757_941201_fa_edt.bmp","null","","","","","","","","","","",""
"","","","rating","63210b26bd58960c97b47ddc","bdp_trlrn","Sat Apr 08 2023 16:22:42 GMT+0100 (British Summer Time)","805402","Trustworthy,Untrustworthy","","image-keyboard-response","25","176024","0.0-6.0-1.10","","1767","","trustrating_stim/white_00120_931230_fa_edt.bmp","3","","","","","","","","","","",""
"","","","ratingFB","63210b26bd58960c97b47ddc","bdp_trlrn","Sat Apr 08 2023 16:22:42 GMT+0100 (British Summer Time)","805402","Trustworthy,Untrustworthy","","image-keyboard-response","26","176239","0.0-6.0-2.10","","null","","trustrating_stim/white_00120_931230_fa_edt.bmp","null","","","","","","","","","","",""
"","","","rating","63210b26bd58960c97b47ddc","bdp_trlrn","Sat Apr 08 2023 16:22:42 GMT+0100 (British Summer Time)","805402","Trustworthy,Untrustworthy","","image-keyboard-response","27","177667","0.0-6.0-1.11","","1319","","trustrating_stim/white_mw056.bmp","5","","","","","","","","","","",""
"","","","ratingFB","63210b26bd58960c97b47ddc","bdp_trlrn","Sat Apr 08 2023 16:22:42 GMT+0100 (British Summer Time)","805402","Trustworthy,Untrustworthy","","image-keyboard-response","28","177878","0.0-6.0-2.11","","null","","trustrating_stim/white_mw056.bmp","null","","","","","","","","","","",""
"","","","rating","63210b26bd58960c97b47ddc","bdp_trlrn","Sat Apr 08 2023 16:22:42 GMT+0100 (British Summer Time)","805402","Trustworthy,Untrustworthy","","image-keyboard-response","29","180177","0.0-6.0-1.12","","2198","","trustrating_stim/white_00602_940928_fb_edt.bmp","3","","","","","","","","","","",""
"","","","ratingFB","63210b26bd58960c97b47ddc","bdp_trlrn","Sat Apr 08 2023 16:22:42 GMT+0100 (British Summer Time)","805402","Trustworthy,Untrustworthy","","image-keyboard-response","30","180380","0.0-6.0-2.12","","null","","trustrating_stim/white_00602_940928_fb_edt.bmp","null","","","","","","","","","","",""
"","","","rating","63210b26bd58960c97b47ddc","bdp_trlrn","Sat Apr 08 2023 16:22:42 GMT+0100 (British Summer Time)","805402","Trustworthy,Untrustworthy","","image-keyboard-response","31","182420","0.0-6.0-1.13","","1930","","trustrating_stim/white_00340_940422_fa_edt.bmp","8","","","","","","","","","","",""
"","","","ratingFB","63210b26bd58960c97b47ddc","bdp_trlrn","Sat Apr 08 2023 16:22:42 GMT+0100 (British Summer Time)","805402","Trustworthy,Untrustworthy","","image-keyboard-response","32","182636","0.0-6.0-2.13","","null","","trustrating_stim/white_00340_940422_fa_edt.bmp","null","","","","","","","","","","",""
"","","","rating","63210b26bd58960c97b47ddc","bdp_trlrn","Sat Apr 08 2023 16:22:42 GMT+0100 (British Summer Time)","805402","Trustworthy,Untrustworthy","","image-keyboard-response","33","184356","0.0-6.0-1.14","","1611","","trustrating_stim/white_00129_931230_fb_edt.bmp","4","","","","","","","","","","",""
"","","","ratingFB","63210b26bd58960c97b47ddc","bdp_trlrn","Sat Apr 08 2023 16:22:42 GMT+0100 (British Summer Time)","805402","Trustworthy,Untrustworthy","","image-keyboard-response","34","184568","0.0-6.0-2.14","","null","","trustrating_stim/white_00129_931230_fb_edt.bmp","null","","","","","","","","","","",""
"","","","rating","63210b26bd58960c97b47ddc","bdp_trlrn","Sat Apr 08 2023 16:22:42 GMT+0100 (British Summer Time)","805402","Trustworthy,Untrustworthy","","image-keyboard-response","35","186336","0.0-6.0-1.15","","1667","","trustrating_stim/white_00659_941121_fa_edt.bmp","4","","","","","","","","","","",""
"","","","ratingFB","63210b26bd58960c97b47ddc","bdp_trlrn","Sat Apr 08 2023 16:22:42 GMT+0100 (British Summer Time)","805402","Trustworthy,Untrustworthy","","image-keyboard-response","36","186540","0.0-6.0-2.15","","null","","trustrating_stim/white_00659_941121_fa_edt.bmp","null","","","","","","","","","","",""
"","","","rating","63210b26bd58960c97b47ddc","bdp_trlrn","Sat Apr 08 2023 16:22:42 GMT+0100 (British Summer Time)","805402","Trustworthy,Untrustworthy","","image-keyboard-response","37","187823","0.0-6.0-1.16","","1174","","trustrating_stim/white_00577_940928_fa_edt.bmp","5","","","","","","","","","","",""
"","","","ratingFB","63210b26bd58960c97b47ddc","bdp_trlrn","Sat Apr 08 2023 16:22:42 GMT+0100 (British Summer Time)","805402","Trustworthy,Untrustworthy","","image-keyboard-response","38","188037","0.0-6.0-2.16","","null","","trustrating_stim/white_00577_940928_fa_edt.bmp","null","","","","","","","","","","",""
"","","","rating","63210b26bd58960c97b47ddc","bdp_trlrn","Sat Apr 08 2023 16:22:42 GMT+0100 (British Summer Time)","805402","Trustworthy,Untrustworthy","","image-keyboard-response","39","190248","0.0-6.0-1.17","","2103","","trustrating_stim/white_mw089.bmp","6","","","","","","","","","","",""
"","","","ratingFB","63210b26bd58960c97b47ddc","bdp_trlrn","Sat Apr 08 2023 16:22:42 GMT+0100 (British Summer Time)","805402","Trustworthy,Untrustworthy","","image-keyboard-response","40","190452","0.0-6.0-2.17","","null","","trustrating_stim/white_mw089.bmp","null","","","","","","","","","","",""
"","","","rating","63210b26bd58960c97b47ddc","bdp_trlrn","Sat Apr 08 2023 16:22:42 GMT+0100 (British Summer Time)","805402","Trustworthy,Untrustworthy","","image-keyboard-response","41","193150","0.0-6.0-1.18","","2588","","trustrating_stim/white_mw049.bmp","5","","","","","","","","","","",""
"","","","ratingFB","63210b26bd58960c97b47ddc","bdp_trlrn","Sat Apr 08 2023 16:22:42 GMT+0100 (British Summer Time)","805402","Trustworthy,Untrustworthy","","image-keyboard-response","42","193353","0.0-6.0-2.18","","null","","trustrating_stim/white_mw049.bmp","null","","","","","","","","","","",""
"","","","rating","63210b26bd58960c97b47ddc","bdp_trlrn","Sat Apr 08 2023 16:22:42 GMT+0100 (British Summer Time)","805402","Trustworthy,Untrustworthy","","image-keyboard-response","43","195144","0.0-6.0-1.19","","1689","","trustrating_stim/white_mw046.bmp","7","","","","","","","","","","",""
"","","","ratingFB","63210b26bd58960c97b47ddc","bdp_trlrn","Sat Apr 08 2023 16:22:42 GMT+0100 (British Summer Time)","805402","Trustworthy,Untrustworthy","","image-keyboard-response","44","195347","0.0-6.0-2.19","","null","","trustrating_stim/white_mw046.bmp","null","","","","","","","","","","",""
"","","","rating","63210b26bd58960c97b47ddc","bdp_trlrn","Sat Apr 08 2023 16:22:42 GMT+0100 (British Summer Time)","805402","Trustworthy,Untrustworthy","","image-keyboard-response","45","197652","0.0-6.0-1.20","","2204","","trustrating_stim/white_mw035.bmp","5","","","","","","","","","","",""
"","","","ratingFB","63210b26bd58960c97b47ddc","bdp_trlrn","Sat Apr 08 2023 16:22:42 GMT+0100 (British Summer Time)","805402","Trustworthy,Untrustworthy","","image-keyboard-response","46","197868","0.0-6.0-2.20","","null","","trustrating_stim/white_mw035.bmp","null","","","","","","","","","","",""
"","","","rating","63210b26bd58960c97b47ddc","bdp_trlrn","Sat Apr 08 2023 16:22:42 GMT+0100 (British Summer Time)","805402","Trustworthy,Untrustworthy","","image-keyboard-response","47","201276","0.0-6.0-1.21","","3300","","trustrating_stim/white_mw099.bmp","4","","","","","","","","","","",""
"","","","ratingFB","63210b26bd58960c97b47ddc","bdp_trlrn","Sat Apr 08 2023 16:22:42 GMT+0100 (British Summer Time)","805402","Trustworthy,Untrustworthy","","image-keyboard-response","48","201482","0.0-6.0-2.21","","null","","trustrating_stim/white_mw099.bmp","null","","","","","","","","","","",""
"","","","rating","63210b26bd58960c97b47ddc","bdp_trlrn","Sat Apr 08 2023 16:22:42 GMT+0100 (British Summer Time)","805402","Trustworthy,Untrustworthy","","image-keyboard-response","49","204100","0.0-6.0-1.22","","2517","","trustrating_stim/white_mw071.bmp","5","","","","","","","","","","",""
"","","","ratingFB","63210b26bd58960c97b47ddc","bdp_trlrn","Sat Apr 08 2023 16:22:42 GMT+0100 (British Summer Time)","805402","Trustworthy,Untrustworthy","","image-keyboard-response","50","204305","0.0-6.0-2.22","","null","","trustrating_stim/white_mw071.bmp","null","","","","","","","","","","",""
"","","","rating","63210b26bd58960c97b47ddc","bdp_trlrn","Sat Apr 08 2023 16:22:42 GMT+0100 (British Summer Time)","805402","Trustworthy,Untrustworthy","","image-keyboard-response","51","206368","0.0-6.0-1.23","","1954","","trustrating_stim/white_mw097.bmp","6","","","","","","","","","","",""
"","","","ratingFB","63210b26bd58960c97b47ddc","bdp_trlrn","Sat Apr 08 2023 16:22:42 GMT+0100 (British Summer Time)","805402","Trustworthy,Untrustworthy","","image-keyboard-response","52","206578","0.0-6.0-2.23","","null","","trustrating_stim/white_mw097.bmp","null","","","","","","","","","","",""
"","","","rating","63210b26bd58960c97b47ddc","bdp_trlrn","Sat Apr 08 2023 16:22:42 GMT+0100 (British Summer Time)","805402","Trustworthy,Untrustworthy","","image-keyboard-response","53","208962","0.0-6.0-1.24","","2282","","trustrating_stim/white_00898_960530_fa_edt.bmp","4","","","","","","","","","","",""
"","","","ratingFB","63210b26bd58960c97b47ddc","bdp_trlrn","Sat Apr 08 2023 16:22:42 GMT+0100 (British Summer Time)","805402","Trustworthy,Untrustworthy","","image-keyboard-response","54","209178","0.0-6.0-2.24","","null","","trustrating_stim/white_00898_960530_fa_edt.bmp","null","","","","","","","","","","",""
"","","","rating","63210b26bd58960c97b47ddc","bdp_trlrn","Sat Apr 08 2023 16:22:42 GMT+0100 (British Summer Time)","805402","Trustworthy,Untrustworthy","","image-keyboard-response","55","211453","0.0-6.0-1.25","","2167","","trustrating_stim/white_00109_931230_fa_edt.bmp","1","","","","","","","","","","",""
"","","","ratingFB","63210b26bd58960c97b47ddc","bdp_trlrn","Sat Apr 08 2023 16:22:42 GMT+0100 (British Summer Time)","805402","Trustworthy,Untrustworthy","","image-keyboard-response","56","211654","0.0-6.0-2.25","","null","","trustrating_stim/white_00109_931230_fa_edt.bmp","null","","","","","","","","","","",""
"","","","rating","63210b26bd58960c97b47ddc","bdp_trlrn","Sat Apr 08 2023 16:22:42 GMT+0100 (British Summer Time)","805402","Trustworthy,Untrustworthy","","image-keyboard-response","57","213489","0.0-6.0-1.26","","1725","","trustrating_stim/white_00785_941205_fb_edt.bmp","7","","","","","","","","","","",""
"","","","ratingFB","63210b26bd58960c97b47ddc","bdp_trlrn","Sat Apr 08 2023 16:22:42 GMT+0100 (British Summer Time)","805402","Trustworthy,Untrustworthy","","image-keyboard-response","58","213697","0.0-6.0-2.26","","null","","trustrating_stim/white_00785_941205_fb_edt.bmp","null","","","","","","","","","","",""
"","","","rating","63210b26bd58960c97b47ddc","bdp_trlrn","Sat Apr 08 2023 16:22:42 GMT+0100 (British Summer Time)","805402","Trustworthy,Untrustworthy","","image-keyboard-response","59","215565","0.0-6.0-1.27","","1767","","trustrating_stim/white_00223_940128_fb_edt.bmp","4","","","","","","","","","","",""
"","","","ratingFB","63210b26bd58960c97b47ddc","bdp_trlrn","Sat Apr 08 2023 16:22:42 GMT+0100 (British Summer Time)","805402","Trustworthy,Untrustworthy","","image-keyboard-response","60","215768","0.0-6.0-2.27","","null","","trustrating_stim/white_00223_940128_fb_edt.bmp","null","","","","","","","","","","",""
"","","","rating","63210b26bd58960c97b47ddc","bdp_trlrn","Sat Apr 08 2023 16:22:42 GMT+0100 (British Summer Time)","805402","Trustworthy,Untrustworthy","","image-keyboard-response","61","217203","0.0-6.0-1.28","","1325","","trustrating_stim/white_mw060.bmp","7","","","","","","","","","","",""
"","","","ratingFB","63210b26bd58960c97b47ddc","bdp_trlrn","Sat Apr 08 2023 16:22:42 GMT+0100 (British Summer Time)","805402","Trustworthy,Untrustworthy","","image-keyboard-response","62","217416","0.0-6.0-2.28","","null","","trustrating_stim/white_mw060.bmp","null","","","","","","","","","","",""
"","","","rating","63210b26bd58960c97b47ddc","bdp_trlrn","Sat Apr 08 2023 16:22:42 GMT+0100 (British Summer Time)","805402","Trustworthy,Untrustworthy","","image-keyboard-response","63","219103","0.0-6.0-1.29","","1586","","trustrating_stim/white_00807_941205_fb_edt.bmp","7","","","","","","","","","","",""
"","","","ratingFB","63210b26bd58960c97b47ddc","bdp_trlrn","Sat Apr 08 2023 16:22:42 GMT+0100 (British Summer Time)","805402","Trustworthy,Untrustworthy","","image-keyboard-response","64","219317","0.0-6.0-2.29","","null","","trustrating_stim/white_00807_941205_fb_edt.bmp","null","","","","","","","","","","",""
"","","","rating","63210b26bd58960c97b47ddc","bdp_trlrn","Sat Apr 08 2023 16:22:42 GMT+0100 (British Summer Time)","805402","Trustworthy,Untrustworthy","","image-keyboard-response","65","221867","0.0-6.0-1.30","","2439","","trustrating_stim/white_00757_941201_fa_edt.bmp","6","","","","","","","","","","",""
"","","","ratingFB","63210b26bd58960c97b47ddc","bdp_trlrn","Sat Apr 08 2023 16:22:42 GMT+0100 (British Summer Time)","805402","Trustworthy,Untrustworthy","","image-keyboard-response","66","222080","0.0-6.0-2.30","","null","","trustrating_stim/white_00757_941201_fa_edt.bmp","null","","","","","","","","","","",""
"","","","rating","63210b26bd58960c97b47ddc","bdp_trlrn","Sat Apr 08 2023 16:22:42 GMT+0100 (British Summer Time)","805402","Trustworthy,Untrustworthy","","image-keyboard-response","67","224337","0.0-6.0-1.31","","2156","","trustrating_stim/white_00659_941121_fa_edt.bmp","4","","","","","","","","","","",""
"","","","ratingFB","63210b26bd58960c97b47ddc","bdp_trlrn","Sat Apr 08 2023 16:22:42 GMT+0100 (British Summer Time)","805402","Trustworthy,Untrustworthy","","image-keyboard-response","68","224545","0.0-6.0-2.31","","null","","trustrating_stim/white_00659_941121_fa_edt.bmp","null","","","","","","","","","","",""
"","","","rating","63210b26bd58960c97b47ddc","bdp_trlrn","Sat Apr 08 2023 16:22:42 GMT+0100 (British Summer Time)","805402","Trustworthy,Untrustworthy","","image-keyboard-response","69","226037","0.0-6.0-1.32","","1381","","trustrating_stim/white_00602_940928_fb_edt.bmp","3","","","","","","","","","","",""
"","","","ratingFB","63210b26bd58960c97b47ddc","bdp_trlrn","Sat Apr 08 2023 16:22:42 GMT+0100 (British Summer Time)","805402","Trustworthy,Untrustworthy","","image-keyboard-response","70","226241","0.0-6.0-2.32","","null","","trustrating_stim/white_00602_940928_fb_edt.bmp","null","","","","","","","","","","",""
"","","","rating","63210b26bd58960c97b47ddc","bdp_trlrn","Sat Apr 08 2023 16:22:42 GMT+0100 (British Summer Time)","805402","Trustworthy,Untrustworthy","","image-keyboard-response","71","227468","0.0-6.0-1.33","","1118","","trustrating_stim/white_mw053.bmp","2","","","","","","","","","","",""
"","","","ratingFB","63210b26bd58960c97b47ddc","bdp_trlrn","Sat Apr 08 2023 16:22:42 GMT+0100 (British Summer Time)","805402","Trustworthy,Untrustworthy","","image-keyboard-response","72","227672","0.0-6.0-2.33","","null","","trustrating_stim/white_mw053.bmp","null","","","","","","","","","","",""
"","","","rating","63210b26bd58960c97b47ddc","bdp_trlrn","Sat Apr 08 2023 16:22:42 GMT+0100 (British Summer Time)","805402","Trustworthy,Untrustworthy","","image-keyboard-response","73","229414","0.0-6.0-1.34","","1640","","trustrating_stim/white_mw097.bmp","6","","","","","","","","","","",""
"","","","ratingFB","63210b26bd58960c97b47ddc","bdp_trlrn","Sat Apr 08 2023 16:22:42 GMT+0100 (British Summer Time)","805402","Trustworthy,Untrustworthy","","image-keyboard-response","74","229615","0.0-6.0-2.34","","null","","trustrating_stim/white_mw097.bmp","null","","","","","","","","","","",""
"","","","rating","63210b26bd58960c97b47ddc","bdp_trlrn","Sat Apr 08 2023 16:22:42 GMT+0100 (British Summer Time)","805402","Trustworthy,Untrustworthy","","image-keyboard-response","75","231720","0.0-6.0-1.35","","2004","","trustrating_stim/white_mw099.bmp","2","","","","","","","","","","",""
"","","","ratingFB","63210b26bd58960c97b47ddc","bdp_trlrn","Sat Apr 08 2023 16:22:42 GMT+0100 (British Summer Time)","805402","Trustworthy,Untrustworthy","","image-keyboard-response","76","231922","0.0-6.0-2.35","","null","","trustrating_stim/white_mw099.bmp","null","","","","","","","","","","",""
"","","","rating","63210b26bd58960c97b47ddc","bdp_trlrn","Sat Apr 08 2023 16:22:42 GMT+0100 (British Summer Time)","805402","Trustworthy,Untrustworthy","","image-keyboard-response","77","233884","0.0-6.0-1.36","","1852","","trustrating_stim/white_00299_940422_fa_edt.bmp","5","","","","","","","","","","",""
"","","","ratingFB","63210b26bd58960c97b47ddc","bdp_trlrn","Sat Apr 08 2023 16:22:42 GMT+0100 (British Summer Time)","805402","Trustworthy,Untrustworthy","","image-keyboard-response","78","234092","0.0-6.0-2.36","","null","","trustrating_stim/white_00299_940422_fa_edt.bmp","null","","","","","","","","","","",""
"","","","rating","63210b26bd58960c97b47ddc","bdp_trlrn","Sat Apr 08 2023 16:22:42 GMT+0100 (British Summer Time)","805402","Trustworthy,Untrustworthy","","image-keyboard-response","79","236267","0.0-6.0-1.37","","2066","","trustrating_stim/white_mw048.bmp","6","","","","","","","","","","",""
"","","","ratingFB","63210b26bd58960c97b47ddc","bdp_trlrn","Sat Apr 08 2023 16:22:42 GMT+0100 (British Summer Time)","805402","Trustworthy,Untrustworthy","","image-keyboard-response","80","236481","0.0-6.0-2.37","","null","","trustrating_stim/white_mw048.bmp","null","","","","","","","","","","",""
"","","","rating","63210b26bd58960c97b47ddc","bdp_trlrn","Sat Apr 08 2023 16:22:42 GMT+0100 (British Summer Time)","805402","Trustworthy,Untrustworthy","","image-keyboard-response","81","237804","0.0-6.0-1.38","","1214","","trustrating_stim/white_00129_931230_fb_edt.bmp","4","","","","","","","","","","",""
"","","","ratingFB","63210b26bd58960c97b47ddc","bdp_trlrn","Sat Apr 08 2023 16:22:42 GMT+0100 (British Summer Time)","805402","Trustworthy,Untrustworthy","","image-keyboard-response","82","238010","0.0-6.0-2.38","","null","","trustrating_stim/white_00129_931230_fb_edt.bmp","null","","","","","","","","","","",""
"","","","rating","63210b26bd58960c97b47ddc","bdp_trlrn","Sat Apr 08 2023 16:22:42 GMT+0100 (British Summer Time)","805402","Trustworthy,Untrustworthy","","image-keyboard-response","83","239326","0.0-6.0-1.39","","1207","","trustrating_stim/white_mw049.bmp","4","","","","","","","","","","",""
"","","","ratingFB","63210b26bd58960c97b47ddc","bdp_trlrn","Sat Apr 08 2023 16:22:42 GMT+0100 (British Summer Time)","805402","Trustworthy,Untrustworthy","","image-keyboard-response","84","239537","0.0-6.0-2.39","","null","","trustrating_stim/white_mw049.bmp","null","","","","","","","","","","",""
"","","","rating","63210b26bd58960c97b47ddc","bdp_trlrn","Sat Apr 08 2023 16:22:42 GMT+0100 (British Summer Time)","805402","Trustworthy,Untrustworthy","","image-keyboard-response","85","241347","0.0-6.0-1.40","","1700","","trustrating_stim/white_mw033.bmp","5","","","","","","","","","","",""
"","","","ratingFB","63210b26bd58960c97b47ddc","bdp_trlrn","Sat Apr 08 2023 16:22:42 GMT+0100 (British Summer Time)","805402","Trustworthy,Untrustworthy","","image-keyboard-response","86","241550","0.0-6.0-2.40","","null","","trustrating_stim/white_mw033.bmp","null","","","","","","","","","","",""
"","","","rating","63210b26bd58960c97b47ddc","bdp_trlrn","Sat Apr 08 2023 16:22:42 GMT+0100 (British Summer Time)","805402","Trustworthy,Untrustworthy","","image-keyboard-response","87","243263","0.0-6.0-1.41","","1602","","trustrating_stim/white_00223_940128_fb_edt.bmp","4","","","","","","","","","","",""
"","","","ratingFB","63210b26bd58960c97b47ddc","bdp_trlrn","Sat Apr 08 2023 16:22:42 GMT+0100 (British Summer Time)","805402","Trustworthy,Untrustworthy","","image-keyboard-response","88","243480","0.0-6.0-2.41","","null","","trustrating_stim/white_00223_940128_fb_edt.bmp","null","","","","","","","","","","",""
"","","","rating","63210b26bd58960c97b47ddc","bdp_trlrn","Sat Apr 08 2023 16:22:42 GMT+0100 (British Summer Time)","805402","Trustworthy,Untrustworthy","","image-keyboard-response","89","245653","0.0-6.0-1.42","","2064","","trustrating_stim/white_mw056.bmp","5","","","","","","","","","","",""
"","","","ratingFB","63210b26bd58960c97b47ddc","bdp_trlrn","Sat Apr 08 2023 16:22:42 GMT+0100 (British Summer Time)","805402","Trustworthy,Untrustworthy","","image-keyboard-response","90","245868","0.0-6.0-2.42","","null","","trustrating_stim/white_mw056.bmp","null","","","","","","","","","","",""
"","","","rating","63210b26bd58960c97b47ddc","bdp_trlrn","Sat Apr 08 2023 16:22:42 GMT+0100 (British Summer Time)","805402","Trustworthy,Untrustworthy","","image-keyboard-response","91","247769","0.0-6.0-1.43","","1792","","trustrating_stim/white_00785_941205_fb_edt.bmp","8","","","","","","","","","","",""
"","","","ratingFB","63210b26bd58960c97b47ddc","bdp_trlrn","Sat Apr 08 2023 16:22:42 GMT+0100 (British Summer Time)","805402","Trustworthy,Untrustworthy","","image-keyboard-response","92","247979","0.0-6.0-2.43","","null","","trustrating_stim/white_00785_941205_fb_edt.bmp","null","","","","","","","","","","",""
"","","","rating","63210b26bd58960c97b47ddc","bdp_trlrn","Sat Apr 08 2023 16:22:42 GMT+0100 (British Summer Time)","805402","Trustworthy,Untrustworthy","","image-keyboard-response","93","249614","0.0-6.0-1.44","","1532","","trustrating_stim/white_mw066.bmp","4","","","","","","","","","","",""
"","","","ratingFB","63210b26bd58960c97b47ddc","bdp_trlrn","Sat Apr 08 2023 16:22:42 GMT+0100 (British Summer Time)","805402","Trustworthy,Untrustworthy","","image-keyboard-response","94","249821","0.0-6.0-2.44","","null","","trustrating_stim/white_mw066.bmp","null","","","","","","","","","","",""
"","","","rating","63210b26bd58960c97b47ddc","bdp_trlrn","Sat Apr 08 2023 16:22:42 GMT+0100 (British Summer Time)","805402","Trustworthy,Untrustworthy","","image-keyboard-response","95","251278","0.0-6.0-1.45","","1349","","trustrating_stim/white_00807_941205_fb_edt.bmp","8","","","","","","","","","","",""
"","","","ratingFB","63210b26bd58960c97b47ddc","bdp_trlrn","Sat Apr 08 2023 16:22:42 GMT+0100 (British Summer Time)","805402","Trustworthy,Untrustworthy","","image-keyboard-response","96","251484","0.0-6.0-2.45","","null","","trustrating_stim/white_00807_941205_fb_edt.bmp","null","","","","","","","","","","",""
"","","","rating","63210b26bd58960c97b47ddc","bdp_trlrn","Sat Apr 08 2023 16:22:42 GMT+0100 (British Summer Time)","805402","Trustworthy,Untrustworthy","","image-keyboard-response","97","253035","0.0-6.0-1.46","","1449","","trustrating_stim/white_00109_931230_fa_edt.bmp","2","","","","","","","","","","",""
"","","","ratingFB","63210b26bd58960c97b47ddc","bdp_trlrn","Sat Apr 08 2023 16:22:42 GMT+0100 (British Summer Time)","805402","Trustworthy,Untrustworthy","","image-keyboard-response","98","253246","0.0-6.0-2.46","","null","","trustrating_stim/white_00109_931230_fa_edt.bmp","null","","","","","","","","","","",""
"","","","rating","63210b26bd58960c97b47ddc","bdp_trlrn","Sat Apr 08 2023 16:22:42 GMT+0100 (British Summer Time)","805402","Trustworthy,Untrustworthy","","image-keyboard-response","99","255738","0.0-6.0-1.47","","2382","","trustrating_stim/white_00761_941201_fb_edt.bmp","5","","","","","","","","","","",""
"","","","ratingFB","63210b26bd58960c97b47ddc","bdp_trlrn","Sat Apr 08 2023 16:22:42 GMT+0100 (British Summer Time)","805402","Trustworthy,Untrustworthy","","image-keyboard-response","100","255941","0.0-6.0-2.47","","null","","trustrating_stim/white_00761_941201_fb_edt.bmp","null","","","","","","","","","","",""
"","","","rating","63210b26bd58960c97b47ddc","bdp_trlrn","Sat Apr 08 2023 16:22:42 GMT+0100 (British Summer Time)","805402","Trustworthy,Untrustworthy","","image-keyboard-response","101","257576","0.0-6.0-1.48","","1524","","trustrating_stim/white_mw071.bmp","6","","","","","","","","","","",""
"","","","ratingFB","63210b26bd58960c97b47ddc","bdp_trlrn","Sat Apr 08 2023 16:22:42 GMT+0100 (British Summer Time)","805402","Trustworthy,Untrustworthy","","image-keyboard-response","102","257785","0.0-6.0-2.48","","null","","trustrating_stim/white_mw071.bmp","null","","","","","","","","","","",""
"","","","rating","63210b26bd58960c97b47ddc","bdp_trlrn","Sat Apr 08 2023 16:22:42 GMT+0100 (British Summer Time)","805402","Trustworthy,Untrustworthy","","image-keyboard-response","103","263205","0.0-6.0-1.49","","5318","","trustrating_stim/white_00519_940519_fb_edt.bmp","2","","","","","","","","","","",""
"","","","ratingFB","63210b26bd58960c97b47ddc","bdp_trlrn","Sat Apr 08 2023 16:22:42 GMT+0100 (British Summer Time)","805402","Trustworthy,Untrustworthy","","image-keyboard-response","104","263410","0.0-6.0-2.49","","null","","trustrating_stim/white_00519_940519_fb_edt.bmp","null","","","","","","","","","","",""
"","","","rating","63210b26bd58960c97b47ddc","bdp_trlrn","Sat Apr 08 2023 16:22:42 GMT+0100 (British Summer Time)","805402","Trustworthy,Untrustworthy","","image-keyboard-response","105","265588","0.0-6.0-1.50","","2069","","trustrating_stim/white_mw035.bmp","4","","","","","","","","","","",""
"","","","ratingFB","63210b26bd58960c97b47ddc","bdp_trlrn","Sat Apr 08 2023 16:22:42 GMT+0100 (British Summer Time)","805402","Trustworthy,Untrustworthy","","image-keyboard-response","106","265802","0.0-6.0-2.50","","null","","trustrating_stim/white_mw035.bmp","null","","","","","","","","","","",""
"","","","rating","63210b26bd58960c97b47ddc","bdp_trlrn","Sat Apr 08 2023 16:22:42 GMT+0100 (British Summer Time)","805402","Trustworthy,Untrustworthy","","image-keyboard-response","107","267129","0.0-6.0-1.51","","1218","","trustrating_stim/white_00120_931230_fa_edt.bmp","3","","","","","","","","","","",""
"","","","ratingFB","63210b26bd58960c97b47ddc","bdp_trlrn","Sat Apr 08 2023 16:22:42 GMT+0100 (British Summer Time)","805402","Trustworthy,Untrustworthy","","image-keyboard-response","108","267344","0.0-6.0-2.51","","null","","trustrating_stim/white_00120_931230_fa_edt.bmp","null","","","","","","","","","","",""
"","","","rating","63210b26bd58960c97b47ddc","bdp_trlrn","Sat Apr 08 2023 16:22:42 GMT+0100 (British Summer Time)","805402","Trustworthy,Untrustworthy","","image-keyboard-response","109","269431","0.0-6.0-1.52","","1979","","trustrating_stim/white_mw089.bmp","6","","","","","","","","","","",""
"","","","ratingFB","63210b26bd58960c97b47ddc","bdp_trlrn","Sat Apr 08 2023 16:22:42 GMT+0100 (British Summer Time)","805402","Trustworthy,Untrustworthy","","image-keyboard-response","110","269642","0.0-6.0-2.52","","null","","trustrating_stim/white_mw089.bmp","null","","","","","","","","","","",""
"","","","rating","63210b26bd58960c97b47ddc","bdp_trlrn","Sat Apr 08 2023 16:22:42 GMT+0100 (British Summer Time)","805402","Trustworthy,Untrustworthy","","image-keyboard-response","111","271465","0.0-6.0-1.53","","1713","","trustrating_stim/white_00577_940928_fa_edt.bmp","5","","","","","","","","","","",""
"","","","ratingFB","63210b26bd58960c97b47ddc","bdp_trlrn","Sat Apr 08 2023 16:22:42 GMT+0100 (British Summer Time)","805402","Trustworthy,Untrustworthy","","image-keyboard-response","112","271668","0.0-6.0-2.53","","null","","trustrating_stim/white_00577_940928_fa_edt.bmp","null","","","","","","","","","","",""
"","","","rating","63210b26bd58960c97b47ddc","bdp_trlrn","Sat Apr 08 2023 16:22:42 GMT+0100 (British Summer Time)","805402","Trustworthy,Untrustworthy","","image-keyboard-response","113","274326","0.0-6.0-1.54","","2557","","trustrating_stim/white_mw046.bmp","7","","","","","","","","","","",""
"","","","ratingFB","63210b26bd58960c97b47ddc","bdp_trlrn","Sat Apr 08 2023 16:22:42 GMT+0100 (British Summer Time)","805402","Trustworthy,Untrustworthy","","image-keyboard-response","114","274534","0.0-6.0-2.54","","null","","trustrating_stim/white_mw046.bmp","null","","","","","","","","","","",""
"","","","rating","63210b26bd58960c97b47ddc","bdp_trlrn","Sat Apr 08 2023 16:22:42 GMT+0100 (British Summer Time)","805402","Trustworthy,Untrustworthy","","image-keyboard-response","115","276078","0.0-6.0-1.55","","1434","","trustrating_stim/white_00340_940422_fa_edt.bmp","8","","","","","","","","","","",""
"","","","ratingFB","63210b26bd58960c97b47ddc","bdp_trlrn","Sat Apr 08 2023 16:22:42 GMT+0100 (British Summer Time)","805402","Trustworthy,Untrustworthy","","image-keyboard-response","116","276293","0.0-6.0-2.55","","null","","trustrating_stim/white_00340_940422_fa_edt.bmp","null","","","","","","","","","","",""
"","","","rating","63210b26bd58960c97b47ddc","bdp_trlrn","Sat Apr 08 2023 16:22:42 GMT+0100 (British Summer Time)","805402","Trustworthy,Untrustworthy","","image-keyboard-response","117","277809","0.0-6.0-1.56","","1406","","trustrating_stim/white_mw063.bmp","7","","","","","","","","","","",""
"","","","ratingFB","63210b26bd58960c97b47ddc","bdp_trlrn","Sat Apr 08 2023 16:22:42 GMT+0100 (British Summer Time)","805402","Trustworthy,Untrustworthy","","image-keyboard-response","118","278010","0.0-6.0-2.56","","null","","trustrating_stim/white_mw063.bmp","null","","","","","","","","","","",""
"","","","rating","63210b26bd58960c97b47ddc","bdp_trlrn","Sat Apr 08 2023 16:22:42 GMT+0100 (British Summer Time)","805402","Trustworthy,Untrustworthy","","image-keyboard-response","119","279916","0.0-6.0-1.57","","1804","","trustrating_stim/white_mw084.bmp","5","","","","","","","","","","",""
"","","","ratingFB","63210b26bd58960c97b47ddc","bdp_trlrn","Sat Apr 08 2023 16:22:42 GMT+0100 (British Summer Time)","805402","Trustworthy,Untrustworthy","","image-keyboard-response","120","280127","0.0-6.0-2.57","","null","","trustrating_stim/white_mw084.bmp","null","","","","","","","","","","",""
"","","","rating","63210b26bd58960c97b47ddc","bdp_trlrn","Sat Apr 08 2023 16:22:42 GMT+0100 (British Summer Time)","805402","Trustworthy,Untrustworthy","","image-keyboard-response","121","282150","0.0-6.0-1.58","","1921","","trustrating_stim/white_00898_960530_fa_edt.bmp","4","","","","","","","","","","",""
"","","","ratingFB","63210b26bd58960c97b47ddc","bdp_trlrn","Sat Apr 08 2023 16:22:42 GMT+0100 (British Summer Time)","805402","Trustworthy,Untrustworthy","","image-keyboard-response","122","282354","0.0-6.0-2.58","","null","","trustrating_stim/white_00898_960530_fa_edt.bmp","null","","","","","","","","","","",""
"","","","rating","63210b26bd58960c97b47ddc","bdp_trlrn","Sat Apr 08 2023 16:22:42 GMT+0100 (British Summer Time)","805402","Trustworthy,Untrustworthy","","image-keyboard-response","123","283795","0.0-6.0-1.59","","1333","","trustrating_stim/white_mw060.bmp","6","","","","","","","","","","",""
"","","","ratingFB","63210b26bd58960c97b47ddc","bdp_trlrn","Sat Apr 08 2023 16:22:42 GMT+0100 (British Summer Time)","805402","Trustworthy,Untrustworthy","","image-keyboard-response","124","284010","0.0-6.0-2.59","","null","","trustrating_stim/white_mw060.bmp","null","","","","","","","","","","",""
"","","","","63210b26bd58960c97b47ddc","bdp_trlrn","Sat Apr 08 2023 16:22:42 GMT+0100 (British Summer Time)","805402","Trustworthy,Untrustworthy","","instructions","125","286626","0.0-7.0","[{""page_index"":0,""viewing_time"":2507}]","2507","","","","","","","","","","","","","",""
"","","","","63210b26bd58960c97b47ddc","bdp_trlrn","Sat Apr 08 2023 16:22:42 GMT+0100 (British Summer Time)","805402","Trustworthy,Untrustworthy","","instructions","126","406287","0.0-8.0","[{""page_index"":0,""viewing_time"":34913},{""page_index"":1,""viewing_time"":2959},{""page_index"":2,""viewing_time"":8155},{""page_index"":3,""viewing_time"":6736},{""page_index"":4,""viewing_time"":11044},{""page_index"":5,""viewing_time"":12511},{""page_index"":6,""viewing_time"":25980},{""page_index"":7,""viewing_time"":17253}]","119551","","","","","","","","","","","","","",""
"","","","","63210b26bd58960c97b47ddc","bdp_trlrn","Sat Apr 08 2023 16:22:42 GMT+0100 (British Summer Time)","805402","Trustworthy,Untrustworthy","","html-keyboard-response","127","441084","0.0-9.0","","34796","","<div class='header' style='text-align:left; position: absolute; top: 5%; left: 5%;'><small>Task 2 of 5</small></div><div class='instruxDiv'><p><strong>1) What is the minimum number of points you can choose to send to your partner?</strong></p><p>a) 0</p><p>b) 1</p><p>c) 5</p>","B","","","","","","","","","","",""
"","","","","63210b26bd58960c97b47ddc","bdp_trlrn","Sat Apr 08 2023 16:22:42 GMT+0100 (British Summer Time)","805402","Trustworthy,Untrustworthy","","html-keyboard-response","128","444709","0.0-10.0","","3517","","<div class='header' style='text-align:left; position: absolute; top: 5%; left: 5%;'><small>Task 2 of 5</small></div><div class='instruxDiv'><p><strong>1) What is the minimum number of points you can choose to send to your partner?</strong></p><p>a) 0</p><p style='color:#00FF00'>b) 1</p><p>c) 5</p><h3 style='color:#00FF00'>Correct!</h3><h3 class='center-content'>The correct response is b).</h3><h3 class='center-content'>The minimum number of points you can choose to send to your partner is 1 point.</h3><p><em>Press SPACEBAR to continue</em></p></div>"," ","","","","","","","","","","",""
"","","","","63210b26bd58960c97b47ddc","bdp_trlrn","Sat Apr 08 2023 16:22:42 GMT+0100 (British Summer Time)","805402","Trustworthy,Untrustworthy","","html-keyboard-response","129","451747","0.0-11.0","","6937","","<div class='header' style='text-align:left; position: absolute; top: 5%; left: 5%;'><small>Task 2 of 5</small></div><div class='instruxDiv'><p><strong>2) What is the maximum number of points you can choose to send to your partner?</strong></p><p>a) 8</p><p>b) 5</p><p>c) 3</p>","B","","","","","","","","","","",""
"","","","","63210b26bd58960c97b47ddc","bdp_trlrn","Sat Apr 08 2023 16:22:42 GMT+0100 (British Summer Time)","805402","Trustworthy,Untrustworthy","","html-keyboard-response","130","453029","0.0-12.0","","1177","","<div class='header' style='text-align:left; position: absolute; top: 5%; left: 5%;'><small>Task 2 of 5</small></div><div class='instruxDiv'><p><strong>2) What is the maximum number of points you can choose to send to your partner?</strong></p><p>a) 8</p><p style='color:#00FF00'>b) 5</p><p>c) 3</p><h3 style='color:#00FF00'>Correct!</h3><h3 class='center-content'>The correct response is b).</h3><h3 class='center-content'>The maximum number of points you can choose to send to your partner is 5 points.</h3><p><em>Press SPACEBAR to continue</em></p></div>"," ","","","","","","","","","","",""
"","","","","63210b26bd58960c97b47ddc","bdp_trlrn","Sat Apr 08 2023 16:22:42 GMT+0100 (British Summer Time)","805402","Trustworthy,Untrustworthy","","html-keyboard-response","131","460073","0.0-13.0","","6928","","<div class='header' style='text-align:left; position: absolute; top: 5%; left: 5%;'><small>Task 2 of 5</small></div><div class='instruxDiv'><p><strong>3) What happens to the amount of points you send to your partner?</strong></p><p>a) Nothing</p><p>b) It doubles</p><p>c) It quadruples</p>","C","","","","","","","","","","",""
"","","","","63210b26bd58960c97b47ddc","bdp_trlrn","Sat Apr 08 2023 16:22:42 GMT+0100 (British Summer Time)","805402","Trustworthy,Untrustworthy","","html-keyboard-response","132","461396","0.0-14.0","","1222","","<div class='header' style='text-align:left; position: absolute; top: 5%; left: 5%;'><small>Task 2 of 5</small></div><div class='instruxDiv'><p><strong>3) What happens to the amount of points you send to your partner?</strong></p><p>a) Nothing</p><p>b) It doubles</p><p style='color:#00FF00'>c) It quadruples</p><h3 style='color:#00FF00'>Correct!</h3><h3 class='center-content'>The correct response is c).</h3><h3 class='center-content'>The amount of points you send to your partner quadruples.</h3><p><em>Press SPACEBAR to continue</em></p></div>"," ","","","","","","","","","","",""
"","","","","63210b26bd58960c97b47ddc","bdp_trlrn","Sat Apr 08 2023 16:22:42 GMT+0100 (British Summer Time)","805402","Trustworthy,Untrustworthy","","html-keyboard-response","133","476804","0.0-15.0","","15294","","<div class='header' style='text-align:left; position: absolute; top: 5%; left: 5%;'><small>Task 2 of 5</small></div><div class='instruxDiv'><p><strong>4) If you decided to share 4 out of 5 points with your partner, and they decided to share half of the amount they received with you, how many points would you receive back from them on this round?</strong></p><p>a) 16</p><p>b) 0</p><p>c) 8</p>","C","","","","","","","","","","",""
"","","","","63210b26bd58960c97b47ddc","bdp_trlrn","Sat Apr 08 2023 16:22:42 GMT+0100 (British Summer Time)","805402","Trustworthy,Untrustworthy","","html-keyboard-response","134","477663","0.0-16.0","","752","","<div class='header' style='text-align:left; position: absolute; top: 5%; left: 5%;'><small>Task 2 of 5</small></div><div class='instruxDiv'><p><strong>4) If you decided to share 4 out of 5 points with your partner, and they decided to share half of the amount they received with you, how many points would you receive back from them on this round?</strong></p><p>a) 16</p><p>b) 0</p><p style='color:#00FF00'>c) 8</p><h3 style='color:#00FF00'>Correct!</h3><h3 class='center-content'>The correct response is c).</h3><h3 class='center-content'>If you shared 4 out of 5 points with your partner and they decided to share half of the amount they received with you, you would receive 8 points back (i.e. (4 x 4)/2 = 8).</h3><p><em>Press SPACEBAR to continue</em></p></div>"," ","","","","","","","","","","",""
"","","","","63210b26bd58960c97b47ddc","bdp_trlrn","Sat Apr 08 2023 16:22:42 GMT+0100 (British Summer Time)","805402","Trustworthy,Untrustworthy","","html-keyboard-response","135","482779","0.0-17.0","","null","","<div class='header' style='text-align:left; position: absolute; top: 5%; left: 5%;'><small>Task 2 of 5</small></div><div class='instruxDiv'><p>Thank you for completing the quiz<p>These are the actual partners you will be interacting with in the next block:<p><div class='tc' align='center'><img class='introPic' src='trustrating_stim/white_00519_940519_fb_edt.bmp'><br><strong>Jason</strong></div><div class='bl' align='center'><img class='introPic' src='trustrating_stim/white_mw035.bmp'><br><strong>Brian</strong></div><div class='br' align='center'><img class='introPic' src='trustrating_stim/white_mw046.bmp'><br><strong>Richard</strong></div></div><p>Across <strong>66 rounds</strong> you will interact with each partner <strong>22 times</strong> (in random order).<p style='align:center; color:white'><font <em>Press SPACEBAR to continue</em></p>","null","","","","","","","","","","",""
"","","","","63210b26bd58960c97b47ddc","bdp_trlrn","Sat Apr 08 2023 16:22:42 GMT+0100 (British Summer Time)","805402","Trustworthy,Untrustworthy","","instructions","136","490142","0.0-18.0","[{""page_index"":0,""viewing_time"":5024},{""page_index"":1,""viewing_time"":2338}]","7362","","","","","","","","","","","","","",""
"","","","decision","63210b26bd58960c97b47ddc","bdp_trlrn","Sat Apr 08 2023 16:22:42 GMT+0100 (British Summer Time)","805402","Trustworthy,Untrustworthy","","html-keyboard-response","137","496129","0.0-19.0-1.0","","5886","","<div class='trialDiv'><img src='trustrating_stim/white_mw046.bmp'><br><font class='baseline'><strong>Richard</strong><p>Choose number of points to send.</font><div class='respPicDiv'><img src='img/responseButtonOffersNo0L.png' class='respPic'></div></div>","5","1","Richard","8","Kept","0.8,0.35","12","0.8","trustrating_stim/white_mw046.bmp","7","5","1"
"","","","decisionFB","63210b26bd58960c97b47ddc","bdp_trlrn","Sat Apr 08 2023 16:22:42 GMT+0100 (British Summer Time)","805402","Trustworthy,Untrustworthy","","html-keyboard-response","138","496382","0.0-19.0-2.0","","null","","<div class='trialDiv'><img src='trustrating_stim/white_mw046.bmp'><br><font class='baseline'><strong>Richard</strong><p>Choose number of points to send.</font><div class='respPicDiv'><img src='img/responseButtonOffersNo0L5.png' class='respPic'></div></div>","null","1","Richard","8","Kept","0.8,0.35","12","0.8","trustrating_stim/white_mw046.bmp","7","0","1"
"","","","feedback","63210b26bd58960c97b47ddc","bdp_trlrn","Sat Apr 08 2023 16:22:42 GMT+0100 (British Summer Time)","805402","Trustworthy,Untrustworthy","","html-keyboard-response","139","497390","0.0-19.0-3.0","","null","","<div class='trialDiv'><img src='trustrating_stim/white_mw046.bmp'><br><font class='baseline'><strong>Richard</strong><p>Received: <strong>20</strong></font> &nbsp; &nbsp; &nbsp; &nbsp; &nbsp; &nbsp;<font class='negOutcome'>Shared back: <strong>0</strong></font></font><div class='respPicDiv'><img src='img/responseButtonOffersNo0_wht.png' class='respPic'></div></div>","null","1","Richard","8","Kept","0.8,0.35","12","0.8","trustrating_stim/white_mw046.bmp","7","0","1"
"","","","decision","63210b26bd58960c97b47ddc","bdp_trlrn","Sat Apr 08 2023 16:22:42 GMT+0100 (British Summer Time)","805402","Trustworthy,Untrustworthy","","html-keyboard-response","140","499576","0.0-19.0-1.1","","2186","","<div class='trialDiv'><img src='trustrating_stim/white_mw035.bmp'><br><font class='baseline'><strong>Brian</strong><p>Choose number of points to send.</font><div class='respPicDiv'><img src='img/responseButtonOffersNo0L.png' class='respPic'></div></div>","5","1","Brian","4","Shared","0.2,0.65","14","0.2","trustrating_stim/white_mw035.bmp","4.5","5","2"
"","","","decisionFB","63210b26bd58960c97b47ddc","bdp_trlrn","Sat Apr 08 2023 16:22:42 GMT+0100 (British Summer Time)","805402","Trustworthy,Untrustworthy","","html-keyboard-response","141","499834","0.0-19.0-2.1","","null","","<div class='trialDiv'><img src='trustrating_stim/white_mw035.bmp'><br><font class='baseline'><strong>Brian</strong><p>Choose number of points to send.</font><div class='respPicDiv'><img src='img/responseButtonOffersNo0L5.png' class='respPic'></div></div>","null","1","Brian","4","Shared","0.2,0.65","14","0.2","trustrating_stim/white_mw035.bmp","4.5","0","2"
"","","","feedback","63210b26bd58960c97b47ddc","bdp_trlrn","Sat Apr 08 2023 16:22:42 GMT+0100 (British Summer Time)","805402","Trustworthy,Untrustworthy","","html-keyboard-response","142","500847","0.0-19.0-3.1","","null","","<div class='trialDiv'><img src='trustrating_stim/white_mw035.bmp'><br><font class='baseline'><strong>Brian</strong><p>Received: <strong>20</strong></font> &nbsp; &nbsp; &nbsp; &nbsp; &nbsp; &nbsp;<font class='posOutcome'>Shared back: <strong>10</strong></font></font><div class='respPicDiv'><img src='img/responseButtonOffersNo0_wht.png' class='respPic'></div></div>","null","1","Brian","4","Shared","0.2,0.65","14","0.2","trustrating_stim/white_mw035.bmp","4.5","10","2"
"","","","decision","63210b26bd58960c97b47ddc","bdp_trlrn","Sat Apr 08 2023 16:22:42 GMT+0100 (British Summer Time)","805402","Trustworthy,Untrustworthy","","html-keyboard-response","143","502903","0.0-19.0-1.2","","2056","","<div class='trialDiv'><img src='trustrating_stim/white_00519_940519_fb_edt.bmp'><br><font class='baseline'><strong>Jason</strong><p>Choose number of points to send.</font><div class='respPicDiv'><img src='img/responseButtonOffersNo0L.png' class='respPic'></div></div>","5","1","Jason","2","Shared","0.8,0.2","9","0.8","trustrating_stim/white_00519_940519_fb_edt.bmp","2.5","15","3"
"","","","decisionFB","63210b26bd58960c97b47ddc","bdp_trlrn","Sat Apr 08 2023 16:22:42 GMT+0100 (British Summer Time)","805402","Trustworthy,Untrustworthy","","html-keyboard-response","144","503170","0.0-19.0-2.2","","null","","<div class='trialDiv'><img src='trustrating_stim/white_00519_940519_fb_edt.bmp'><br><font class='baseline'><strong>Jason</strong><p>Choose number of points to send.</font><div class='respPicDiv'><img src='img/responseButtonOffersNo0L5.png' class='respPic'></div></div>","null","1","Jason","2","Shared","0.8,0.2","9","0.8","trustrating_stim/white_00519_940519_fb_edt.bmp","2.5","10","3"
"","","","feedback","63210b26bd58960c97b47ddc","bdp_trlrn","Sat Apr 08 2023 16:22:42 GMT+0100 (British Summer Time)","805402","Trustworthy,Untrustworthy","","html-keyboard-response","145","504175","0.0-19.0-3.2","","null","","<div class='trialDiv'><img src='trustrating_stim/white_00519_940519_fb_edt.bmp'><br><font class='baseline'><strong>Jason</strong><p>Received: <strong>20</strong></font> &nbsp; &nbsp; &nbsp; &nbsp; &nbsp; &nbsp;<font class='posOutcome'>Shared back: <strong>10</strong></font></font><div class='respPicDiv'><img src='img/responseButtonOffersNo0_wht.png' class='respPic'></div></div>","null","1","Jason","2","Shared","0.8,0.2","9","0.8","trustrating_stim/white_00519_940519_fb_edt.bmp","2.5","20","3"
"","","","decision","63210b26bd58960c97b47ddc","bdp_trlrn","Sat Apr 08 2023 16:22:42 GMT+0100 (British Summer Time)","805402","Trustworthy,Untrustworthy","","html-keyboard-response","146","508554","0.0-19.0-1.3","","4378","","<div class='trialDiv'><img src='trustrating_stim/white_mw046.bmp'><br><font class='baseline'><strong>Richard</strong><p>Choose number of points to send.</font><div class='respPicDiv'><img src='img/responseButtonOffersNo0L.png' class='respPic'></div></div>","1","2","Richard","8","Shared","0.8,0.35","12","0.8","trustrating_stim/white_mw046.bmp","7","25","4"
"","","","decisionFB","63210b26bd58960c97b47ddc","bdp_trlrn","Sat Apr 08 2023 16:22:42 GMT+0100 (British Summer Time)","805402","Trustworthy,Untrustworthy","","html-keyboard-response","147","508812","0.0-19.0-2.3","","null","","<div class='trialDiv'><img src='trustrating_stim/white_mw046.bmp'><br><font class='baseline'><strong>Richard</strong><p>Choose number of points to send.</font><div class='respPicDiv'><img src='img/responseButtonOffersNo0L1.png' class='respPic'></div></div>","null","2","Richard","8","Shared","0.8,0.35","12","0.8","trustrating_stim/white_mw046.bmp","7","24","4"
"","","","feedback","63210b26bd58960c97b47ddc","bdp_trlrn","Sat Apr 08 2023 16:22:42 GMT+0100 (British Summer Time)","805402","Trustworthy,Untrustworthy","","html-keyboard-response","148","509823","0.0-19.0-3.3","","null","","<div class='trialDiv'><img src='trustrating_stim/white_mw046.bmp'><br><font class='baseline'><strong>Richard</strong><p>Received: <strong>4</strong></font> &nbsp; &nbsp; &nbsp; &nbsp; &nbsp; &nbsp;<font class='posOutcome'>Shared back: <strong>2</strong></font></font><div class='respPicDiv'><img src='img/responseButtonOffersNo0_wht.png' class='respPic'></div></div>","null","2","Richard","8","Shared","0.8,0.35","12","0.8","trustrating_stim/white_mw046.bmp","7","26","4"
"","","","decision","63210b26bd58960c97b47ddc","bdp_trlrn","Sat Apr 08 2023 16:22:42 GMT+0100 (British Summer Time)","805402","Trustworthy,Untrustworthy","","html-keyboard-response","149","511650","0.0-19.0-1.4","","1827","","<div class='trialDiv'><img src='trustrating_stim/white_00519_940519_fb_edt.bmp'><br><font class='baseline'><strong>Jason</strong><p>Choose number of points to send.</font><div class='respPicDiv'><img src='img/responseButtonOffersNo0L.png' class='respPic'></div></div>","5","2","Jason","2","Kept","0.8,0.2","9","0.8","trustrating_stim/white_00519_940519_fb_edt.bmp","2.5","31","5"
"","","","decisionFB","63210b26bd58960c97b47ddc","bdp_trlrn","Sat Apr 08 2023 16:22:42 GMT+0100 (British Summer Time)","805402","Trustworthy,Untrustworthy","","html-keyboard-response","150","511914","0.0-19.0-2.4","","null","","<div class='trialDiv'><img src='trustrating_stim/white_00519_940519_fb_edt.bmp'><br><font class='baseline'><strong>Jason</strong><p>Choose number of points to send.</font><div class='respPicDiv'><img src='img/responseButtonOffersNo0L5.png' class='respPic'></div></div>","null","2","Jason","2","Kept","0.8,0.2","9","0.8","trustrating_stim/white_00519_940519_fb_edt.bmp","2.5","26","5"
"","","","feedback","63210b26bd58960c97b47ddc","bdp_trlrn","Sat Apr 08 2023 16:22:42 GMT+0100 (British Summer Time)","805402","Trustworthy,Untrustworthy","","html-keyboard-response","151","512917","0.0-19.0-3.4","","null","","<div class='trialDiv'><img src='trustrating_stim/white_00519_940519_fb_edt.bmp'><br><font class='baseline'><strong>Jason</strong><p>Received: <strong>20</strong></font> &nbsp; &nbsp; &nbsp; &nbsp; &nbsp; &nbsp;<font class='negOutcome'>Shared back: <strong>0</strong></font></font><div class='respPicDiv'><img src='img/responseButtonOffersNo0_wht.png' class='respPic'></div></div>","null","2","Jason","2","Kept","0.8,0.2","9","0.8","trustrating_stim/white_00519_940519_fb_edt.bmp","2.5","26","5"
"","","","decision","63210b26bd58960c97b47ddc","bdp_trlrn","Sat Apr 08 2023 16:22:42 GMT+0100 (British Summer Time)","805402","Trustworthy,Untrustworthy","","html-keyboard-response","152","515638","0.0-19.0-1.5","","2721","","<div class='trialDiv'><img src='trustrating_stim/white_mw035.bmp'><br><font class='baseline'><strong>Brian</strong><p>Choose number of points to send.</font><div class='respPicDiv'><img src='img/responseButtonOffersNo0L.png' class='respPic'></div></div>","5","2","Brian","4","Kept","0.2,0.65","14","0.2","trustrating_stim/white_mw035.bmp","4.5","31","6"
"","","","decisionFB","63210b26bd58960c97b47ddc","bdp_trlrn","Sat Apr 08 2023 16:22:42 GMT+0100 (British Summer Time)","805402","Trustworthy,Untrustworthy","","html-keyboard-response","153","515894","0.0-19.0-2.5","","null","","<div class='trialDiv'><img src='trustrating_stim/white_mw035.bmp'><br><font class='baseline'><strong>Brian</strong><p>Choose number of points to send.</font><div class='respPicDiv'><img src='img/responseButtonOffersNo0L5.png' class='respPic'></div></div>","null","2","Brian","4","Kept","0.2,0.65","14","0.2","trustrating_stim/white_mw035.bmp","4.5","26","6"
"","","","feedback","63210b26bd58960c97b47ddc","bdp_trlrn","Sat Apr 08 2023 16:22:42 GMT+0100 (British Summer Time)","805402","Trustworthy,Untrustworthy","","html-keyboard-response","154","516907","0.0-19.0-3.5","","null","","<div class='trialDiv'><img src='trustrating_stim/white_mw035.bmp'><br><font class='baseline'><strong>Brian</strong><p>Received: <strong>20</strong></font> &nbsp; &nbsp; &nbsp; &nbsp; &nbsp; &nbsp;<font class='negOutcome'>Shared back: <strong>0</strong></font></font><div class='respPicDiv'><img src='img/responseButtonOffersNo0_wht.png' class='respPic'></div></div>","null","2","Brian","4","Kept","0.2,0.65","14","0.2","trustrating_stim/white_mw035.bmp","4.5","26","6"
"","","","decision","63210b26bd58960c97b47ddc","bdp_trlrn","Sat Apr 08 2023 16:22:42 GMT+0100 (British Summer Time)","805402","Trustworthy,Untrustworthy","","html-keyboard-response","155","518943","0.0-19.0-1.6","","2034","","<div class='trialDiv'><img src='trustrating_stim/white_mw046.bmp'><br><font class='baseline'><strong>Richard</strong><p>Choose number of points to send.</font><div class='respPicDiv'><img src='img/responseButtonOffersNo0L.png' class='respPic'></div></div>","5","3","Richard","8","Shared","0.8,0.35","12","0.8","trustrating_stim/white_mw046.bmp","7","31","7"
"","","","decisionFB","63210b26bd58960c97b47ddc","bdp_trlrn","Sat Apr 08 2023 16:22:42 GMT+0100 (British Summer Time)","805402","Trustworthy,Untrustworthy","","html-keyboard-response","156","519200","0.0-19.0-2.6","","null","","<div class='trialDiv'><img src='trustrating_stim/white_mw046.bmp'><br><font class='baseline'><strong>Richard</strong><p>Choose number of points to send.</font><div class='respPicDiv'><img src='img/responseButtonOffersNo0L5.png' class='respPic'></div></div>","null","3","Richard","8","Shared","0.8,0.35","12","0.8","trustrating_stim/white_mw046.bmp","7","26","7"
"","","","feedback","63210b26bd58960c97b47ddc","bdp_trlrn","Sat Apr 08 2023 16:22:42 GMT+0100 (British Summer Time)","805402","Trustworthy,Untrustworthy","","html-keyboard-response","157","520213","0.0-19.0-3.6","","null","","<div class='trialDiv'><img src='trustrating_stim/white_mw046.bmp'><br><font class='baseline'><strong>Richard</strong><p>Received: <strong>20</strong></font> &nbsp; &nbsp; &nbsp; &nbsp; &nbsp; &nbsp;<font class='posOutcome'>Shared back: <strong>10</strong></font></font><div class='respPicDiv'><img src='img/responseButtonOffersNo0_wht.png' class='respPic'></div></div>","null","3","Richard","8","Shared","0.8,0.35","12","0.8","trustrating_stim/white_mw046.bmp","7","36","7"
"","","","decision","63210b26bd58960c97b47ddc","bdp_trlrn","Sat Apr 08 2023 16:22:42 GMT+0100 (British Summer Time)","805402","Trustworthy,Untrustworthy","","html-keyboard-response","158","522203","0.0-19.0-1.7","","1990","","<div class='trialDiv'><img src='trustrating_stim/white_00519_940519_fb_edt.bmp'><br><font class='baseline'><strong>Jason</strong><p>Choose number of points to send.</font><div class='respPicDiv'><img src='img/responseButtonOffersNo0L.png' class='respPic'></div></div>","1","3","Jason","2","Shared","0.8,0.2","9","0.8","trustrating_stim/white_00519_940519_fb_edt.bmp","2.5","41","8"
"","","","decisionFB","63210b26bd58960c97b47ddc","bdp_trlrn","Sat Apr 08 2023 16:22:42 GMT+0100 (British Summer Time)","805402","Trustworthy,Untrustworthy","","html-keyboard-response","159","522454","0.0-19.0-2.7","","null","","<div class='trialDiv'><img src='trustrating_stim/white_00519_940519_fb_edt.bmp'><br><font class='baseline'><strong>Jason</strong><p>Choose number of points to send.</font><div class='respPicDiv'><img src='img/responseButtonOffersNo0L1.png' class='respPic'></div></div>","null","3","Jason","2","Shared","0.8,0.2","9","0.8","trustrating_stim/white_00519_940519_fb_edt.bmp","2.5","40","8"
"","","","feedback","63210b26bd58960c97b47ddc","bdp_trlrn","Sat Apr 08 2023 16:22:42 GMT+0100 (British Summer Time)","805402","Trustworthy,Untrustworthy","","html-keyboard-response","160","523466","0.0-19.0-3.7","","null","","<div class='trialDiv'><img src='trustrating_stim/white_00519_940519_fb_edt.bmp'><br><font class='baseline'><strong>Jason</strong><p>Received: <strong>4</strong></font> &nbsp; &nbsp; &nbsp; &nbsp; &nbsp; &nbsp;<font class='posOutcome'>Shared back: <strong>2</strong></font></font><div class='respPicDiv'><img src='img/responseButtonOffersNo0_wht.png' class='respPic'></div></div>","null","3","Jason","2","Shared","0.8,0.2","9","0.8","trustrating_stim/white_00519_940519_fb_edt.bmp","2.5","42","8"
"","","","decision","63210b26bd58960c97b47ddc","bdp_trlrn","Sat Apr 08 2023 16:22:42 GMT+0100 (British Summer Time)","805402","Trustworthy,Untrustworthy","","html-keyboard-response","161","524173","0.0-19.0-1.8","","707","","<div class='trialDiv'><img src='trustrating_stim/white_mw035.bmp'><br><font class='baseline'><strong>Brian</strong><p>Choose number of points to send.</font><div class='respPicDiv'><img src='img/responseButtonOffersNo0L.png' class='respPic'></div></div>","1","3","Brian","4","Shared","0.2,0.65","14","0.2","trustrating_stim/white_mw035.bmp","4.5","47","9"
"","","","decisionFB","63210b26bd58960c97b47ddc","bdp_trlrn","Sat Apr 08 2023 16:22:42 GMT+0100 (British Summer Time)","805402","Trustworthy,Untrustworthy","","html-keyboard-response","162","524428","0.0-19.0-2.8","","null","","<div class='trialDiv'><img src='trustrating_stim/white_mw035.bmp'><br><font class='baseline'><strong>Brian</strong><p>Choose number of points to send.</font><div class='respPicDiv'><img src='img/responseButtonOffersNo0L1.png' class='respPic'></div></div>","null","3","Brian","4","Shared","0.2,0.65","14","0.2","trustrating_stim/white_mw035.bmp","4.5","46","9"
"","","","feedback","63210b26bd58960c97b47ddc","bdp_trlrn","Sat Apr 08 2023 16:22:42 GMT+0100 (British Summer Time)","805402","Trustworthy,Untrustworthy","","html-keyboard-response","163","525432","0.0-19.0-3.8","","null","","<div class='trialDiv'><img src='trustrating_stim/white_mw035.bmp'><br><font class='baseline'><strong>Brian</strong><p>Received: <strong>4</strong></font> &nbsp; &nbsp; &nbsp; &nbsp; &nbsp; &nbsp;<font class='posOutcome'>Shared back: <strong>2</strong></font></font><div class='respPicDiv'><img src='img/responseButtonOffersNo0_wht.png' class='respPic'></div></div>","null","3","Brian","4","Shared","0.2,0.65","14","0.2","trustrating_stim/white_mw035.bmp","4.5","48","9"
"","","","decision","63210b26bd58960c97b47ddc","bdp_trlrn","Sat Apr 08 2023 16:22:42 GMT+0100 (British Summer Time)","805402","Trustworthy,Untrustworthy","","html-keyboard-response","164","527895","0.0-19.0-1.9","","2462","","<div class='trialDiv'><img src='trustrating_stim/white_00519_940519_fb_edt.bmp'><br><font class='baseline'><strong>Jason</strong><p>Choose number of points to send.</font><div class='respPicDiv'><img src='img/responseButtonOffersNo0L.png' class='respPic'></div></div>","2","4","Jason","2","Shared","0.8,0.2","9","0.8","trustrating_stim/white_00519_940519_fb_edt.bmp","2.5","53","10"
"","","","decisionFB","63210b26bd58960c97b47ddc","bdp_trlrn","Sat Apr 08 2023 16:22:42 GMT+0100 (British Summer Time)","805402","Trustworthy,Untrustworthy","","html-keyboard-response","165","528156","0.0-19.0-2.9","","null","","<div class='trialDiv'><img src='trustrating_stim/white_00519_940519_fb_edt.bmp'><br><font class='baseline'><strong>Jason</strong><p>Choose number of points to send.</font><div class='respPicDiv'><img src='img/responseButtonOffersNo0L2.png' class='respPic'></div></div>","null","4","Jason","2","Shared","0.8,0.2","9","0.8","trustrating_stim/white_00519_940519_fb_edt.bmp","2.5","51","10"
"","","","feedback","63210b26bd58960c97b47ddc","bdp_trlrn","Sat Apr 08 2023 16:22:42 GMT+0100 (British Summer Time)","805402","Trustworthy,Untrustworthy","","html-keyboard-response","166","529166","0.0-19.0-3.9","","null","","<div class='trialDiv'><img src='trustrating_stim/white_00519_940519_fb_edt.bmp'><br><font class='baseline'><strong>Jason</strong><p>Received: <strong>8</strong></font> &nbsp; &nbsp; &nbsp; &nbsp; &nbsp; &nbsp;<font class='posOutcome'>Shared back: <strong>4</strong></font></font><div class='respPicDiv'><img src='img/responseButtonOffersNo0_wht.png' class='respPic'></div></div>","null","4","Jason","2","Shared","0.8,0.2","9","0.8","trustrating_stim/white_00519_940519_fb_edt.bmp","2.5","55","10"
"","","","decision","63210b26bd58960c97b47ddc","bdp_trlrn","Sat Apr 08 2023 16:22:42 GMT+0100 (British Summer Time)","805402","Trustworthy,Untrustworthy","","html-keyboard-response","167","530158","0.0-19.0-1.10","","991","","<div class='trialDiv'><img src='trustrating_stim/white_mw046.bmp'><br><font class='baseline'><strong>Richard</strong><p>Choose number of points to send.</font><div class='respPicDiv'><img src='img/responseButtonOffersNo0L.png' class='respPic'></div></div>","5","4","Richard","8","Shared","0.8,0.35","12","0.8","trustrating_stim/white_mw046.bmp","7","60","11"
"","","","decisionFB","63210b26bd58960c97b47ddc","bdp_trlrn","Sat Apr 08 2023 16:22:42 GMT+0100 (British Summer Time)","805402","Trustworthy,Untrustworthy","","html-keyboard-response","168","530411","0.0-19.0-2.10","","null","","<div class='trialDiv'><img src='trustrating_stim/white_mw046.bmp'><br><font class='baseline'><strong>Richard</strong><p>Choose number of points to send.</font><div class='respPicDiv'><img src='img/responseButtonOffersNo0L5.png' class='respPic'></div></div>","null","4","Richard","8","Shared","0.8,0.35","12","0.8","trustrating_stim/white_mw046.bmp","7","55","11"
"","","","feedback","63210b26bd58960c97b47ddc","bdp_trlrn","Sat Apr 08 2023 16:22:42 GMT+0100 (British Summer Time)","805402","Trustworthy,Untrustworthy","","html-keyboard-response","169","531423","0.0-19.0-3.10","","null","","<div class='trialDiv'><img src='trustrating_stim/white_mw046.bmp'><br><font class='baseline'><strong>Richard</strong><p>Received: <strong>20</strong></font> &nbsp; &nbsp; &nbsp; &nbsp; &nbsp; &nbsp;<font class='posOutcome'>Shared back: <strong>10</strong></font></font><div class='respPicDiv'><img src='img/responseButtonOffersNo0_wht.png' class='respPic'></div></div>","null","4","Richard","8","Shared","0.8,0.35","12","0.8","trustrating_stim/white_mw046.bmp","7","65","11"
"","","","decision","63210b26bd58960c97b47ddc","bdp_trlrn","Sat Apr 08 2023 16:22:42 GMT+0100 (British Summer Time)","805402","Trustworthy,Untrustworthy","","html-keyboard-response","170","532337","0.0-19.0-1.11","","914","","<div class='trialDiv'><img src='trustrating_stim/white_mw035.bmp'><br><font class='baseline'><strong>Brian</strong><p>Choose number of points to send.</font><div class='respPicDiv'><img src='img/responseButtonOffersNo0L.png' class='respPic'></div></div>","1","4","Brian","4","Shared","0.2,0.65","14","0.2","trustrating_stim/white_mw035.bmp","4.5","70","12"
"","","","decisionFB","63210b26bd58960c97b47ddc","bdp_trlrn","Sat Apr 08 2023 16:22:42 GMT+0100 (British Summer Time)","805402","Trustworthy,Untrustworthy","","html-keyboard-response","171","532590","0.0-19.0-2.11","","null","","<div class='trialDiv'><img src='trustrating_stim/white_mw035.bmp'><br><font class='baseline'><strong>Brian</strong><p>Choose number of points to send.</font><div class='respPicDiv'><img src='img/responseButtonOffersNo0L1.png' class='respPic'></div></div>","null","4","Brian","4","Shared","0.2,0.65","14","0.2","trustrating_stim/white_mw035.bmp","4.5","69","12"
"","","","feedback","63210b26bd58960c97b47ddc","bdp_trlrn","Sat Apr 08 2023 16:22:42 GMT+0100 (British Summer Time)","805402","Trustworthy,Untrustworthy","","html-keyboard-response","172","533599","0.0-19.0-3.11","","null","","<div class='trialDiv'><img src='trustrating_stim/white_mw035.bmp'><br><font class='baseline'><strong>Brian</strong><p>Received: <strong>4</strong></font> &nbsp; &nbsp; &nbsp; &nbsp; &nbsp; &nbsp;<font class='posOutcome'>Shared back: <strong>2</strong></font></font><div class='respPicDiv'><img src='img/responseButtonOffersNo0_wht.png' class='respPic'></div></div>","null","4","Brian","4","Shared","0.2,0.65","14","0.2","trustrating_stim/white_mw035.bmp","4.5","71","12"
"","","","decision","63210b26bd58960c97b47ddc","bdp_trlrn","Sat Apr 08 2023 16:22:42 GMT+0100 (British Summer Time)","805402","Trustworthy,Untrustworthy","","html-keyboard-response","173","534469","0.0-19.0-1.12","","869","","<div class='trialDiv'><img src='trustrating_stim/white_mw046.bmp'><br><font class='baseline'><strong>Richard</strong><p>Choose number of points to send.</font><div class='respPicDiv'><img src='img/responseButtonOffersNo0L.png' class='respPic'></div></div>","5","5","Richard","8","Shared","0.8,0.35","12","0.8","trustrating_stim/white_mw046.bmp","7","76","13"
"","","","decisionFB","63210b26bd58960c97b47ddc","bdp_trlrn","Sat Apr 08 2023 16:22:42 GMT+0100 (British Summer Time)","805402","Trustworthy,Untrustworthy","","html-keyboard-response","174","534722","0.0-19.0-2.12","","null","","<div class='trialDiv'><img src='trustrating_stim/white_mw046.bmp'><br><font class='baseline'><strong>Richard</strong><p>Choose number of points to send.</font><div class='respPicDiv'><img src='img/responseButtonOffersNo0L5.png' class='respPic'></div></div>","null","5","Richard","8","Shared","0.8,0.35","12","0.8","trustrating_stim/white_mw046.bmp","7","71","13"
"","","","feedback","63210b26bd58960c97b47ddc","bdp_trlrn","Sat Apr 08 2023 16:22:42 GMT+0100 (British Summer Time)","805402","Trustworthy,Untrustworthy","","html-keyboard-response","175","535734","0.0-19.0-3.12","","null","","<div class='trialDiv'><img src='trustrating_stim/white_mw046.bmp'><br><font class='baseline'><strong>Richard</strong><p>Received: <strong>20</strong></font> &nbsp; &nbsp; &nbsp; &nbsp; &nbsp; &nbsp;<font class='posOutcome'>Shared back: <strong>10</strong></font></font><div class='respPicDiv'><img src='img/responseButtonOffersNo0_wht.png' class='respPic'></div></div>","null","5","Richard","8","Shared","0.8,0.35","12","0.8","trustrating_stim/white_mw046.bmp","7","81","13"
"","","","decision","63210b26bd58960c97b47ddc","bdp_trlrn","Sat Apr 08 2023 16:22:42 GMT+0100 (British Summer Time)","805402","Trustworthy,Untrustworthy","","html-keyboard-response","176","536288","0.0-19.0-1.13","","553","","<div class='trialDiv'><img src='trustrating_stim/white_00519_940519_fb_edt.bmp'><br><font class='baseline'><strong>Jason</strong><p>Choose number of points to send.</font><div class='respPicDiv'><img src='img/responseButtonOffersNo0L.png' class='respPic'></div></div>","3","5","Jason","2","Kept","0.8,0.2","9","0.8","trustrating_stim/white_00519_940519_fb_edt.bmp","2.5","86","14"
"","","","decisionFB","63210b26bd58960c97b47ddc","bdp_trlrn","Sat Apr 08 2023 16:22:42 GMT+0100 (British Summer Time)","805402","Trustworthy,Untrustworthy","","html-keyboard-response","177","536544","0.0-19.0-2.13","","null","","<div class='trialDiv'><img src='trustrating_stim/white_00519_940519_fb_edt.bmp'><br><font class='baseline'><strong>Jason</strong><p>Choose number of points to send.</font><div class='respPicDiv'><img src='img/responseButtonOffersNo0L3.png' class='respPic'></div></div>","null","5","Jason","2","Kept","0.8,0.2","9","0.8","trustrating_stim/white_00519_940519_fb_edt.bmp","2.5","83","14"
"","","","feedback","63210b26bd58960c97b47ddc","bdp_trlrn","Sat Apr 08 2023 16:22:42 GMT+0100 (British Summer Time)","805402","Trustworthy,Untrustworthy","","html-keyboard-response","178","537556","0.0-19.0-3.13","","null","","<div class='trialDiv'><img src='trustrating_stim/white_00519_940519_fb_edt.bmp'><br><font class='baseline'><strong>Jason</strong><p>Received: <strong>12</strong></font> &nbsp; &nbsp; &nbsp; &nbsp; &nbsp; &nbsp;<font class='negOutcome'>Shared back: <strong>0</strong></font></font><div class='respPicDiv'><img src='img/responseButtonOffersNo0_wht.png' class='respPic'></div></div>","null","5","Jason","2","Kept","0.8,0.2","9","0.8","trustrating_stim/white_00519_940519_fb_edt.bmp","2.5","83","14"
"","","","decision","63210b26bd58960c97b47ddc","bdp_trlrn","Sat Apr 08 2023 16:22:42 GMT+0100 (British Summer Time)","805402","Trustworthy,Untrustworthy","","html-keyboard-response","179","538272","0.0-19.0-1.14","","715","","<div class='trialDiv'><img src='trustrating_stim/white_mw035.bmp'><br><font class='baseline'><strong>Brian</strong><p>Choose number of points to send.</font><div class='respPicDiv'><img src='img/responseButtonOffersNo0L.png' class='respPic'></div></div>","1","5","Brian","4","Shared","0.2,0.65","14","0.2","trustrating_stim/white_mw035.bmp","4.5","88","15"
"","","","decisionFB","63210b26bd58960c97b47ddc","bdp_trlrn","Sat Apr 08 2023 16:22:42 GMT+0100 (British Summer Time)","805402","Trustworthy,Untrustworthy","","html-keyboard-response","180","538523","0.0-19.0-2.14","","null","","<div class='trialDiv'><img src='trustrating_stim/white_mw035.bmp'><br><font class='baseline'><strong>Brian</strong><p>Choose number of points to send.</font><div class='respPicDiv'><img src='img/responseButtonOffersNo0L1.png' class='respPic'></div></div>","null","5","Brian","4","Shared","0.2,0.65","14","0.2","trustrating_stim/white_mw035.bmp","4.5","87","15"
"","","","feedback","63210b26bd58960c97b47ddc","bdp_trlrn","Sat Apr 08 2023 16:22:42 GMT+0100 (British Summer Time)","805402","Trustworthy,Untrustworthy","","html-keyboard-response","181","539530","0.0-19.0-3.14","","null","","<div class='trialDiv'><img src='trustrating_stim/white_mw035.bmp'><br><font class='baseline'><strong>Brian</strong><p>Received: <strong>4</strong></font> &nbsp; &nbsp; &nbsp; &nbsp; &nbsp; &nbsp;<font class='posOutcome'>Shared back: <strong>2</strong></font></font><div class='respPicDiv'><img src='img/responseButtonOffersNo0_wht.png' class='respPic'></div></div>","null","5","Brian","4","Shared","0.2,0.65","14","0.2","trustrating_stim/white_mw035.bmp","4.5","89","15"
"","","","decision","63210b26bd58960c97b47ddc","bdp_trlrn","Sat Apr 08 2023 16:22:42 GMT+0100 (British Summer Time)","805402","Trustworthy,Untrustworthy","","html-keyboard-response","182","540845","0.0-19.0-1.15","","1314","","<div class='trialDiv'><img src='trustrating_stim/white_00519_940519_fb_edt.bmp'><br><font class='baseline'><strong>Jason</strong><p>Choose number of points to send.</font><div class='respPicDiv'><img src='img/responseButtonOffersNo0L.png' class='respPic'></div></div>","2","6","Jason","2","Kept","0.8,0.2","9","0.8","trustrating_stim/white_00519_940519_fb_edt.bmp","2.5","94","16"
"","","","decisionFB","63210b26bd58960c97b47ddc","bdp_trlrn","Sat Apr 08 2023 16:22:42 GMT+0100 (British Summer Time)","805402","Trustworthy,Untrustworthy","","html-keyboard-response","183","541098","0.0-19.0-2.15","","null","","<div class='trialDiv'><img src='trustrating_stim/white_00519_940519_fb_edt.bmp'><br><font class='baseline'><strong>Jason</strong><p>Choose number of points to send.</font><div class='respPicDiv'><img src='img/responseButtonOffersNo0L2.png' class='respPic'></div></div>","null","6","Jason","2","Kept","0.8,0.2","9","0.8","trustrating_stim/white_00519_940519_fb_edt.bmp","2.5","92","16"
"","","","feedback","63210b26bd58960c97b47ddc","bdp_trlrn","Sat Apr 08 2023 16:22:42 GMT+0100 (British Summer Time)","805402","Trustworthy,Untrustworthy","","html-keyboard-response","184","542113","0.0-19.0-3.15","","null","","<div class='trialDiv'><img src='trustrating_stim/white_00519_940519_fb_edt.bmp'><br><font class='baseline'><strong>Jason</strong><p>Received: <strong>8</strong></font> &nbsp; &nbsp; &nbsp; &nbsp; &nbsp; &nbsp;<font class='negOutcome'>Shared back: <strong>0</strong></font></font><div class='respPicDiv'><img src='img/responseButtonOffersNo0_wht.png' class='respPic'></div></div>","null","6","Jason","2","Kept","0.8,0.2","9","0.8","trustrating_stim/white_00519_940519_fb_edt.bmp","2.5","92","16"
"","","","decision","63210b26bd58960c97b47ddc","bdp_trlrn","Sat Apr 08 2023 16:22:42 GMT+0100 (British Summer Time)","805402","Trustworthy,Untrustworthy","","html-keyboard-response","185","542980","0.0-19.0-1.16","","865","","<div class='trialDiv'><img src='trustrating_stim/white_mw035.bmp'><br><font class='baseline'><strong>Brian</strong><p>Choose number of points to send.</font><div class='respPicDiv'><img src='img/responseButtonOffersNo0L.png' class='respPic'></div></div>","1","6","Brian","4","Shared","0.2,0.65","14","0.2","trustrating_stim/white_mw035.bmp","4.5","97","17"
"","","","decisionFB","63210b26bd58960c97b47ddc","bdp_trlrn","Sat Apr 08 2023 16:22:42 GMT+0100 (British Summer Time)","805402","Trustworthy,Untrustworthy","","html-keyboard-response","186","543231","0.0-19.0-2.16","","null","","<div class='trialDiv'><img src='trustrating_stim/white_mw035.bmp'><br><font class='baseline'><strong>Brian</strong><p>Choose number of points to send.</font><div class='respPicDiv'><img src='img/responseButtonOffersNo0L1.png' class='respPic'></div></div>","null","6","Brian","4","Shared","0.2,0.65","14","0.2","trustrating_stim/white_mw035.bmp","4.5","96","17"
"","","","feedback","63210b26bd58960c97b47ddc","bdp_trlrn","Sat Apr 08 2023 16:22:42 GMT+0100 (British Summer Time)","805402","Trustworthy,Untrustworthy","","html-keyboard-response","187","544233","0.0-19.0-3.16","","null","","<div class='trialDiv'><img src='trustrating_stim/white_mw035.bmp'><br><font class='baseline'><strong>Brian</strong><p>Received: <strong>4</strong></font> &nbsp; &nbsp; &nbsp; &nbsp; &nbsp; &nbsp;<font class='posOutcome'>Shared back: <strong>2</strong></font></font><div class='respPicDiv'><img src='img/responseButtonOffersNo0_wht.png' class='respPic'></div></div>","null","6","Brian","4","Shared","0.2,0.65","14","0.2","trustrating_stim/white_mw035.bmp","4.5","98","17"
"","","","decision","63210b26bd58960c97b47ddc","bdp_trlrn","Sat Apr 08 2023 16:22:42 GMT+0100 (British Summer Time)","805402","Trustworthy,Untrustworthy","","html-keyboard-response","188","544625","0.0-19.0-1.17","","392","","<div class='trialDiv'><img src='trustrating_stim/white_mw046.bmp'><br><font class='baseline'><strong>Richard</strong><p>Choose number of points to send.</font><div class='respPicDiv'><img src='img/responseButtonOffersNo0L.png' class='respPic'></div></div>","5","6","Richard","8","Shared","0.8,0.35","12","0.8","trustrating_stim/white_mw046.bmp","7","103","18"
"","","","decisionFB","63210b26bd58960c97b47ddc","bdp_trlrn","Sat Apr 08 2023 16:22:42 GMT+0100 (British Summer Time)","805402","Trustworthy,Untrustworthy","","html-keyboard-response","189","544884","0.0-19.0-2.17","","null","","<div class='trialDiv'><img src='trustrating_stim/white_mw046.bmp'><br><font class='baseline'><strong>Richard</strong><p>Choose number of points to send.</font><div class='respPicDiv'><img src='img/responseButtonOffersNo0L5.png' class='respPic'></div></div>","null","6","Richard","8","Shared","0.8,0.35","12","0.8","trustrating_stim/white_mw046.bmp","7","98","18"
"","","","feedback","63210b26bd58960c97b47ddc","bdp_trlrn","Sat Apr 08 2023 16:22:42 GMT+0100 (British Summer Time)","805402","Trustworthy,Untrustworthy","","html-keyboard-response","190","545898","0.0-19.0-3.17","","null","","<div class='trialDiv'><img src='trustrating_stim/white_mw046.bmp'><br><font class='baseline'><strong>Richard</strong><p>Received: <strong>20</strong></font> &nbsp; &nbsp; &nbsp; &nbsp; &nbsp; &nbsp;<font class='posOutcome'>Shared back: <strong>10</strong></font></font><div class='respPicDiv'><img src='img/responseButtonOffersNo0_wht.png' class='respPic'></div></div>","null","6","Richard","8","Shared","0.8,0.35","12","0.8","trustrating_stim/white_mw046.bmp","7","108","18"
"","","","decision","63210b26bd58960c97b47ddc","bdp_trlrn","Sat Apr 08 2023 16:22:42 GMT+0100 (British Summer Time)","805402","Trustworthy,Untrustworthy","","html-keyboard-response","191","547112","0.0-19.0-1.18","","1213","","<div class='trialDiv'><img src='trustrating_stim/white_00519_940519_fb_edt.bmp'><br><font class='baseline'><strong>Jason</strong><p>Choose number of points to send.</font><div class='respPicDiv'><img src='img/responseButtonOffersNo0L.png' class='respPic'></div></div>","1","7","Jason","2","Kept","0.8,0.2","9","0.8","trustrating_stim/white_00519_940519_fb_edt.bmp","2.5","113","19"
"","","","decisionFB","63210b26bd58960c97b47ddc","bdp_trlrn","Sat Apr 08 2023 16:22:42 GMT+0100 (British Summer Time)","805402","Trustworthy,Untrustworthy","","html-keyboard-response","192","547373","0.0-19.0-2.18","","null","","<div class='trialDiv'><img src='trustrating_stim/white_00519_940519_fb_edt.bmp'><br><font class='baseline'><strong>Jason</strong><p>Choose number of points to send.</font><div class='respPicDiv'><img src='img/responseButtonOffersNo0L1.png' class='respPic'></div></div>","null","7","Jason","2","Kept","0.8,0.2","9","0.8","trustrating_stim/white_00519_940519_fb_edt.bmp","2.5","112","19"
"","","","feedback","63210b26bd58960c97b47ddc","bdp_trlrn","Sat Apr 08 2023 16:22:42 GMT+0100 (British Summer Time)","805402","Trustworthy,Untrustworthy","","html-keyboard-response","193","548377","0.0-19.0-3.18","","null","","<div class='trialDiv'><img src='trustrating_stim/white_00519_940519_fb_edt.bmp'><br><font class='baseline'><strong>Jason</strong><p>Received: <strong>4</strong></font> &nbsp; &nbsp; &nbsp; &nbsp; &nbsp; &nbsp;<font class='negOutcome'>Shared back: <strong>0</strong></font></font><div class='respPicDiv'><img src='img/responseButtonOffersNo0_wht.png' class='respPic'></div></div>","null","7","Jason","2","Kept","0.8,0.2","9","0.8","trustrating_stim/white_00519_940519_fb_edt.bmp","2.5","112","19"
"","","","decision","63210b26bd58960c97b47ddc","bdp_trlrn","Sat Apr 08 2023 16:22:42 GMT+0100 (British Summer Time)","805402","Trustworthy,Untrustworthy","","html-keyboard-response","194","549654","0.0-19.0-1.19","","1276","","<div class='trialDiv'><img src='trustrating_stim/white_mw035.bmp'><br><font class='baseline'><strong>Brian</strong><p>Choose number of points to send.</font><div class='respPicDiv'><img src='img/responseButtonOffersNo0L.png' class='respPic'></div></div>","1","7","Brian","4","Kept","0.2,0.65","14","0.2","trustrating_stim/white_mw035.bmp","4.5","117","20"
"","","","decisionFB","63210b26bd58960c97b47ddc","bdp_trlrn","Sat Apr 08 2023 16:22:42 GMT+0100 (British Summer Time)","805402","Trustworthy,Untrustworthy","","html-keyboard-response","195","549917","0.0-19.0-2.19","","null","","<div class='trialDiv'><img src='trustrating_stim/white_mw035.bmp'><br><font class='baseline'><strong>Brian</strong><p>Choose number of points to send.</font><div class='respPicDiv'><img src='img/responseButtonOffersNo0L1.png' class='respPic'></div></div>","null","7","Brian","4","Kept","0.2,0.65","14","0.2","trustrating_stim/white_mw035.bmp","4.5","116","20"
"","","","feedback","63210b26bd58960c97b47ddc","bdp_trlrn","Sat Apr 08 2023 16:22:42 GMT+0100 (British Summer Time)","805402","Trustworthy,Untrustworthy","","html-keyboard-response","196","550930","0.0-19.0-3.19","","null","","<div class='trialDiv'><img src='trustrating_stim/white_mw035.bmp'><br><font class='baseline'><strong>Brian</strong><p>Received: <strong>4</strong></font> &nbsp; &nbsp; &nbsp; &nbsp; &nbsp; &nbsp;<font class='negOutcome'>Shared back: <strong>0</strong></font></font><div class='respPicDiv'><img src='img/responseButtonOffersNo0_wht.png' class='respPic'></div></div>","null","7","Brian","4","Kept","0.2,0.65","14","0.2","trustrating_stim/white_mw035.bmp","4.5","116","20"
"","","","decision","63210b26bd58960c97b47ddc","bdp_trlrn","Sat Apr 08 2023 16:22:42 GMT+0100 (British Summer Time)","805402","Trustworthy,Untrustworthy","","html-keyboard-response","197","551225","0.0-19.0-1.20","","294","","<div class='trialDiv'><img src='trustrating_stim/white_mw046.bmp'><br><font class='baseline'><strong>Richard</strong><p>Choose number of points to send.</font><div class='respPicDiv'><img src='img/responseButtonOffersNo0L.png' class='respPic'></div></div>","5","7","Richard","8","Shared","0.8,0.35","12","0.8","trustrating_stim/white_mw046.bmp","7","121","21"
"","","","decisionFB","63210b26bd58960c97b47ddc","bdp_trlrn","Sat Apr 08 2023 16:22:42 GMT+0100 (British Summer Time)","805402","Trustworthy,Untrustworthy","","html-keyboard-response","198","551477","0.0-19.0-2.20","","null","","<div class='trialDiv'><img src='trustrating_stim/white_mw046.bmp'><br><font class='baseline'><strong>Richard</strong><p>Choose number of points to send.</font><div class='respPicDiv'><img src='img/responseButtonOffersNo0L5.png' class='respPic'></div></div>","null","7","Richard","8","Shared","0.8,0.35","12","0.8","trustrating_stim/white_mw046.bmp","7","116","21"
"","","","feedback","63210b26bd58960c97b47ddc","bdp_trlrn","Sat Apr 08 2023 16:22:42 GMT+0100 (British Summer Time)","805402","Trustworthy,Untrustworthy","","html-keyboard-response","199","552491","0.0-19.0-3.20","","null","","<div class='trialDiv'><img src='trustrating_stim/white_mw046.bmp'><br><font class='baseline'><strong>Richard</strong><p>Received: <strong>20</strong></font> &nbsp; &nbsp; &nbsp; &nbsp; &nbsp; &nbsp;<font class='posOutcome'>Shared back: <strong>10</strong></font></font><div class='respPicDiv'><img src='img/responseButtonOffersNo0_wht.png' class='respPic'></div></div>","null","7","Richard","8","Shared","0.8,0.35","12","0.8","trustrating_stim/white_mw046.bmp","7","126","21"
"","","","decision","63210b26bd58960c97b47ddc","bdp_trlrn","Sat Apr 08 2023 16:22:42 GMT+0100 (British Summer Time)","805402","Trustworthy,Untrustworthy","","html-keyboard-response","200","552752","0.0-19.0-1.21","","260","","<div class='trialDiv'><img src='trustrating_stim/white_00519_940519_fb_edt.bmp'><br><font class='baseline'><strong>Jason</strong><p>Choose number of points to send.</font><div class='respPicDiv'><img src='img/responseButtonOffersNo0L.png' class='respPic'></div></div>","1","8","Jason","2","Shared","0.8,0.2","9","0.8","trustrating_stim/white_00519_940519_fb_edt.bmp","2.5","131","22"
"","","","decisionFB","63210b26bd58960c97b47ddc","bdp_trlrn","Sat Apr 08 2023 16:22:42 GMT+0100 (British Summer Time)","805402","Trustworthy,Untrustworthy","","html-keyboard-response","201","553004","0.0-19.0-2.21","","null","","<div class='trialDiv'><img src='trustrating_stim/white_00519_940519_fb_edt.bmp'><br><font class='baseline'><strong>Jason</strong><p>Choose number of points to send.</font><div class='respPicDiv'><img src='img/responseButtonOffersNo0L1.png' class='respPic'></div></div>","null","8","Jason","2","Shared","0.8,0.2","9","0.8","trustrating_stim/white_00519_940519_fb_edt.bmp","2.5","130","22"
"","","","feedback","63210b26bd58960c97b47ddc","bdp_trlrn","Sat Apr 08 2023 16:22:42 GMT+0100 (British Summer Time)","805402","Trustworthy,Untrustworthy","","html-keyboard-response","202","554018","0.0-19.0-3.21","","null","","<div class='trialDiv'><img src='trustrating_stim/white_00519_940519_fb_edt.bmp'><br><font class='baseline'><strong>Jason</strong><p>Received: <strong>4</strong></font> &nbsp; &nbsp; &nbsp; &nbsp; &nbsp; &nbsp;<font class='posOutcome'>Shared back: <strong>2</strong></font></font><div class='respPicDiv'><img src='img/responseButtonOffersNo0_wht.png' class='respPic'></div></div>","null","8","Jason","2","Shared","0.8,0.2","9","0.8","trustrating_stim/white_00519_940519_fb_edt.bmp","2.5","132","22"
"","","","decision","63210b26bd58960c97b47ddc","bdp_trlrn","Sat Apr 08 2023 16:22:42 GMT+0100 (British Summer Time)","805402","Trustworthy,Untrustworthy","","html-keyboard-response","203","554251","0.0-19.0-1.22","","233","","<div class='trialDiv'><img src='trustrating_stim/white_mw046.bmp'><br><font class='baseline'><strong>Richard</strong><p>Choose number of points to send.</font><div class='respPicDiv'><img src='img/responseButtonOffersNo0L.png' class='respPic'></div></div>","1","8","Richard","8","Shared","0.8,0.35","12","0.8","trustrating_stim/white_mw046.bmp","7","137","23"
"","","","decisionFB","63210b26bd58960c97b47ddc","bdp_trlrn","Sat Apr 08 2023 16:22:42 GMT+0100 (British Summer Time)","805402","Trustworthy,Untrustworthy","","html-keyboard-response","204","554515","0.0-19.0-2.22","","null","","<div class='trialDiv'><img src='trustrating_stim/white_mw046.bmp'><br><font class='baseline'><strong>Richard</strong><p>Choose number of points to send.</font><div class='respPicDiv'><img src='img/responseButtonOffersNo0L1.png' class='respPic'></div></div>","null","8","Richard","8","Shared","0.8,0.35","12","0.8","trustrating_stim/white_mw046.bmp","7","136","23"
"","","","feedback","63210b26bd58960c97b47ddc","bdp_trlrn","Sat Apr 08 2023 16:22:42 GMT+0100 (British Summer Time)","805402","Trustworthy,Untrustworthy","","html-keyboard-response","205","555516","0.0-19.0-3.22","","null","","<div class='trialDiv'><img src='trustrating_stim/white_mw046.bmp'><br><font class='baseline'><strong>Richard</strong><p>Received: <strong>4</strong></font> &nbsp; &nbsp; &nbsp; &nbsp; &nbsp; &nbsp;<font class='posOutcome'>Shared back: <strong>2</strong></font></font><div class='respPicDiv'><img src='img/responseButtonOffersNo0_wht.png' class='respPic'></div></div>","null","8","Richard","8","Shared","0.8,0.35","12","0.8","trustrating_stim/white_mw046.bmp","7","138","23"
"","","","decision","63210b26bd58960c97b47ddc","bdp_trlrn","Sat Apr 08 2023 16:22:42 GMT+0100 (British Summer Time)","805402","Trustworthy,Untrustworthy","","html-keyboard-response","206","555903","0.0-19.0-1.23","","386","","<div class='trialDiv'><img src='trustrating_stim/white_mw035.bmp'><br><font class='baseline'><strong>Brian</strong><p>Choose number of points to send.</font><div class='respPicDiv'><img src='img/responseButtonOffersNo0L.png' class='respPic'></div></div>","1","8","Brian","4","Kept","0.2,0.65","14","0.2","trustrating_stim/white_mw035.bmp","4.5","143","24"
"","","","decisionFB","63210b26bd58960c97b47ddc","bdp_trlrn","Sat Apr 08 2023 16:22:42 GMT+0100 (British Summer Time)","805402","Trustworthy,Untrustworthy","","html-keyboard-response","207","556159","0.0-19.0-2.23","","null","","<div class='trialDiv'><img src='trustrating_stim/white_mw035.bmp'><br><font class='baseline'><strong>Brian</strong><p>Choose number of points to send.</font><div class='respPicDiv'><img src='img/responseButtonOffersNo0L1.png' class='respPic'></div></div>","null","8","Brian","4","Kept","0.2,0.65","14","0.2","trustrating_stim/white_mw035.bmp","4.5","142","24"
"","","","feedback","63210b26bd58960c97b47ddc","bdp_trlrn","Sat Apr 08 2023 16:22:42 GMT+0100 (British Summer Time)","805402","Trustworthy,Untrustworthy","","html-keyboard-response","208","557168","0.0-19.0-3.23","","null","","<div class='trialDiv'><img src='trustrating_stim/white_mw035.bmp'><br><font class='baseline'><strong>Brian</strong><p>Received: <strong>4</strong></font> &nbsp; &nbsp; &nbsp; &nbsp; &nbsp; &nbsp;<font class='negOutcome'>Shared back: <strong>0</strong></font></font><div class='respPicDiv'><img src='img/responseButtonOffersNo0_wht.png' class='respPic'></div></div>","null","8","Brian","4","Kept","0.2,0.65","14","0.2","trustrating_stim/white_mw035.bmp","4.5","142","24"
"","","","decision","63210b26bd58960c97b47ddc","bdp_trlrn","Sat Apr 08 2023 16:22:42 GMT+0100 (British Summer Time)","805402","Trustworthy,Untrustworthy","","html-keyboard-response","209","558128","0.0-19.0-1.24","","959","","<div class='trialDiv'><img src='trustrating_stim/white_00519_940519_fb_edt.bmp'><br><font class='baseline'><strong>Jason</strong><p>Choose number of points to send.</font><div class='respPicDiv'><img src='img/responseButtonOffersNo0L.png' class='respPic'></div></div>","1","9","Jason","2","Shared","0.8,0.2","9","0.8","trustrating_stim/white_00519_940519_fb_edt.bmp","2.5","147","25"
"","","","decisionFB","63210b26bd58960c97b47ddc","bdp_trlrn","Sat Apr 08 2023 16:22:42 GMT+0100 (British Summer Time)","805402","Trustworthy,Untrustworthy","","html-keyboard-response","210","558381","0.0-19.0-2.24","","null","","<div class='trialDiv'><img src='trustrating_stim/white_00519_940519_fb_edt.bmp'><br><font class='baseline'><strong>Jason</strong><p>Choose number of points to send.</font><div class='respPicDiv'><img src='img/responseButtonOffersNo0L1.png' class='respPic'></div></div>","null","9","Jason","2","Shared","0.8,0.2","9","0.8","trustrating_stim/white_00519_940519_fb_edt.bmp","2.5","146","25"
"","","","feedback","63210b26bd58960c97b47ddc","bdp_trlrn","Sat Apr 08 2023 16:22:42 GMT+0100 (British Summer Time)","805402","Trustworthy,Untrustworthy","","html-keyboard-response","211","559396","0.0-19.0-3.24","","null","","<div class='trialDiv'><img src='trustrating_stim/white_00519_940519_fb_edt.bmp'><br><font class='baseline'><strong>Jason</strong><p>Received: <strong>4</strong></font> &nbsp; &nbsp; &nbsp; &nbsp; &nbsp; &nbsp;<font class='posOutcome'>Shared back: <strong>2</strong></font></font><div class='respPicDiv'><img src='img/responseButtonOffersNo0_wht.png' class='respPic'></div></div>","null","9","Jason","2","Shared","0.8,0.2","9","0.8","trustrating_stim/white_00519_940519_fb_edt.bmp","2.5","148","25"
"","","","decision","63210b26bd58960c97b47ddc","bdp_trlrn","Sat Apr 08 2023 16:22:42 GMT+0100 (British Summer Time)","805402","Trustworthy,Untrustworthy","","html-keyboard-response","212","559962","0.0-19.0-1.25","","565","","<div class='trialDiv'><img src='trustrating_stim/white_mw035.bmp'><br><font class='baseline'><strong>Brian</strong><p>Choose number of points to send.</font><div class='respPicDiv'><img src='img/responseButtonOffersNo0L.png' class='respPic'></div></div>","1","9","Brian","4","Kept","0.2,0.65","14","0.2","trustrating_stim/white_mw035.bmp","4.5","153","26"
"","","","decisionFB","63210b26bd58960c97b47ddc","bdp_trlrn","Sat Apr 08 2023 16:22:42 GMT+0100 (British Summer Time)","805402","Trustworthy,Untrustworthy","","html-keyboard-response","213","560216","0.0-19.0-2.25","","null","","<div class='trialDiv'><img src='trustrating_stim/white_mw035.bmp'><br><font class='baseline'><strong>Brian</strong><p>Choose number of points to send.</font><div class='respPicDiv'><img src='img/responseButtonOffersNo0L1.png' class='respPic'></div></div>","null","9","Brian","4","Kept","0.2,0.65","14","0.2","trustrating_stim/white_mw035.bmp","4.5","152","26"
"","","","feedback","63210b26bd58960c97b47ddc","bdp_trlrn","Sat Apr 08 2023 16:22:42 GMT+0100 (British Summer Time)","805402","Trustworthy,Untrustworthy","","html-keyboard-response","214","561229","0.0-19.0-3.25","","null","","<div class='trialDiv'><img src='trustrating_stim/white_mw035.bmp'><br><font class='baseline'><strong>Brian</strong><p>Received: <strong>4</strong></font> &nbsp; &nbsp; &nbsp; &nbsp; &nbsp; &nbsp;<font class='negOutcome'>Shared back: <strong>0</strong></font></font><div class='respPicDiv'><img src='img/responseButtonOffersNo0_wht.png' class='respPic'></div></div>","null","9","Brian","4","Kept","0.2,0.65","14","0.2","trustrating_stim/white_mw035.bmp","4.5","152","26"
"","","","decision","63210b26bd58960c97b47ddc","bdp_trlrn","Sat Apr 08 2023 16:22:42 GMT+0100 (British Summer Time)","805402","Trustworthy,Untrustworthy","","html-keyboard-response","215","561664","0.0-19.0-1.26","","435","","<div class='trialDiv'><img src='trustrating_stim/white_mw046.bmp'><br><font class='baseline'><strong>Richard</strong><p>Choose number of points to send.</font><div class='respPicDiv'><img src='img/responseButtonOffersNo0L.png' class='respPic'></div></div>","5","9","Richard","8","Shared","0.8,0.35","12","0.8","trustrating_stim/white_mw046.bmp","7","157","27"
"","","","decisionFB","63210b26bd58960c97b47ddc","bdp_trlrn","Sat Apr 08 2023 16:22:42 GMT+0100 (British Summer Time)","805402","Trustworthy,Untrustworthy","","html-keyboard-response","216","561926","0.0-19.0-2.26","","null","","<div class='trialDiv'><img src='trustrating_stim/white_mw046.bmp'><br><font class='baseline'><strong>Richard</strong><p>Choose number of points to send.</font><div class='respPicDiv'><img src='img/responseButtonOffersNo0L5.png' class='respPic'></div></div>","null","9","Richard","8","Shared","0.8,0.35","12","0.8","trustrating_stim/white_mw046.bmp","7","152","27"
"","","","feedback","63210b26bd58960c97b47ddc","bdp_trlrn","Sat Apr 08 2023 16:22:42 GMT+0100 (British Summer Time)","805402","Trustworthy,Untrustworthy","","html-keyboard-response","217","562941","0.0-19.0-3.26","","null","","<div class='trialDiv'><img src='trustrating_stim/white_mw046.bmp'><br><font class='baseline'><strong>Richard</strong><p>Received: <strong>20</strong></font> &nbsp; &nbsp; &nbsp; &nbsp; &nbsp; &nbsp;<font class='posOutcome'>Shared back: <strong>10</strong></font></font><div class='respPicDiv'><img src='img/responseButtonOffersNo0_wht.png' class='respPic'></div></div>","null","9","Richard","8","Shared","0.8,0.35","12","0.8","trustrating_stim/white_mw046.bmp","7","162","27"
"","","","decision","63210b26bd58960c97b47ddc","bdp_trlrn","Sat Apr 08 2023 16:22:42 GMT+0100 (British Summer Time)","805402","Trustworthy,Untrustworthy","","html-keyboard-response","218","563193","0.0-19.0-1.27","","252","","<div class='trialDiv'><img src='trustrating_stim/white_mw035.bmp'><br><font class='baseline'><strong>Brian</strong><p>Choose number of points to send.</font><div class='respPicDiv'><img src='img/responseButtonOffersNo0L.png' class='respPic'></div></div>","1","10","Brian","4","Kept","0.2,0.65","14","0.2","trustrating_stim/white_mw035.bmp","4.5","167","28"
