"trial_type","trial_index","time_elapsed","internal_node_id","subject_id","task","startTime","totalTime","labels","view_history","rt","event","trial","time","trialtype","success","stimulus","key_press","aground","name","faceID","outcome","agenttype","agentswpt","agentcurrpshare","face","avgRating","point_total","round"
"pavlovia","0","3","0.0-0.0","5f43ef4041bb5f11a27aa07e","bdp_trlrn","Sun Mar 12 2023 21:17:48 GMT-0500 (Central Daylight Time)","722537","Untrustworthy,Trustworthy","","","","","","","","","","","","","","","","","","","",""
"instructions","1","6652","0.0-1.0","5f43ef4041bb5f11a27aa07e","bdp_trlrn","Sun Mar 12 2023 21:17:48 GMT-0500 (Central Daylight Time)","722537","Untrustworthy,Trustworthy","[{""page_index"":0,""viewing_time"":6649}]","6649","","","","","","","","","","","","","","","","","",""
"","","","","5f43ef4041bb5f11a27aa07e","bdp_trlrn","Sun Mar 12 2023 21:17:48 GMT-0500 (Central Daylight Time)","722537","Untrustworthy,Trustworthy","","","fullscreenenter","2","10671","fullscreenenter","","","","","","","","","","","","","",""
"fullscreen","2","11665","0.0-2.0","5f43ef4041bb5f11a27aa07e","bdp_trlrn","Sun Mar 12 2023 21:17:48 GMT-0500 (Central Daylight Time)","722537","Untrustworthy,Trustworthy","","","","","","","true","","","","","","","","","","","","",""
"instructions","3","23187","0.0-4.0","5f43ef4041bb5f11a27aa07e","bdp_trlrn","Sun Mar 12 2023 21:17:48 GMT-0500 (Central Daylight Time)","722537","Untrustworthy,Trustworthy","[{""page_index"":0,""viewing_time"":6298},{""page_index"":1,""viewing_time"":5222}]","11520","","","","","","","","","","","","","","","","","",""
"instructions","4","26486","0.0-5.0","5f43ef4041bb5f11a27aa07e","bdp_trlrn","Sun Mar 12 2023 21:17:48 GMT-0500 (Central Daylight Time)","722537","Untrustworthy,Trustworthy","[{""page_index"":0,""viewing_time"":3299}]","3299","","","","","","","","","","","","","","","","","",""
"image-keyboard-response","5","33297","0.0-6.0-1.0","5f43ef4041bb5f11a27aa07e","bdp_trlrn","Sun Mar 12 2023 21:17:48 GMT-0500 (Central Daylight Time)","722537","Untrustworthy,Trustworthy","","6697","","","","rating","","trustrating_stim/white_00898_960530_fa_edt.bmp","4","","","","","","","","","","",""
"image-keyboard-response","6","33507","0.0-6.0-2.0","5f43ef4041bb5f11a27aa07e","bdp_trlrn","Sun Mar 12 2023 21:17:48 GMT-0500 (Central Daylight Time)","722537","Untrustworthy,Trustworthy","","null","","","","ratingFB","","trustrating_stim/white_00898_960530_fa_edt.bmp","null","","","","","","","","","","",""
"image-keyboard-response","7","35871","0.0-6.0-1.1","5f43ef4041bb5f11a27aa07e","bdp_trlrn","Sun Mar 12 2023 21:17:48 GMT-0500 (Central Daylight Time)","722537","Untrustworthy,Trustworthy","","2250","","","","rating","","trustrating_stim/white_00223_940128_fb_edt.bmp","2","","","","","","","","","","",""
"image-keyboard-response","8","36083","0.0-6.0-2.1","5f43ef4041bb5f11a27aa07e","bdp_trlrn","Sun Mar 12 2023 21:17:48 GMT-0500 (Central Daylight Time)","722537","Untrustworthy,Trustworthy","","null","","","","ratingFB","","trustrating_stim/white_00223_940128_fb_edt.bmp","null","","","","","","","","","","",""
"image-keyboard-response","9","38129","0.0-6.0-1.2","5f43ef4041bb5f11a27aa07e","bdp_trlrn","Sun Mar 12 2023 21:17:48 GMT-0500 (Central Daylight Time)","722537","Untrustworthy,Trustworthy","","1933","","","","rating","","trustrating_stim/white_mw099.bmp","3","","","","","","","","","","",""
"image-keyboard-response","10","38339","0.0-6.0-2.2","5f43ef4041bb5f11a27aa07e","bdp_trlrn","Sun Mar 12 2023 21:17:48 GMT-0500 (Central Daylight Time)","722537","Untrustworthy,Trustworthy","","null","","","","ratingFB","","trustrating_stim/white_mw099.bmp","null","","","","","","","","","","",""
"image-keyboard-response","11","42610","0.0-6.0-1.3","5f43ef4041bb5f11a27aa07e","bdp_trlrn","Sun Mar 12 2023 21:17:48 GMT-0500 (Central Daylight Time)","722537","Untrustworthy,Trustworthy","","4158","","","","rating","","trustrating_stim/white_00785_941205_fb_edt.bmp","2","","","","","","","","","","",""
"image-keyboard-response","12","42819","0.0-6.0-2.3","5f43ef4041bb5f11a27aa07e","bdp_trlrn","Sun Mar 12 2023 21:17:48 GMT-0500 (Central Daylight Time)","722537","Untrustworthy,Trustworthy","","null","","","","ratingFB","","trustrating_stim/white_00785_941205_fb_edt.bmp","null","","","","","","","","","","",""
"image-keyboard-response","13","46207","0.0-6.0-1.4","5f43ef4041bb5f11a27aa07e","bdp_trlrn","Sun Mar 12 2023 21:17:48 GMT-0500 (Central Daylight Time)","722537","Untrustworthy,Trustworthy","","3274","","","","rating","","trustrating_stim/white_mw035.bmp","6","","","","","","","","","","",""
"image-keyboard-response","14","46419","0.0-6.0-2.4","5f43ef4041bb5f11a27aa07e","bdp_trlrn","Sun Mar 12 2023 21:17:48 GMT-0500 (Central Daylight Time)","722537","Untrustworthy,Trustworthy","","null","","","","ratingFB","","trustrating_stim/white_mw035.bmp","null","","","","","","","","","","",""
"image-keyboard-response","15","50155","0.0-6.0-1.5","5f43ef4041bb5f11a27aa07e","bdp_trlrn","Sun Mar 12 2023 21:17:48 GMT-0500 (Central Daylight Time)","722537","Untrustworthy,Trustworthy","","3623","","","","rating","","trustrating_stim/white_00577_940928_fa_edt.bmp","4","","","","","","","","","","",""
"image-keyboard-response","16","50360","0.0-6.0-2.5","5f43ef4041bb5f11a27aa07e","bdp_trlrn","Sun Mar 12 2023 21:17:48 GMT-0500 (Central Daylight Time)","722537","Untrustworthy,Trustworthy","","null","","","","ratingFB","","trustrating_stim/white_00577_940928_fa_edt.bmp","null","","","","","","","","","","",""
"image-keyboard-response","17","54164","0.0-6.0-1.6","5f43ef4041bb5f11a27aa07e","bdp_trlrn","Sun Mar 12 2023 21:17:48 GMT-0500 (Central Daylight Time)","722537","Untrustworthy,Trustworthy","","3697","","","","rating","","trustrating_stim/white_mw071.bmp","5","","","","","","","","","","",""
"image-keyboard-response","18","54370","0.0-6.0-2.6","5f43ef4041bb5f11a27aa07e","bdp_trlrn","Sun Mar 12 2023 21:17:48 GMT-0500 (Central Daylight Time)","722537","Untrustworthy,Trustworthy","","null","","","","ratingFB","","trustrating_stim/white_mw071.bmp","null","","","","","","","","","","",""
"image-keyboard-response","19","57717","0.0-6.0-1.7","5f43ef4041bb5f11a27aa07e","bdp_trlrn","Sun Mar 12 2023 21:17:48 GMT-0500 (Central Daylight Time)","722537","Untrustworthy,Trustworthy","","3234","","","","rating","","trustrating_stim/white_mw049.bmp","8","","","","","","","","","","",""
"image-keyboard-response","20","57922","0.0-6.0-2.7","5f43ef4041bb5f11a27aa07e","bdp_trlrn","Sun Mar 12 2023 21:17:48 GMT-0500 (Central Daylight Time)","722537","Untrustworthy,Trustworthy","","null","","","","ratingFB","","trustrating_stim/white_mw049.bmp","null","","","","","","","","","","",""
"image-keyboard-response","21","60928","0.0-6.0-1.8","5f43ef4041bb5f11a27aa07e","bdp_trlrn","Sun Mar 12 2023 21:17:48 GMT-0500 (Central Daylight Time)","722537","Untrustworthy,Trustworthy","","2892","","","","rating","","trustrating_stim/white_00761_941201_fb_edt.bmp","7","","","","","","","","","","",""
"image-keyboard-response","22","61138","0.0-6.0-2.8","5f43ef4041bb5f11a27aa07e","bdp_trlrn","Sun Mar 12 2023 21:17:48 GMT-0500 (Central Daylight Time)","722537","Untrustworthy,Trustworthy","","null","","","","ratingFB","","trustrating_stim/white_00761_941201_fb_edt.bmp","null","","","","","","","","","","",""
"image-keyboard-response","23","63629","0.0-6.0-1.9","5f43ef4041bb5f11a27aa07e","bdp_trlrn","Sun Mar 12 2023 21:17:48 GMT-0500 (Central Daylight Time)","722537","Untrustworthy,Trustworthy","","2376","","","","rating","","trustrating_stim/white_mw056.bmp","3","","","","","","","","","","",""
"image-keyboard-response","24","63832","0.0-6.0-2.9","5f43ef4041bb5f11a27aa07e","bdp_trlrn","Sun Mar 12 2023 21:17:48 GMT-0500 (Central Daylight Time)","722537","Untrustworthy,Trustworthy","","null","","","","ratingFB","","trustrating_stim/white_mw056.bmp","null","","","","","","","","","","",""
"image-keyboard-response","25","67951","0.0-6.0-1.10","5f43ef4041bb5f11a27aa07e","bdp_trlrn","Sun Mar 12 2023 21:17:48 GMT-0500 (Central Daylight Time)","722537","Untrustworthy,Trustworthy","","4011","","","","rating","","trustrating_stim/white_00602_940928_fb_edt.bmp","7","","","","","","","","","","",""
"image-keyboard-response","26","68162","0.0-6.0-2.10","5f43ef4041bb5f11a27aa07e","bdp_trlrn","Sun Mar 12 2023 21:17:48 GMT-0500 (Central Daylight Time)","722537","Untrustworthy,Trustworthy","","null","","","","ratingFB","","trustrating_stim/white_00602_940928_fb_edt.bmp","null","","","","","","","","","","",""
"image-keyboard-response","27","72301","0.0-6.0-1.11","5f43ef4041bb5f11a27aa07e","bdp_trlrn","Sun Mar 12 2023 21:17:48 GMT-0500 (Central Daylight Time)","722537","Untrustworthy,Trustworthy","","4025","","","","rating","","trustrating_stim/white_00129_931230_fb_edt.bmp","5","","","","","","","","","","",""
"image-keyboard-response","28","72514","0.0-6.0-2.11","5f43ef4041bb5f11a27aa07e","bdp_trlrn","Sun Mar 12 2023 21:17:48 GMT-0500 (Central Daylight Time)","722537","Untrustworthy,Trustworthy","","null","","","","ratingFB","","trustrating_stim/white_00129_931230_fb_edt.bmp","null","","","","","","","","","","",""
"image-keyboard-response","29","75076","0.0-6.0-1.12","5f43ef4041bb5f11a27aa07e","bdp_trlrn","Sun Mar 12 2023 21:17:48 GMT-0500 (Central Daylight Time)","722537","Untrustworthy,Trustworthy","","2448","","","","rating","","trustrating_stim/white_00299_940422_fa_edt.bmp","6","","","","","","","","","","",""
"image-keyboard-response","30","75282","0.0-6.0-2.12","5f43ef4041bb5f11a27aa07e","bdp_trlrn","Sun Mar 12 2023 21:17:48 GMT-0500 (Central Daylight Time)","722537","Untrustworthy,Trustworthy","","null","","","","ratingFB","","trustrating_stim/white_00299_940422_fa_edt.bmp","null","","","","","","","","","","",""
"image-keyboard-response","31","77259","0.0-6.0-1.13","5f43ef4041bb5f11a27aa07e","bdp_trlrn","Sun Mar 12 2023 21:17:48 GMT-0500 (Central Daylight Time)","722537","Untrustworthy,Trustworthy","","1864","","","","rating","","trustrating_stim/white_mw033.bmp","4","","","","","","","","","","",""
"image-keyboard-response","32","77464","0.0-6.0-2.13","5f43ef4041bb5f11a27aa07e","bdp_trlrn","Sun Mar 12 2023 21:17:48 GMT-0500 (Central Daylight Time)","722537","Untrustworthy,Trustworthy","","null","","","","ratingFB","","trustrating_stim/white_mw033.bmp","null","","","","","","","","","","",""
"image-keyboard-response","33","79965","0.0-6.0-1.14","5f43ef4041bb5f11a27aa07e","bdp_trlrn","Sun Mar 12 2023 21:17:48 GMT-0500 (Central Daylight Time)","722537","Untrustworthy,Trustworthy","","2394","","","","rating","","trustrating_stim/white_00807_941205_fb_edt.bmp","3","","","","","","","","","","",""
"image-keyboard-response","34","80168","0.0-6.0-2.14","5f43ef4041bb5f11a27aa07e","bdp_trlrn","Sun Mar 12 2023 21:17:48 GMT-0500 (Central Daylight Time)","722537","Untrustworthy,Trustworthy","","null","","","","ratingFB","","trustrating_stim/white_00807_941205_fb_edt.bmp","null","","","","","","","","","","",""
"image-keyboard-response","35","83291","0.0-6.0-1.15","5f43ef4041bb5f11a27aa07e","bdp_trlrn","Sun Mar 12 2023 21:17:48 GMT-0500 (Central Daylight Time)","722537","Untrustworthy,Trustworthy","","3016","","","","rating","","trustrating_stim/white_mw066.bmp","8","","","","","","","","","","",""
"image-keyboard-response","36","83496","0.0-6.0-2.15","5f43ef4041bb5f11a27aa07e","bdp_trlrn","Sun Mar 12 2023 21:17:48 GMT-0500 (Central Daylight Time)","722537","Untrustworthy,Trustworthy","","null","","","","ratingFB","","trustrating_stim/white_mw066.bmp","null","","","","","","","","","","",""
"image-keyboard-response","37","85489","0.0-6.0-1.16","5f43ef4041bb5f11a27aa07e","bdp_trlrn","Sun Mar 12 2023 21:17:48 GMT-0500 (Central Daylight Time)","722537","Untrustworthy,Trustworthy","","1885","","","","rating","","trustrating_stim/white_mw084.bmp","3","","","","","","","","","","",""
"image-keyboard-response","38","85698","0.0-6.0-2.16","5f43ef4041bb5f11a27aa07e","bdp_trlrn","Sun Mar 12 2023 21:17:48 GMT-0500 (Central Daylight Time)","722537","Untrustworthy,Trustworthy","","null","","","","ratingFB","","trustrating_stim/white_mw084.bmp","null","","","","","","","","","","",""
"image-keyboard-response","39","88093","0.0-6.0-1.17","5f43ef4041bb5f11a27aa07e","bdp_trlrn","Sun Mar 12 2023 21:17:48 GMT-0500 (Central Daylight Time)","722537","Untrustworthy,Trustworthy","","2282","","","","rating","","trustrating_stim/white_mw048.bmp","2","","","","","","","","","","",""
"image-keyboard-response","40","88306","0.0-6.0-2.17","5f43ef4041bb5f11a27aa07e","bdp_trlrn","Sun Mar 12 2023 21:17:48 GMT-0500 (Central Daylight Time)","722537","Untrustworthy,Trustworthy","","null","","","","ratingFB","","trustrating_stim/white_mw048.bmp","null","","","","","","","","","","",""
"image-keyboard-response","41","93847","0.0-6.0-1.18","5f43ef4041bb5f11a27aa07e","bdp_trlrn","Sun Mar 12 2023 21:17:48 GMT-0500 (Central Daylight Time)","722537","Untrustworthy,Trustworthy","","5428","","","","rating","","trustrating_stim/white_mw053.bmp","3","","","","","","","","","","",""
"image-keyboard-response","42","94055","0.0-6.0-2.18","5f43ef4041bb5f11a27aa07e","bdp_trlrn","Sun Mar 12 2023 21:17:48 GMT-0500 (Central Daylight Time)","722537","Untrustworthy,Trustworthy","","null","","","","ratingFB","","trustrating_stim/white_mw053.bmp","null","","","","","","","","","","",""
"image-keyboard-response","43","97095","0.0-6.0-1.19","5f43ef4041bb5f11a27aa07e","bdp_trlrn","Sun Mar 12 2023 21:17:48 GMT-0500 (Central Daylight Time)","722537","Untrustworthy,Trustworthy","","2931","","","","rating","","trustrating_stim/white_00340_940422_fa_edt.bmp","3","","","","","","","","","","",""
"image-keyboard-response","44","97303","0.0-6.0-2.19","5f43ef4041bb5f11a27aa07e","bdp_trlrn","Sun Mar 12 2023 21:17:48 GMT-0500 (Central Daylight Time)","722537","Untrustworthy,Trustworthy","","null","","","","ratingFB","","trustrating_stim/white_00340_940422_fa_edt.bmp","null","","","","","","","","","","",""
"image-keyboard-response","45","101138","0.0-6.0-1.20","5f43ef4041bb5f11a27aa07e","bdp_trlrn","Sun Mar 12 2023 21:17:48 GMT-0500 (Central Daylight Time)","722537","Untrustworthy,Trustworthy","","3727","","","","rating","","trustrating_stim/white_00519_940519_fb_edt.bmp","7","","","","","","","","","","",""
"image-keyboard-response","46","101346","0.0-6.0-2.20","5f43ef4041bb5f11a27aa07e","bdp_trlrn","Sun Mar 12 2023 21:17:48 GMT-0500 (Central Daylight Time)","722537","Untrustworthy,Trustworthy","","null","","","","ratingFB","","trustrating_stim/white_00519_940519_fb_edt.bmp","null","","","","","","","","","","",""
"image-keyboard-response","47","107424","0.0-6.0-1.21","5f43ef4041bb5f11a27aa07e","bdp_trlrn","Sun Mar 12 2023 21:17:48 GMT-0500 (Central Daylight Time)","722537","Untrustworthy,Trustworthy","","5964","","","","rating","","trustrating_stim/white_mw046.bmp","5","","","","","","","","","","",""
"image-keyboard-response","48","107634","0.0-6.0-2.21","5f43ef4041bb5f11a27aa07e","bdp_trlrn","Sun Mar 12 2023 21:17:48 GMT-0500 (Central Daylight Time)","722537","Untrustworthy,Trustworthy","","null","","","","ratingFB","","trustrating_stim/white_mw046.bmp","null","","","","","","","","","","",""
"image-keyboard-response","49","109609","0.0-6.0-1.22","5f43ef4041bb5f11a27aa07e","bdp_trlrn","Sun Mar 12 2023 21:17:48 GMT-0500 (Central Daylight Time)","722537","Untrustworthy,Trustworthy","","1862","","","","rating","","trustrating_stim/white_mw063.bmp","3","","","","","","","","","","",""
"image-keyboard-response","50","109815","0.0-6.0-2.22","5f43ef4041bb5f11a27aa07e","bdp_trlrn","Sun Mar 12 2023 21:17:48 GMT-0500 (Central Daylight Time)","722537","Untrustworthy,Trustworthy","","null","","","","ratingFB","","trustrating_stim/white_mw063.bmp","null","","","","","","","","","","",""
"image-keyboard-response","51","113006","0.0-6.0-1.23","5f43ef4041bb5f11a27aa07e","bdp_trlrn","Sun Mar 12 2023 21:17:48 GMT-0500 (Central Daylight Time)","722537","Untrustworthy,Trustworthy","","3084","","","","rating","","trustrating_stim/white_00109_931230_fa_edt.bmp","7","","","","","","","","","","",""
"image-keyboard-response","52","113218","0.0-6.0-2.23","5f43ef4041bb5f11a27aa07e","bdp_trlrn","Sun Mar 12 2023 21:17:48 GMT-0500 (Central Daylight Time)","722537","Untrustworthy,Trustworthy","","null","","","","ratingFB","","trustrating_stim/white_00109_931230_fa_edt.bmp","null","","","","","","","","","","",""
"image-keyboard-response","53","115579","0.0-6.0-1.24","5f43ef4041bb5f11a27aa07e","bdp_trlrn","Sun Mar 12 2023 21:17:48 GMT-0500 (Central Daylight Time)","722537","Untrustworthy,Trustworthy","","2247","","","","rating","","trustrating_stim/white_00659_941121_fa_edt.bmp","3","","","","","","","","","","",""
"image-keyboard-response","54","115783","0.0-6.0-2.24","5f43ef4041bb5f11a27aa07e","bdp_trlrn","Sun Mar 12 2023 21:17:48 GMT-0500 (Central Daylight Time)","722537","Untrustworthy,Trustworthy","","null","","","","ratingFB","","trustrating_stim/white_00659_941121_fa_edt.bmp","null","","","","","","","","","","",""
"image-keyboard-response","55","118003","0.0-6.0-1.25","5f43ef4041bb5f11a27aa07e","bdp_trlrn","Sun Mar 12 2023 21:17:48 GMT-0500 (Central Daylight Time)","722537","Untrustworthy,Trustworthy","","2112","","","","rating","","trustrating_stim/white_mw097.bmp","3","","","","","","","","","","",""
"image-keyboard-response","56","118210","0.0-6.0-2.25","5f43ef4041bb5f11a27aa07e","bdp_trlrn","Sun Mar 12 2023 21:17:48 GMT-0500 (Central Daylight Time)","722537","Untrustworthy,Trustworthy","","null","","","","ratingFB","","trustrating_stim/white_mw097.bmp","null","","","","","","","","","","",""
"image-keyboard-response","57","119367","0.0-6.0-1.26","5f43ef4041bb5f11a27aa07e","bdp_trlrn","Sun Mar 12 2023 21:17:48 GMT-0500 (Central Daylight Time)","722537","Untrustworthy,Trustworthy","","1043","","","","rating","","trustrating_stim/white_mw060.bmp","2","","","","","","","","","","",""
"image-keyboard-response","58","119575","0.0-6.0-2.26","5f43ef4041bb5f11a27aa07e","bdp_trlrn","Sun Mar 12 2023 21:17:48 GMT-0500 (Central Daylight Time)","722537","Untrustworthy,Trustworthy","","null","","","","ratingFB","","trustrating_stim/white_mw060.bmp","null","","","","","","","","","","",""
"image-keyboard-response","59","121884","0.0-6.0-1.27","5f43ef4041bb5f11a27aa07e","bdp_trlrn","Sun Mar 12 2023 21:17:48 GMT-0500 (Central Daylight Time)","722537","Untrustworthy,Trustworthy","","2201","","","","rating","","trustrating_stim/white_00120_931230_fa_edt.bmp","6","","","","","","","","","","",""
"image-keyboard-response","60","122087","0.0-6.0-2.27","5f43ef4041bb5f11a27aa07e","bdp_trlrn","Sun Mar 12 2023 21:17:48 GMT-0500 (Central Daylight Time)","722537","Untrustworthy,Trustworthy","","null","","","","ratingFB","","trustrating_stim/white_00120_931230_fa_edt.bmp","null","","","","","","","","","","",""
"image-keyboard-response","61","123804","0.0-6.0-1.28","5f43ef4041bb5f11a27aa07e","bdp_trlrn","Sun Mar 12 2023 21:17:48 GMT-0500 (Central Daylight Time)","722537","Untrustworthy,Trustworthy","","1608","","","","rating","","trustrating_stim/white_00757_941201_fa_edt.bmp","4","","","","","","","","","","",""
"image-keyboard-response","62","124007","0.0-6.0-2.28","5f43ef4041bb5f11a27aa07e","bdp_trlrn","Sun Mar 12 2023 21:17:48 GMT-0500 (Central Daylight Time)","722537","Untrustworthy,Trustworthy","","null","","","","ratingFB","","trustrating_stim/white_00757_941201_fa_edt.bmp","null","","","","","","","","","","",""
"image-keyboard-response","63","126384","0.0-6.0-1.29","5f43ef4041bb5f11a27aa07e","bdp_trlrn","Sun Mar 12 2023 21:17:48 GMT-0500 (Central Daylight Time)","722537","Untrustworthy,Trustworthy","","2269","","","","rating","","trustrating_stim/white_mw089.bmp","4","","","","","","","","","","",""
"image-keyboard-response","64","126594","0.0-6.0-2.29","5f43ef4041bb5f11a27aa07e","bdp_trlrn","Sun Mar 12 2023 21:17:48 GMT-0500 (Central Daylight Time)","722537","Untrustworthy,Trustworthy","","null","","","","ratingFB","","trustrating_stim/white_mw089.bmp","null","","","","","","","","","","",""
"image-keyboard-response","65","128897","0.0-6.0-1.30","5f43ef4041bb5f11a27aa07e","bdp_trlrn","Sun Mar 12 2023 21:17:48 GMT-0500 (Central Daylight Time)","722537","Untrustworthy,Trustworthy","","2189","","","","rating","","trustrating_stim/white_00120_931230_fa_edt.bmp","7","","","","","","","","","","",""
"image-keyboard-response","66","129106","0.0-6.0-2.30","5f43ef4041bb5f11a27aa07e","bdp_trlrn","Sun Mar 12 2023 21:17:48 GMT-0500 (Central Daylight Time)","722537","Untrustworthy,Trustworthy","","null","","","","ratingFB","","trustrating_stim/white_00120_931230_fa_edt.bmp","null","","","","","","","","","","",""
"image-keyboard-response","67","132285","0.0-6.0-1.31","5f43ef4041bb5f11a27aa07e","bdp_trlrn","Sun Mar 12 2023 21:17:48 GMT-0500 (Central Daylight Time)","722537","Untrustworthy,Trustworthy","","3065","","","","rating","","trustrating_stim/white_mw060.bmp","4","","","","","","","","","","",""
"image-keyboard-response","68","132498","0.0-6.0-2.31","5f43ef4041bb5f11a27aa07e","bdp_trlrn","Sun Mar 12 2023 21:17:48 GMT-0500 (Central Daylight Time)","722537","Untrustworthy,Trustworthy","","null","","","","ratingFB","","trustrating_stim/white_mw060.bmp","null","","","","","","","","","","",""
"image-keyboard-response","69","137500","0.0-6.0-1.32","5f43ef4041bb5f11a27aa07e","bdp_trlrn","Sun Mar 12 2023 21:17:48 GMT-0500 (Central Daylight Time)","722537","Untrustworthy,Trustworthy","","4889","","","","rating","","trustrating_stim/white_mw053.bmp","7","","","","","","","","","","",""
"image-keyboard-response","70","137703","0.0-6.0-2.32","5f43ef4041bb5f11a27aa07e","bdp_trlrn","Sun Mar 12 2023 21:17:48 GMT-0500 (Central Daylight Time)","722537","Untrustworthy,Trustworthy","","null","","","","ratingFB","","trustrating_stim/white_mw053.bmp","null","","","","","","","","","","",""
"image-keyboard-response","71","141799","0.0-6.0-1.33","5f43ef4041bb5f11a27aa07e","bdp_trlrn","Sun Mar 12 2023 21:17:48 GMT-0500 (Central Daylight Time)","722537","Untrustworthy,Trustworthy","","3988","","","","rating","","trustrating_stim/white_mw033.bmp","6","","","","","","","","","","",""
"image-keyboard-response","72","142008","0.0-6.0-2.33","5f43ef4041bb5f11a27aa07e","bdp_trlrn","Sun Mar 12 2023 21:17:48 GMT-0500 (Central Daylight Time)","722537","Untrustworthy,Trustworthy","","null","","","","ratingFB","","trustrating_stim/white_mw033.bmp","null","","","","","","","","","","",""
"image-keyboard-response","73","143857","0.0-6.0-1.34","5f43ef4041bb5f11a27aa07e","bdp_trlrn","Sun Mar 12 2023 21:17:48 GMT-0500 (Central Daylight Time)","722537","Untrustworthy,Trustworthy","","1742","","","","rating","","trustrating_stim/white_00757_941201_fa_edt.bmp","2","","","","","","","","","","",""
"image-keyboard-response","74","144066","0.0-6.0-2.34","5f43ef4041bb5f11a27aa07e","bdp_trlrn","Sun Mar 12 2023 21:17:48 GMT-0500 (Central Daylight Time)","722537","Untrustworthy,Trustworthy","","null","","","","ratingFB","","trustrating_stim/white_00757_941201_fa_edt.bmp","null","","","","","","","","","","",""
"image-keyboard-response","75","145281","0.0-6.0-1.35","5f43ef4041bb5f11a27aa07e","bdp_trlrn","Sun Mar 12 2023 21:17:48 GMT-0500 (Central Daylight Time)","722537","Untrustworthy,Trustworthy","","1101","","","","rating","","trustrating_stim/white_00129_931230_fb_edt.bmp","3","","","","","","","","","","",""
"image-keyboard-response","76","145490","0.0-6.0-2.35","5f43ef4041bb5f11a27aa07e","bdp_trlrn","Sun Mar 12 2023 21:17:48 GMT-0500 (Central Daylight Time)","722537","Untrustworthy,Trustworthy","","null","","","","ratingFB","","trustrating_stim/white_00129_931230_fb_edt.bmp","null","","","","","","","","","","",""
"image-keyboard-response","77","148299","0.0-6.0-1.36","5f43ef4041bb5f11a27aa07e","bdp_trlrn","Sun Mar 12 2023 21:17:48 GMT-0500 (Central Daylight Time)","722537","Untrustworthy,Trustworthy","","2696","","","","rating","","trustrating_stim/white_00602_940928_fb_edt.bmp","8","","","","","","","","","","",""
"image-keyboard-response","78","148503","0.0-6.0-2.36","5f43ef4041bb5f11a27aa07e","bdp_trlrn","Sun Mar 12 2023 21:17:48 GMT-0500 (Central Daylight Time)","722537","Untrustworthy,Trustworthy","","null","","","","ratingFB","","trustrating_stim/white_00602_940928_fb_edt.bmp","null","","","","","","","","","","",""
"image-keyboard-response","79","150581","0.0-6.0-1.37","5f43ef4041bb5f11a27aa07e","bdp_trlrn","Sun Mar 12 2023 21:17:48 GMT-0500 (Central Daylight Time)","722537","Untrustworthy,Trustworthy","","1970","","","","rating","","trustrating_stim/white_00223_940128_fb_edt.bmp","1","","","","","","","","","","",""
"image-keyboard-response","80","150791","0.0-6.0-2.37","5f43ef4041bb5f11a27aa07e","bdp_trlrn","Sun Mar 12 2023 21:17:48 GMT-0500 (Central Daylight Time)","722537","Untrustworthy,Trustworthy","","null","","","","ratingFB","","trustrating_stim/white_00223_940128_fb_edt.bmp","null","","","","","","","","","","",""
"image-keyboard-response","81","152278","0.0-6.0-1.38","5f43ef4041bb5f11a27aa07e","bdp_trlrn","Sun Mar 12 2023 21:17:48 GMT-0500 (Central Daylight Time)","722537","Untrustworthy,Trustworthy","","1379","","","","rating","","trustrating_stim/white_00898_960530_fa_edt.bmp","2","","","","","","","","","","",""
"image-keyboard-response","82","152487","0.0-6.0-2.38","5f43ef4041bb5f11a27aa07e","bdp_trlrn","Sun Mar 12 2023 21:17:48 GMT-0500 (Central Daylight Time)","722537","Untrustworthy,Trustworthy","","null","","","","ratingFB","","trustrating_stim/white_00898_960530_fa_edt.bmp","null","","","","","","","","","","",""
"image-keyboard-response","83","153966","0.0-6.0-1.39","5f43ef4041bb5f11a27aa07e","bdp_trlrn","Sun Mar 12 2023 21:17:48 GMT-0500 (Central Daylight Time)","722537","Untrustworthy,Trustworthy","","1370","","","","rating","","trustrating_stim/white_mw048.bmp","2","","","","","","","","","","",""
"image-keyboard-response","84","154178","0.0-6.0-2.39","5f43ef4041bb5f11a27aa07e","bdp_trlrn","Sun Mar 12 2023 21:17:48 GMT-0500 (Central Daylight Time)","722537","Untrustworthy,Trustworthy","","null","","","","ratingFB","","trustrating_stim/white_mw048.bmp","null","","","","","","","","","","",""
"image-keyboard-response","85","155952","0.0-6.0-1.40","5f43ef4041bb5f11a27aa07e","bdp_trlrn","Sun Mar 12 2023 21:17:48 GMT-0500 (Central Daylight Time)","722537","Untrustworthy,Trustworthy","","1661","","","","rating","","trustrating_stim/white_mw066.bmp","7","","","","","","","","","","",""
"image-keyboard-response","86","156162","0.0-6.0-2.40","5f43ef4041bb5f11a27aa07e","bdp_trlrn","Sun Mar 12 2023 21:17:48 GMT-0500 (Central Daylight Time)","722537","Untrustworthy,Trustworthy","","null","","","","ratingFB","","trustrating_stim/white_mw066.bmp","null","","","","","","","","","","",""
"image-keyboard-response","87","157666","0.0-6.0-1.41","5f43ef4041bb5f11a27aa07e","bdp_trlrn","Sun Mar 12 2023 21:17:48 GMT-0500 (Central Daylight Time)","722537","Untrustworthy,Trustworthy","","1392","","","","rating","","trustrating_stim/white_mw097.bmp","2","","","","","","","","","","",""
"image-keyboard-response","88","157874","0.0-6.0-2.41","5f43ef4041bb5f11a27aa07e","bdp_trlrn","Sun Mar 12 2023 21:17:48 GMT-0500 (Central Daylight Time)","722537","Untrustworthy,Trustworthy","","null","","","","ratingFB","","trustrating_stim/white_mw097.bmp","null","","","","","","","","","","",""
"image-keyboard-response","89","159494","0.0-6.0-1.42","5f43ef4041bb5f11a27aa07e","bdp_trlrn","Sun Mar 12 2023 21:17:48 GMT-0500 (Central Daylight Time)","722537","Untrustworthy,Trustworthy","","1509","","","","rating","","trustrating_stim/white_mw071.bmp","3","","","","","","","","","","",""
"image-keyboard-response","90","159703","0.0-6.0-2.42","5f43ef4041bb5f11a27aa07e","bdp_trlrn","Sun Mar 12 2023 21:17:48 GMT-0500 (Central Daylight Time)","722537","Untrustworthy,Trustworthy","","null","","","","ratingFB","","trustrating_stim/white_mw071.bmp","null","","","","","","","","","","",""
"image-keyboard-response","91","161248","0.0-6.0-1.43","5f43ef4041bb5f11a27aa07e","bdp_trlrn","Sun Mar 12 2023 21:17:48 GMT-0500 (Central Daylight Time)","722537","Untrustworthy,Trustworthy","","1438","","","","rating","","trustrating_stim/white_00340_940422_fa_edt.bmp","2","","","","","","","","","","",""
"image-keyboard-response","92","161458","0.0-6.0-2.43","5f43ef4041bb5f11a27aa07e","bdp_trlrn","Sun Mar 12 2023 21:17:48 GMT-0500 (Central Daylight Time)","722537","Untrustworthy,Trustworthy","","null","","","","ratingFB","","trustrating_stim/white_00340_940422_fa_edt.bmp","null","","","","","","","","","","",""
"image-keyboard-response","93","164178","0.0-6.0-1.44","5f43ef4041bb5f11a27aa07e","bdp_trlrn","Sun Mar 12 2023 21:17:48 GMT-0500 (Central Daylight Time)","722537","Untrustworthy,Trustworthy","","2607","","","","rating","","trustrating_stim/white_mw089.bmp","2","","","","","","","","","","",""
"image-keyboard-response","94","164386","0.0-6.0-2.44","5f43ef4041bb5f11a27aa07e","bdp_trlrn","Sun Mar 12 2023 21:17:48 GMT-0500 (Central Daylight Time)","722537","Untrustworthy,Trustworthy","","null","","","","ratingFB","","trustrating_stim/white_mw089.bmp","null","","","","","","","","","","",""
"image-keyboard-response","95","166069","0.0-6.0-1.45","5f43ef4041bb5f11a27aa07e","bdp_trlrn","Sun Mar 12 2023 21:17:48 GMT-0500 (Central Daylight Time)","722537","Untrustworthy,Trustworthy","","1570","","","","rating","","trustrating_stim/white_mw084.bmp","3","","","","","","","","","","",""
"image-keyboard-response","96","166279","0.0-6.0-2.45","5f43ef4041bb5f11a27aa07e","bdp_trlrn","Sun Mar 12 2023 21:17:48 GMT-0500 (Central Daylight Time)","722537","Untrustworthy,Trustworthy","","null","","","","ratingFB","","trustrating_stim/white_mw084.bmp","null","","","","","","","","","","",""
"image-keyboard-response","97","169723","0.0-6.0-1.46","5f43ef4041bb5f11a27aa07e","bdp_trlrn","Sun Mar 12 2023 21:17:48 GMT-0500 (Central Daylight Time)","722537","Untrustworthy,Trustworthy","","3336","","","","rating","","trustrating_stim/white_00299_940422_fa_edt.bmp","6","","","","","","","","","","",""
"image-keyboard-response","98","169927","0.0-6.0-2.46","5f43ef4041bb5f11a27aa07e","bdp_trlrn","Sun Mar 12 2023 21:17:48 GMT-0500 (Central Daylight Time)","722537","Untrustworthy,Trustworthy","","null","","","","ratingFB","","trustrating_stim/white_00299_940422_fa_edt.bmp","null","","","","","","","","","","",""
"image-keyboard-response","99","172028","0.0-6.0-1.47","5f43ef4041bb5f11a27aa07e","bdp_trlrn","Sun Mar 12 2023 21:17:48 GMT-0500 (Central Daylight Time)","722537","Untrustworthy,Trustworthy","","1993","","","","rating","","trustrating_stim/white_mw046.bmp","3","","","","","","","","","","",""
"image-keyboard-response","100","172231","0.0-6.0-2.47","5f43ef4041bb5f11a27aa07e","bdp_trlrn","Sun Mar 12 2023 21:17:48 GMT-0500 (Central Daylight Time)","722537","Untrustworthy,Trustworthy","","null","","","","ratingFB","","trustrating_stim/white_mw046.bmp","null","","","","","","","","","","",""
"image-keyboard-response","101","175141","0.0-6.0-1.48","5f43ef4041bb5f11a27aa07e","bdp_trlrn","Sun Mar 12 2023 21:17:48 GMT-0500 (Central Daylight Time)","722537","Untrustworthy,Trustworthy","","2802","","","","rating","","trustrating_stim/white_00109_931230_fa_edt.bmp","7","","","","","","","","","","",""
"image-keyboard-response","102","175351","0.0-6.0-2.48","5f43ef4041bb5f11a27aa07e","bdp_trlrn","Sun Mar 12 2023 21:17:48 GMT-0500 (Central Daylight Time)","722537","Untrustworthy,Trustworthy","","null","","","","ratingFB","","trustrating_stim/white_00109_931230_fa_edt.bmp","null","","","","","","","","","","",""
"image-keyboard-response","103","177185","0.0-6.0-1.49","5f43ef4041bb5f11a27aa07e","bdp_trlrn","Sun Mar 12 2023 21:17:48 GMT-0500 (Central Daylight Time)","722537","Untrustworthy,Trustworthy","","1726","","","","rating","","trustrating_stim/white_00785_941205_fb_edt.bmp","2","","","","","","","","","","",""
"image-keyboard-response","104","177394","0.0-6.0-2.49","5f43ef4041bb5f11a27aa07e","bdp_trlrn","Sun Mar 12 2023 21:17:48 GMT-0500 (Central Daylight Time)","722537","Untrustworthy,Trustworthy","","null","","","","ratingFB","","trustrating_stim/white_00785_941205_fb_edt.bmp","null","","","","","","","","","","",""
"image-keyboard-response","105","179717","0.0-6.0-1.50","5f43ef4041bb5f11a27aa07e","bdp_trlrn","Sun Mar 12 2023 21:17:48 GMT-0500 (Central Daylight Time)","722537","Untrustworthy,Trustworthy","","2210","","","","rating","","trustrating_stim/white_00519_940519_fb_edt.bmp","6","","","","","","","","","","",""
"image-keyboard-response","106","179927","0.0-6.0-2.50","5f43ef4041bb5f11a27aa07e","bdp_trlrn","Sun Mar 12 2023 21:17:48 GMT-0500 (Central Daylight Time)","722537","Untrustworthy,Trustworthy","","null","","","","ratingFB","","trustrating_stim/white_00519_940519_fb_edt.bmp","null","","","","","","","","","","",""
"image-keyboard-response","107","184247","0.0-6.0-1.51","5f43ef4041bb5f11a27aa07e","bdp_trlrn","Sun Mar 12 2023 21:17:48 GMT-0500 (Central Daylight Time)","722537","Untrustworthy,Trustworthy","","4212","","","","rating","","trustrating_stim/white_00659_941121_fa_edt.bmp","2","","","","","","","","","","",""
"image-keyboard-response","108","184455","0.0-6.0-2.51","5f43ef4041bb5f11a27aa07e","bdp_trlrn","Sun Mar 12 2023 21:17:48 GMT-0500 (Central Daylight Time)","722537","Untrustworthy,Trustworthy","","null","","","","ratingFB","","trustrating_stim/white_00659_941121_fa_edt.bmp","null","","","","","","","","","","",""
"image-keyboard-response","109","186412","0.0-6.0-1.52","5f43ef4041bb5f11a27aa07e","bdp_trlrn","Sun Mar 12 2023 21:17:48 GMT-0500 (Central Daylight Time)","722537","Untrustworthy,Trustworthy","","1848","","","","rating","","trustrating_stim/white_mw035.bmp","7","","","","","","","","","","",""
"image-keyboard-response","110","186615","0.0-6.0-2.52","5f43ef4041bb5f11a27aa07e","bdp_trlrn","Sun Mar 12 2023 21:17:48 GMT-0500 (Central Daylight Time)","722537","Untrustworthy,Trustworthy","","null","","","","ratingFB","","trustrating_stim/white_mw035.bmp","null","","","","","","","","","","",""
"image-keyboard-response","111","189744","0.0-6.0-1.53","5f43ef4041bb5f11a27aa07e","bdp_trlrn","Sun Mar 12 2023 21:17:48 GMT-0500 (Central Daylight Time)","722537","Untrustworthy,Trustworthy","","3022","","","","rating","","trustrating_stim/white_mw099.bmp","5","","","","","","","","","","",""
"image-keyboard-response","112","189953","0.0-6.0-2.53","5f43ef4041bb5f11a27aa07e","bdp_trlrn","Sun Mar 12 2023 21:17:48 GMT-0500 (Central Daylight Time)","722537","Untrustworthy,Trustworthy","","null","","","","ratingFB","","trustrating_stim/white_mw099.bmp","null","","","","","","","","","","",""
"image-keyboard-response","113","192199","0.0-6.0-1.54","5f43ef4041bb5f11a27aa07e","bdp_trlrn","Sun Mar 12 2023 21:17:48 GMT-0500 (Central Daylight Time)","722537","Untrustworthy,Trustworthy","","2132","","","","rating","","trustrating_stim/white_mw049.bmp","8","","","","","","","","","","",""
"image-keyboard-response","114","192407","0.0-6.0-2.54","5f43ef4041bb5f11a27aa07e","bdp_trlrn","Sun Mar 12 2023 21:17:48 GMT-0500 (Central Daylight Time)","722537","Untrustworthy,Trustworthy","","null","","","","ratingFB","","trustrating_stim/white_mw049.bmp","null","","","","","","","","","","",""
"image-keyboard-response","115","193885","0.0-6.0-1.55","5f43ef4041bb5f11a27aa07e","bdp_trlrn","Sun Mar 12 2023 21:17:48 GMT-0500 (Central Daylight Time)","722537","Untrustworthy,Trustworthy","","1370","","","","rating","","trustrating_stim/white_00761_941201_fb_edt.bmp","7","","","","","","","","","","",""
"image-keyboard-response","116","194098","0.0-6.0-2.55","5f43ef4041bb5f11a27aa07e","bdp_trlrn","Sun Mar 12 2023 21:17:48 GMT-0500 (Central Daylight Time)","722537","Untrustworthy,Trustworthy","","null","","","","ratingFB","","trustrating_stim/white_00761_941201_fb_edt.bmp","null","","","","","","","","","","",""
"image-keyboard-response","117","199117","0.0-6.0-1.56","5f43ef4041bb5f11a27aa07e","bdp_trlrn","Sun Mar 12 2023 21:17:48 GMT-0500 (Central Daylight Time)","722537","Untrustworthy,Trustworthy","","4906","","","","rating","","trustrating_stim/white_mw056.bmp","6","","","","","","","","","","",""
"image-keyboard-response","118","199329","0.0-6.0-2.56","5f43ef4041bb5f11a27aa07e","bdp_trlrn","Sun Mar 12 2023 21:17:48 GMT-0500 (Central Daylight Time)","722537","Untrustworthy,Trustworthy","","null","","","","ratingFB","","trustrating_stim/white_mw056.bmp","null","","","","","","","","","","",""
"image-keyboard-response","119","201590","0.0-6.0-1.57","5f43ef4041bb5f11a27aa07e","bdp_trlrn","Sun Mar 12 2023 21:17:48 GMT-0500 (Central Daylight Time)","722537","Untrustworthy,Trustworthy","","2148","","","","rating","","trustrating_stim/white_00807_941205_fb_edt.bmp","5","","","","","","","","","","",""
"image-keyboard-response","120","201799","0.0-6.0-2.57","5f43ef4041bb5f11a27aa07e","bdp_trlrn","Sun Mar 12 2023 21:17:48 GMT-0500 (Central Daylight Time)","722537","Untrustworthy,Trustworthy","","null","","","","ratingFB","","trustrating_stim/white_00807_941205_fb_edt.bmp","null","","","","","","","","","","",""
"image-keyboard-response","121","203150","0.0-6.0-1.58","5f43ef4041bb5f11a27aa07e","bdp_trlrn","Sun Mar 12 2023 21:17:48 GMT-0500 (Central Daylight Time)","722537","Untrustworthy,Trustworthy","","1244","","","","rating","","trustrating_stim/white_mw063.bmp","2","","","","","","","","","","",""
"image-keyboard-response","122","203361","0.0-6.0-2.58","5f43ef4041bb5f11a27aa07e","bdp_trlrn","Sun Mar 12 2023 21:17:48 GMT-0500 (Central Daylight Time)","722537","Untrustworthy,Trustworthy","","null","","","","ratingFB","","trustrating_stim/white_mw063.bmp","null","","","","","","","","","","",""
"image-keyboard-response","123","204603","0.0-6.0-1.59","5f43ef4041bb5f11a27aa07e","bdp_trlrn","Sun Mar 12 2023 21:17:48 GMT-0500 (Central Daylight Time)","722537","Untrustworthy,Trustworthy","","1128","","","","rating","","trustrating_stim/white_00577_940928_fa_edt.bmp","2","","","","","","","","","","",""
"image-keyboard-response","124","204807","0.0-6.0-2.59","5f43ef4041bb5f11a27aa07e","bdp_trlrn","Sun Mar 12 2023 21:17:48 GMT-0500 (Central Daylight Time)","722537","Untrustworthy,Trustworthy","","null","","","","ratingFB","","trustrating_stim/white_00577_940928_fa_edt.bmp","null","","","","","","","","","","",""
"instructions","125","206856","0.0-7.0","5f43ef4041bb5f11a27aa07e","bdp_trlrn","Sun Mar 12 2023 21:17:48 GMT-0500 (Central Daylight Time)","722537","Untrustworthy,Trustworthy","[{""page_index"":0,""viewing_time"":1943}]","1943","","","","","","","","","","","","","","","","","",""
"instructions","126","313744","0.0-8.0","5f43ef4041bb5f11a27aa07e","bdp_trlrn","Sun Mar 12 2023 21:17:48 GMT-0500 (Central Daylight Time)","722537","Untrustworthy,Trustworthy","[{""page_index"":0,""viewing_time"":23710},{""page_index"":1,""viewing_time"":15950},{""page_index"":2,""viewing_time"":7203},{""page_index"":3,""viewing_time"":13480},{""page_index"":4,""viewing_time"":9303},{""page_index"":5,""viewing_time"":14103},{""page_index"":6,""viewing_time"":17903},{""page_index"":7,""viewing_time"":5128}]","106781","","","","","","","","","","","","","","","","","",""
"html-keyboard-response","127","317262","0.0-9.0","5f43ef4041bb5f11a27aa07e","bdp_trlrn","Sun Mar 12 2023 21:17:48 GMT-0500 (Central Daylight Time)","722537","Untrustworthy,Trustworthy","","3516","","","","","","<div class='header' style='text-align:left; position: absolute; top: 5%; left: 5%;'><small>Task 3 of 5</small></div><div class='instruxDiv'><p><strong>1) What is the minimum number of points you can choose to send to your partner?</strong></p><p>a) 0</p><p>b) 1</p><p>c) 5</p>","C","","","","","","","","","","",""
"html-keyboard-response","128","321214","0.0-10.0","5f43ef4041bb5f11a27aa07e","bdp_trlrn","Sun Mar 12 2023 21:17:48 GMT-0500 (Central Daylight Time)","722537","Untrustworthy,Trustworthy","","3847","","","","","","<div class='header' style='text-align:left; position: absolute; top: 5%; left: 5%;'><small>Task 3 of 5</small></div><div class='instruxDiv'><p><strong>1) What is the minimum number of points you can choose to send to your partner?</strong></p><p>a) 1</p><p>b) 1</p><p style='color:#FF0000'>c) 5</p><h3 style='color:#FF0000'>Incorrect!</h3><h3 class='center-content'>The correct response is b).</h3><h3 class='center-content'>The minimum number of points you can choose to send to your partner is 1 point.</h3><p><em>Press SPACEBAR to continue</em></p></div>"," ","","","","","","","","","","",""
"html-keyboard-response","129","326239","0.0-11.0","5f43ef4041bb5f11a27aa07e","bdp_trlrn","Sun Mar 12 2023 21:17:48 GMT-0500 (Central Daylight Time)","722537","Untrustworthy,Trustworthy","","4920","","","","","","<div class='header' style='text-align:left; position: absolute; top: 5%; left: 5%;'><small>Task 3 of 5</small></div><div class='instruxDiv'><p><strong>2) What is the maximum number of points you can choose to send to your partner?</strong></p><p>a) 8</p><p>b) 5</p><p>c) 3</p>","B","","","","","","","","","","",""
"html-keyboard-response","130","327553","0.0-12.0","5f43ef4041bb5f11a27aa07e","bdp_trlrn","Sun Mar 12 2023 21:17:48 GMT-0500 (Central Daylight Time)","722537","Untrustworthy,Trustworthy","","1210","","","","","","<div class='header' style='text-align:left; position: absolute; top: 5%; left: 5%;'><small>Task 3 of 5</small></div><div class='instruxDiv'><p><strong>2) What is the maximum number of points you can choose to send to your partner?</strong></p><p>a) 8</p><p style='color:#00FF00'>b) 5</p><p>c) 3</p><h3 style='color:#00FF00'>Correct!</h3><h3 class='center-content'>The correct response is b).</h3><h3 class='center-content'>The maximum number of points you can choose to send to your partner is 5 points.</h3><p><em>Press SPACEBAR to continue</em></p></div>"," ","","","","","","","","","","",""
"html-keyboard-response","131","330680","0.0-13.0","5f43ef4041bb5f11a27aa07e","bdp_trlrn","Sun Mar 12 2023 21:17:48 GMT-0500 (Central Daylight Time)","722537","Untrustworthy,Trustworthy","","3015","","","","","","<div class='header' style='text-align:left; position: absolute; top: 5%; left: 5%;'><small>Task 3 of 5</small></div><div class='instruxDiv'><p><strong>3) What happens to the amount of points you send to your partner?</strong></p><p>a) Nothing</p><p>b) It doubles</p><p>c) It quadruples</p>","C","","","","","","","","","","",""
"html-keyboard-response","132","331861","0.0-14.0","5f43ef4041bb5f11a27aa07e","bdp_trlrn","Sun Mar 12 2023 21:17:48 GMT-0500 (Central Daylight Time)","722537","Untrustworthy,Trustworthy","","1075","","","","","","<div class='header' style='text-align:left; position: absolute; top: 5%; left: 5%;'><small>Task 3 of 5</small></div><div class='instruxDiv'><p><strong>3) What happens to the amount of points you send to your partner?</strong></p><p>a) Nothing</p><p>b) It doubles</p><p style='color:#00FF00'>c) It quadruples</p><h3 style='color:#00FF00'>Correct!</h3><h3 class='center-content'>The correct response is c).</h3><h3 class='center-content'>The amount of points you send to your partner quadruples.</h3><p><em>Press SPACEBAR to continue</em></p></div>"," ","","","","","","","","","","",""
"html-keyboard-response","133","341518","0.0-15.0","5f43ef4041bb5f11a27aa07e","bdp_trlrn","Sun Mar 12 2023 21:17:48 GMT-0500 (Central Daylight Time)","722537","Untrustworthy,Trustworthy","","9548","","","","","","<div class='header' style='text-align:left; position: absolute; top: 5%; left: 5%;'><small>Task 3 of 5</small></div><div class='instruxDiv'><p><strong>4) If you decided to share 4 out of 5 points with your partner, and they decided to share half of the amount they received with you, how many points would you receive back from them on this round?</strong></p><p>a) 16</p><p>b) 0</p><p>c) 8</p>","C","","","","","","","","","","",""
"html-keyboard-response","134","344042","0.0-16.0","5f43ef4041bb5f11a27aa07e","bdp_trlrn","Sun Mar 12 2023 21:17:48 GMT-0500 (Central Daylight Time)","722537","Untrustworthy,Trustworthy","","2419","","","","","","<div class='header' style='text-align:left; position: absolute; top: 5%; left: 5%;'><small>Task 3 of 5</small></div><div class='instruxDiv'><p><strong>4) If you decided to share 4 out of 5 points with your partner, and they decided to share half of the amount they received with you, how many points would you receive back from them on this round?</strong></p><p>a) 16</p><p>b) 0</p><p style='color:#00FF00'>c) 8</p><h3 style='color:#00FF00'>Correct!</h3><h3 class='center-content'>The correct response is c).</h3><h3 class='center-content'>If you shared 4 out of 5 points with your partner and they decided to share half of the amount they received with you, you would receive 8 points back (i.e. (4 x 4)/2 = 8).</h3><p><em>Press SPACEBAR to continue</em></p></div>"," ","","","","","","","","","","",""
"html-keyboard-response","135","349158","0.0-17.0","5f43ef4041bb5f11a27aa07e","bdp_trlrn","Sun Mar 12 2023 21:17:48 GMT-0500 (Central Daylight Time)","722537","Untrustworthy,Trustworthy","","null","","","","","","<div class='header' style='text-align:left; position: absolute; top: 5%; left: 5%;'><small>Task 3 of 5</small></div><div class='instruxDiv'><p>Thank you for completing the quiz<p>These are the actual partners you will be interacting with in the next block:<p><div class='tc' align='center'><img class='introPic' src='trustrating_stim/white_mw048.bmp'><br><strong>Joseph</strong></div><div class='bl' align='center'><img class='introPic' src='trustrating_stim/white_mw071.bmp'><br><strong>Ethan</strong></div><div class='br' align='center'><img class='introPic' src='trustrating_stim/white_00109_931230_fa_edt.bmp'><br><strong>Timothy</strong></div></div><p>Across <strong>66 rounds</strong> you will interact with each partner <strong>22 times</strong> (in random order).<p style='align:center; color:white'><font <em>Press SPACEBAR to continue</em></p>","null","","","","","","","","","","",""
"instructions","136","359916","0.0-18.0","5f43ef4041bb5f11a27aa07e","bdp_trlrn","Sun Mar 12 2023 21:17:48 GMT-0500 (Central Daylight Time)","722537","Untrustworthy,Trustworthy","[{""page_index"":0,""viewing_time"":6728},{""page_index"":1,""viewing_time"":4027}]","10756","","","","","","","","","","","","","","","","","",""
"html-keyboard-response","137","363274","0.0-19.0-1.0","5f43ef4041bb5f11a27aa07e","bdp_trlrn","Sun Mar 12 2023 21:17:48 GMT-0500 (Central Daylight Time)","722537","Untrustworthy,Trustworthy","","3250","","","","decision","","<div class='trialDiv'><img src='trustrating_stim/white_mw048.bmp'><br><font class='baseline'><strong>Joseph</strong><p>Choose number of points to send.</font><div class='respPicDiv'><img src='img/responseButtonOffersNo0L.png' class='respPic'></div></div>","2","1","Joseph","1","Shared","0.65,0.2","11","0.65","trustrating_stim/white_mw048.bmp","2","5","1"
"html-keyboard-response","138","363536","0.0-19.0-2.0","5f43ef4041bb5f11a27aa07e","bdp_trlrn","Sun Mar 12 2023 21:17:48 GMT-0500 (Central Daylight Time)","722537","Untrustworthy,Trustworthy","","null","","","","decisionFB","","<div class='trialDiv'><img src='trustrating_stim/white_mw048.bmp'><br><font class='baseline'><strong>Joseph</strong><p>Choose number of points to send.</font><div class='respPicDiv'><img src='img/responseButtonOffersNo0L2.png' class='respPic'></div></div>","null","1","Joseph","1","Shared","0.65,0.2","11","0.65","trustrating_stim/white_mw048.bmp","2","3","1"
"html-keyboard-response","139","364545","0.0-19.0-3.0","5f43ef4041bb5f11a27aa07e","bdp_trlrn","Sun Mar 12 2023 21:17:48 GMT-0500 (Central Daylight Time)","722537","Untrustworthy,Trustworthy","","null","","","","feedback","","<div class='trialDiv'><img src='trustrating_stim/white_mw048.bmp'><br><font class='baseline'><strong>Joseph</strong><p>Received: <strong>8</strong></font> &nbsp; &nbsp; &nbsp; &nbsp; &nbsp; &nbsp;<font class='posOutcome'>Shared back: <strong>4</strong></font></font><div class='respPicDiv'><img src='img/responseButtonOffersNo0_wht.png' class='respPic'></div></div>","null","1","Joseph","1","Shared","0.65,0.2","11","0.65","trustrating_stim/white_mw048.bmp","2","7","1"
"html-keyboard-response","140","368353","0.0-19.0-1.1","5f43ef4041bb5f11a27aa07e","bdp_trlrn","Sun Mar 12 2023 21:17:48 GMT-0500 (Central Daylight Time)","722537","Untrustworthy,Trustworthy","","3806","","","","decision","","<div class='trialDiv'><img src='trustrating_stim/white_mw071.bmp'><br><font class='baseline'><strong>Ethan</strong><p>Choose number of points to send.</font><div class='respPicDiv'><img src='img/responseButtonOffersNo0L.png' class='respPic'></div></div>","3","1","Ethan","6","Kept","0.2,0.8","14","0.2","trustrating_stim/white_mw071.bmp","4","12","2"
"html-keyboard-response","141","368614","0.0-19.0-2.1","5f43ef4041bb5f11a27aa07e","bdp_trlrn","Sun Mar 12 2023 21:17:48 GMT-0500 (Central Daylight Time)","722537","Untrustworthy,Trustworthy","","null","","","","decisionFB","","<div class='trialDiv'><img src='trustrating_stim/white_mw071.bmp'><br><font class='baseline'><strong>Ethan</strong><p>Choose number of points to send.</font><div class='respPicDiv'><img src='img/responseButtonOffersNo0L3.png' class='respPic'></div></div>","null","1","Ethan","6","Kept","0.2,0.8","14","0.2","trustrating_stim/white_mw071.bmp","4","9","2"
"html-keyboard-response","142","369622","0.0-19.0-3.1","5f43ef4041bb5f11a27aa07e","bdp_trlrn","Sun Mar 12 2023 21:17:48 GMT-0500 (Central Daylight Time)","722537","Untrustworthy,Trustworthy","","null","","","","feedback","","<div class='trialDiv'><img src='trustrating_stim/white_mw071.bmp'><br><font class='baseline'><strong>Ethan</strong><p>Received: <strong>12</strong></font> &nbsp; &nbsp; &nbsp; &nbsp; &nbsp; &nbsp;<font class='negOutcome'>Shared back: <strong>0</strong></font></font><div class='respPicDiv'><img src='img/responseButtonOffersNo0_wht.png' class='respPic'></div></div>","null","1","Ethan","6","Kept","0.2,0.8","14","0.2","trustrating_stim/white_mw071.bmp","4","9","2"
"html-keyboard-response","143","371395","0.0-19.0-1.2","5f43ef4041bb5f11a27aa07e","bdp_trlrn","Sun Mar 12 2023 21:17:48 GMT-0500 (Central Daylight Time)","722537","Untrustworthy,Trustworthy","","1771","","","","decision","","<div class='trialDiv'><img src='trustrating_stim/white_00109_931230_fa_edt.bmp'><br><font class='baseline'><strong>Timothy</strong><p>Choose number of points to send.</font><div class='respPicDiv'><img src='img/responseButtonOffersNo0L.png' class='respPic'></div></div>","4","1","Timothy","8","Kept","0.2,0.65","8","0.2","trustrating_stim/white_00109_931230_fa_edt.bmp","7","14","3"
"html-keyboard-response","144","371654","0.0-19.0-2.2","5f43ef4041bb5f11a27aa07e","bdp_trlrn","Sun Mar 12 2023 21:17:48 GMT-0500 (Central Daylight Time)","722537","Untrustworthy,Trustworthy","","null","","","","decisionFB","","<div class='trialDiv'><img src='trustrating_stim/white_00109_931230_fa_edt.bmp'><br><font class='baseline'><strong>Timothy</strong><p>Choose number of points to send.</font><div class='respPicDiv'><img src='img/responseButtonOffersNo0L4.png' class='respPic'></div></div>","null","1","Timothy","8","Kept","0.2,0.65","8","0.2","trustrating_stim/white_00109_931230_fa_edt.bmp","7","10","3"
"html-keyboard-response","145","372662","0.0-19.0-3.2","5f43ef4041bb5f11a27aa07e","bdp_trlrn","Sun Mar 12 2023 21:17:48 GMT-0500 (Central Daylight Time)","722537","Untrustworthy,Trustworthy","","null","","","","feedback","","<div class='trialDiv'><img src='trustrating_stim/white_00109_931230_fa_edt.bmp'><br><font class='baseline'><strong>Timothy</strong><p>Received: <strong>16</strong></font> &nbsp; &nbsp; &nbsp; &nbsp; &nbsp; &nbsp;<font class='negOutcome'>Shared back: <strong>0</strong></font></font><div class='respPicDiv'><img src='img/responseButtonOffersNo0_wht.png' class='respPic'></div></div>","null","1","Timothy","8","Kept","0.2,0.65","8","0.2","trustrating_stim/white_00109_931230_fa_edt.bmp","7","10","3"
"html-keyboard-response","146","373907","0.0-19.0-1.3","5f43ef4041bb5f11a27aa07e","bdp_trlrn","Sun Mar 12 2023 21:17:48 GMT-0500 (Central Daylight Time)","722537","Untrustworthy,Trustworthy","","1242","","","","decision","","<div class='trialDiv'><img src='trustrating_stim/white_mw048.bmp'><br><font class='baseline'><strong>Joseph</strong><p>Choose number of points to send.</font><div class='respPicDiv'><img src='img/responseButtonOffersNo0L.png' class='respPic'></div></div>","4","2","Joseph","1","Shared","0.65,0.2","11","0.65","trustrating_stim/white_mw048.bmp","2","15","4"
"html-keyboard-response","147","374166","0.0-19.0-2.3","5f43ef4041bb5f11a27aa07e","bdp_trlrn","Sun Mar 12 2023 21:17:48 GMT-0500 (Central Daylight Time)","722537","Untrustworthy,Trustworthy","","null","","","","decisionFB","","<div class='trialDiv'><img src='trustrating_stim/white_mw048.bmp'><br><font class='baseline'><strong>Joseph</strong><p>Choose number of points to send.</font><div class='respPicDiv'><img src='img/responseButtonOffersNo0L4.png' class='respPic'></div></div>","null","2","Joseph","1","Shared","0.65,0.2","11","0.65","trustrating_stim/white_mw048.bmp","2","11","4"
"html-keyboard-response","148","375174","0.0-19.0-3.3","5f43ef4041bb5f11a27aa07e","bdp_trlrn","Sun Mar 12 2023 21:17:48 GMT-0500 (Central Daylight Time)","722537","Untrustworthy,Trustworthy","","null","","","","feedback","","<div class='trialDiv'><img src='trustrating_stim/white_mw048.bmp'><br><font class='baseline'><strong>Joseph</strong><p>Received: <strong>16</strong></font> &nbsp; &nbsp; &nbsp; &nbsp; &nbsp; &nbsp;<font class='posOutcome'>Shared back: <strong>8</strong></font></font><div class='respPicDiv'><img src='img/responseButtonOffersNo0_wht.png' class='respPic'></div></div>","null","2","Joseph","1","Shared","0.65,0.2","11","0.65","trustrating_stim/white_mw048.bmp","2","19","4"
"html-keyboard-response","149","377611","0.0-19.0-1.4","5f43ef4041bb5f11a27aa07e","bdp_trlrn","Sun Mar 12 2023 21:17:48 GMT-0500 (Central Daylight Time)","722537","Untrustworthy,Trustworthy","","2435","","","","decision","","<div class='trialDiv'><img src='trustrating_stim/white_00109_931230_fa_edt.bmp'><br><font class='baseline'><strong>Timothy</strong><p>Choose number of points to send.</font><div class='respPicDiv'><img src='img/responseButtonOffersNo0L.png' class='respPic'></div></div>","1","2","Timothy","8","Kept","0.2,0.65","8","0.2","trustrating_stim/white_00109_931230_fa_edt.bmp","7","24","5"
"html-keyboard-response","150","377871","0.0-19.0-2.4","5f43ef4041bb5f11a27aa07e","bdp_trlrn","Sun Mar 12 2023 21:17:48 GMT-0500 (Central Daylight Time)","722537","Untrustworthy,Trustworthy","","null","","","","decisionFB","","<div class='trialDiv'><img src='trustrating_stim/white_00109_931230_fa_edt.bmp'><br><font class='baseline'><strong>Timothy</strong><p>Choose number of points to send.</font><div class='respPicDiv'><img src='img/responseButtonOffersNo0L1.png' class='respPic'></div></div>","null","2","Timothy","8","Kept","0.2,0.65","8","0.2","trustrating_stim/white_00109_931230_fa_edt.bmp","7","23","5"
"html-keyboard-response","151","378880","0.0-19.0-3.4","5f43ef4041bb5f11a27aa07e","bdp_trlrn","Sun Mar 12 2023 21:17:48 GMT-0500 (Central Daylight Time)","722537","Untrustworthy,Trustworthy","","null","","","","feedback","","<div class='trialDiv'><img src='trustrating_stim/white_00109_931230_fa_edt.bmp'><br><font class='baseline'><strong>Timothy</strong><p>Received: <strong>4</strong></font> &nbsp; &nbsp; &nbsp; &nbsp; &nbsp; &nbsp;<font class='negOutcome'>Shared back: <strong>0</strong></font></font><div class='respPicDiv'><img src='img/responseButtonOffersNo0_wht.png' class='respPic'></div></div>","null","2","Timothy","8","Kept","0.2,0.65","8","0.2","trustrating_stim/white_00109_931230_fa_edt.bmp","7","23","5"
"html-keyboard-response","152","381280","0.0-19.0-1.5","5f43ef4041bb5f11a27aa07e","bdp_trlrn","Sun Mar 12 2023 21:17:48 GMT-0500 (Central Daylight Time)","722537","Untrustworthy,Trustworthy","","2396","","","","decision","","<div class='trialDiv'><img src='trustrating_stim/white_mw071.bmp'><br><font class='baseline'><strong>Ethan</strong><p>Choose number of points to send.</font><div class='respPicDiv'><img src='img/responseButtonOffersNo0L.png' class='respPic'></div></div>","1","2","Ethan","6","Shared","0.2,0.8","14","0.2","trustrating_stim/white_mw071.bmp","4","28","6"
"html-keyboard-response","153","381536","0.0-19.0-2.5","5f43ef4041bb5f11a27aa07e","bdp_trlrn","Sun Mar 12 2023 21:17:48 GMT-0500 (Central Daylight Time)","722537","Untrustworthy,Trustworthy","","null","","","","decisionFB","","<div class='trialDiv'><img src='trustrating_stim/white_mw071.bmp'><br><font class='baseline'><strong>Ethan</strong><p>Choose number of points to send.</font><div class='respPicDiv'><img src='img/responseButtonOffersNo0L1.png' class='respPic'></div></div>","null","2","Ethan","6","Shared","0.2,0.8","14","0.2","trustrating_stim/white_mw071.bmp","4","27","6"
"html-keyboard-response","154","382544","0.0-19.0-3.5","5f43ef4041bb5f11a27aa07e","bdp_trlrn","Sun Mar 12 2023 21:17:48 GMT-0500 (Central Daylight Time)","722537","Untrustworthy,Trustworthy","","null","","","","feedback","","<div class='trialDiv'><img src='trustrating_stim/white_mw071.bmp'><br><font class='baseline'><strong>Ethan</strong><p>Received: <strong>4</strong></font> &nbsp; &nbsp; &nbsp; &nbsp; &nbsp; &nbsp;<font class='posOutcome'>Shared back: <strong>2</strong></font></font><div class='respPicDiv'><img src='img/responseButtonOffersNo0_wht.png' class='respPic'></div></div>","null","2","Ethan","6","Shared","0.2,0.8","14","0.2","trustrating_stim/white_mw071.bmp","4","29","6"
"html-keyboard-response","155","384770","0.0-19.0-1.6","5f43ef4041bb5f11a27aa07e","bdp_trlrn","Sun Mar 12 2023 21:17:48 GMT-0500 (Central Daylight Time)","722537","Untrustworthy,Trustworthy","","2224","","","","decision","","<div class='trialDiv'><img src='trustrating_stim/white_mw048.bmp'><br><font class='baseline'><strong>Joseph</strong><p>Choose number of points to send.</font><div class='respPicDiv'><img src='img/responseButtonOffersNo0L.png' class='respPic'></div></div>","4","3","Joseph","1","Shared","0.65,0.2","11","0.65","trustrating_stim/white_mw048.bmp","2","34","7"
"html-keyboard-response","156","385030","0.0-19.0-2.6","5f43ef4041bb5f11a27aa07e","bdp_trlrn","Sun Mar 12 2023 21:17:48 GMT-0500 (Central Daylight Time)","722537","Untrustworthy,Trustworthy","","null","","","","decisionFB","","<div class='trialDiv'><img src='trustrating_stim/white_mw048.bmp'><br><font class='baseline'><strong>Joseph</strong><p>Choose number of points to send.</font><div class='respPicDiv'><img src='img/responseButtonOffersNo0L4.png' class='respPic'></div></div>","null","3","Joseph","1","Shared","0.65,0.2","11","0.65","trustrating_stim/white_mw048.bmp","2","30","7"
"html-keyboard-response","157","386038","0.0-19.0-3.6","5f43ef4041bb5f11a27aa07e","bdp_trlrn","Sun Mar 12 2023 21:17:48 GMT-0500 (Central Daylight Time)","722537","Untrustworthy,Trustworthy","","null","","","","feedback","","<div class='trialDiv'><img src='trustrating_stim/white_mw048.bmp'><br><font class='baseline'><strong>Joseph</strong><p>Received: <strong>16</strong></font> &nbsp; &nbsp; &nbsp; &nbsp; &nbsp; &nbsp;<font class='posOutcome'>Shared back: <strong>8</strong></font></font><div class='respPicDiv'><img src='img/responseButtonOffersNo0_wht.png' class='respPic'></div></div>","null","3","Joseph","1","Shared","0.65,0.2","11","0.65","trustrating_stim/white_mw048.bmp","2","38","7"
"html-keyboard-response","158","387669","0.0-19.0-1.7","5f43ef4041bb5f11a27aa07e","bdp_trlrn","Sun Mar 12 2023 21:17:48 GMT-0500 (Central Daylight Time)","722537","Untrustworthy,Trustworthy","","1629","","","","decision","","<div class='trialDiv'><img src='trustrating_stim/white_mw071.bmp'><br><font class='baseline'><strong>Ethan</strong><p>Choose number of points to send.</font><div class='respPicDiv'><img src='img/responseButtonOffersNo0L.png' class='respPic'></div></div>","2","3","Ethan","6","Kept","0.2,0.8","14","0.2","trustrating_stim/white_mw071.bmp","4","43","8"
"html-keyboard-response","159","387926","0.0-19.0-2.7","5f43ef4041bb5f11a27aa07e","bdp_trlrn","Sun Mar 12 2023 21:17:48 GMT-0500 (Central Daylight Time)","722537","Untrustworthy,Trustworthy","","null","","","","decisionFB","","<div class='trialDiv'><img src='trustrating_stim/white_mw071.bmp'><br><font class='baseline'><strong>Ethan</strong><p>Choose number of points to send.</font><div class='respPicDiv'><img src='img/responseButtonOffersNo0L2.png' class='respPic'></div></div>","null","3","Ethan","6","Kept","0.2,0.8","14","0.2","trustrating_stim/white_mw071.bmp","4","41","8"
"html-keyboard-response","160","388934","0.0-19.0-3.7","5f43ef4041bb5f11a27aa07e","bdp_trlrn","Sun Mar 12 2023 21:17:48 GMT-0500 (Central Daylight Time)","722537","Untrustworthy,Trustworthy","","null","","","","feedback","","<div class='trialDiv'><img src='trustrating_stim/white_mw071.bmp'><br><font class='baseline'><strong>Ethan</strong><p>Received: <strong>8</strong></font> &nbsp; &nbsp; &nbsp; &nbsp; &nbsp; &nbsp;<font class='negOutcome'>Shared back: <strong>0</strong></font></font><div class='respPicDiv'><img src='img/responseButtonOffersNo0_wht.png' class='respPic'></div></div>","null","3","Ethan","6","Kept","0.2,0.8","14","0.2","trustrating_stim/white_mw071.bmp","4","41","8"
"html-keyboard-response","161","390395","0.0-19.0-1.8","5f43ef4041bb5f11a27aa07e","bdp_trlrn","Sun Mar 12 2023 21:17:48 GMT-0500 (Central Daylight Time)","722537","Untrustworthy,Trustworthy","","1458","","","","decision","","<div class='trialDiv'><img src='trustrating_stim/white_00109_931230_fa_edt.bmp'><br><font class='baseline'><strong>Timothy</strong><p>Choose number of points to send.</font><div class='respPicDiv'><img src='img/responseButtonOffersNo0L.png' class='respPic'></div></div>","1","3","Timothy","8","Kept","0.2,0.65","8","0.2","trustrating_stim/white_00109_931230_fa_edt.bmp","7","46","9"
"html-keyboard-response","162","390656","0.0-19.0-2.8","5f43ef4041bb5f11a27aa07e","bdp_trlrn","Sun Mar 12 2023 21:17:48 GMT-0500 (Central Daylight Time)","722537","Untrustworthy,Trustworthy","","null","","","","decisionFB","","<div class='trialDiv'><img src='trustrating_stim/white_00109_931230_fa_edt.bmp'><br><font class='baseline'><strong>Timothy</strong><p>Choose number of points to send.</font><div class='respPicDiv'><img src='img/responseButtonOffersNo0L1.png' class='respPic'></div></div>","null","3","Timothy","8","Kept","0.2,0.65","8","0.2","trustrating_stim/white_00109_931230_fa_edt.bmp","7","45","9"
"html-keyboard-response","163","391664","0.0-19.0-3.8","5f43ef4041bb5f11a27aa07e","bdp_trlrn","Sun Mar 12 2023 21:17:48 GMT-0500 (Central Daylight Time)","722537","Untrustworthy,Trustworthy","","null","","","","feedback","","<div class='trialDiv'><img src='trustrating_stim/white_00109_931230_fa_edt.bmp'><br><font class='baseline'><strong>Timothy</strong><p>Received: <strong>4</strong></font> &nbsp; &nbsp; &nbsp; &nbsp; &nbsp; &nbsp;<font class='negOutcome'>Shared back: <strong>0</strong></font></font><div class='respPicDiv'><img src='img/responseButtonOffersNo0_wht.png' class='respPic'></div></div>","null","3","Timothy","8","Kept","0.2,0.65","8","0.2","trustrating_stim/white_00109_931230_fa_edt.bmp","7","45","9"
"html-keyboard-response","164","393968","0.0-19.0-1.9","5f43ef4041bb5f11a27aa07e","bdp_trlrn","Sun Mar 12 2023 21:17:48 GMT-0500 (Central Daylight Time)","722537","Untrustworthy,Trustworthy","","2300","","","","decision","","<div class='trialDiv'><img src='trustrating_stim/white_mw048.bmp'><br><font class='baseline'><strong>Joseph</strong><p>Choose number of points to send.</font><div class='respPicDiv'><img src='img/responseButtonOffersNo0L.png' class='respPic'></div></div>","5","4","Joseph","1","Shared","0.65,0.2","11","0.65","trustrating_stim/white_mw048.bmp","2","50","10"
"html-keyboard-response","165","394224","0.0-19.0-2.9","5f43ef4041bb5f11a27aa07e","bdp_trlrn","Sun Mar 12 2023 21:17:48 GMT-0500 (Central Daylight Time)","722537","Untrustworthy,Trustworthy","","null","","","","decisionFB","","<div class='trialDiv'><img src='trustrating_stim/white_mw048.bmp'><br><font class='baseline'><strong>Joseph</strong><p>Choose number of points to send.</font><div class='respPicDiv'><img src='img/responseButtonOffersNo0L5.png' class='respPic'></div></div>","null","4","Joseph","1","Shared","0.65,0.2","11","0.65","trustrating_stim/white_mw048.bmp","2","45","10"
"html-keyboard-response","166","395232","0.0-19.0-3.9","5f43ef4041bb5f11a27aa07e","bdp_trlrn","Sun Mar 12 2023 21:17:48 GMT-0500 (Central Daylight Time)","722537","Untrustworthy,Trustworthy","","null","","","","feedback","","<div class='trialDiv'><img src='trustrating_stim/white_mw048.bmp'><br><font class='baseline'><strong>Joseph</strong><p>Received: <strong>20</strong></font> &nbsp; &nbsp; &nbsp; &nbsp; &nbsp; &nbsp;<font class='posOutcome'>Shared back: <strong>10</strong></font></font><div class='respPicDiv'><img src='img/responseButtonOffersNo0_wht.png' class='respPic'></div></div>","null","4","Joseph","1","Shared","0.65,0.2","11","0.65","trustrating_stim/white_mw048.bmp","2","55","10"
"html-keyboard-response","167","397906","0.0-19.0-1.10","5f43ef4041bb5f11a27aa07e","bdp_trlrn","Sun Mar 12 2023 21:17:48 GMT-0500 (Central Daylight Time)","722537","Untrustworthy,Trustworthy","","2670","","","","decision","","<div class='trialDiv'><img src='trustrating_stim/white_00109_931230_fa_edt.bmp'><br><font class='baseline'><strong>Timothy</strong><p>Choose number of points to send.</font><div class='respPicDiv'><img src='img/responseButtonOffersNo0L.png' class='respPic'></div></div>","1","4","Timothy","8","Kept","0.2,0.65","8","0.2","trustrating_stim/white_00109_931230_fa_edt.bmp","7","60","11"
"html-keyboard-response","168","398166","0.0-19.0-2.10","5f43ef4041bb5f11a27aa07e","bdp_trlrn","Sun Mar 12 2023 21:17:48 GMT-0500 (Central Daylight Time)","722537","Untrustworthy,Trustworthy","","null","","","","decisionFB","","<div class='trialDiv'><img src='trustrating_stim/white_00109_931230_fa_edt.bmp'><br><font class='baseline'><strong>Timothy</strong><p>Choose number of points to send.</font><div class='respPicDiv'><img src='img/responseButtonOffersNo0L1.png' class='respPic'></div></div>","null","4","Timothy","8","Kept","0.2,0.65","8","0.2","trustrating_stim/white_00109_931230_fa_edt.bmp","7","59","11"
"html-keyboard-response","169","399174","0.0-19.0-3.10","5f43ef4041bb5f11a27aa07e","bdp_trlrn","Sun Mar 12 2023 21:17:48 GMT-0500 (Central Daylight Time)","722537","Untrustworthy,Trustworthy","","null","","","","feedback","","<div class='trialDiv'><img src='trustrating_stim/white_00109_931230_fa_edt.bmp'><br><font class='baseline'><strong>Timothy</strong><p>Received: <strong>4</strong></font> &nbsp; &nbsp; &nbsp; &nbsp; &nbsp; &nbsp;<font class='negOutcome'>Shared back: <strong>0</strong></font></font><div class='respPicDiv'><img src='img/responseButtonOffersNo0_wht.png' class='respPic'></div></div>","null","4","Timothy","8","Kept","0.2,0.65","8","0.2","trustrating_stim/white_00109_931230_fa_edt.bmp","7","59","11"
"html-keyboard-response","170","399954","0.0-19.0-1.11","5f43ef4041bb5f11a27aa07e","bdp_trlrn","Sun Mar 12 2023 21:17:48 GMT-0500 (Central Daylight Time)","722537","Untrustworthy,Trustworthy","","777","","","","decision","","<div class='trialDiv'><img src='trustrating_stim/white_mw071.bmp'><br><font class='baseline'><strong>Ethan</strong><p>Choose number of points to send.</font><div class='respPicDiv'><img src='img/responseButtonOffersNo0L.png' class='respPic'></div></div>","3","4","Ethan","6","Kept","0.2,0.8","14","0.2","trustrating_stim/white_mw071.bmp","4","64","12"
"html-keyboard-response","171","400214","0.0-19.0-2.11","5f43ef4041bb5f11a27aa07e","bdp_trlrn","Sun Mar 12 2023 21:17:48 GMT-0500 (Central Daylight Time)","722537","Untrustworthy,Trustworthy","","null","","","","decisionFB","","<div class='trialDiv'><img src='trustrating_stim/white_mw071.bmp'><br><font class='baseline'><strong>Ethan</strong><p>Choose number of points to send.</font><div class='respPicDiv'><img src='img/responseButtonOffersNo0L3.png' class='respPic'></div></div>","null","4","Ethan","6","Kept","0.2,0.8","14","0.2","trustrating_stim/white_mw071.bmp","4","61","12"
"html-keyboard-response","172","401222","0.0-19.0-3.11","5f43ef4041bb5f11a27aa07e","bdp_trlrn","Sun Mar 12 2023 21:17:48 GMT-0500 (Central Daylight Time)","722537","Untrustworthy,Trustworthy","","null","","","","feedback","","<div class='trialDiv'><img src='trustrating_stim/white_mw071.bmp'><br><font class='baseline'><strong>Ethan</strong><p>Received: <strong>12</strong></font> &nbsp; &nbsp; &nbsp; &nbsp; &nbsp; &nbsp;<font class='negOutcome'>Shared back: <strong>0</strong></font></font><div class='respPicDiv'><img src='img/responseButtonOffersNo0_wht.png' class='respPic'></div></div>","null","4","Ethan","6","Kept","0.2,0.8","14","0.2","trustrating_stim/white_mw071.bmp","4","61","12"
"html-keyboard-response","173","403337","0.0-19.0-1.12","5f43ef4041bb5f11a27aa07e","bdp_trlrn","Sun Mar 12 2023 21:17:48 GMT-0500 (Central Daylight Time)","722537","Untrustworthy,Trustworthy","","2112","","","","decision","","<div class='trialDiv'><img src='trustrating_stim/white_mw048.bmp'><br><font class='baseline'><strong>Joseph</strong><p>Choose number of points to send.</font><div class='respPicDiv'><img src='img/responseButtonOffersNo0L.png' class='respPic'></div></div>","5","5","Joseph","1","Kept","0.65,0.2","11","0.65","trustrating_stim/white_mw048.bmp","2","66","13"
"html-keyboard-response","174","403600","0.0-19.0-2.12","5f43ef4041bb5f11a27aa07e","bdp_trlrn","Sun Mar 12 2023 21:17:48 GMT-0500 (Central Daylight Time)","722537","Untrustworthy,Trustworthy","","null","","","","decisionFB","","<div class='trialDiv'><img src='trustrating_stim/white_mw048.bmp'><br><font class='baseline'><strong>Joseph</strong><p>Choose number of points to send.</font><div class='respPicDiv'><img src='img/responseButtonOffersNo0L5.png' class='respPic'></div></div>","null","5","Joseph","1","Kept","0.65,0.2","11","0.65","trustrating_stim/white_mw048.bmp","2","61","13"
"html-keyboard-response","175","404608","0.0-19.0-3.12","5f43ef4041bb5f11a27aa07e","bdp_trlrn","Sun Mar 12 2023 21:17:48 GMT-0500 (Central Daylight Time)","722537","Untrustworthy,Trustworthy","","null","","","","feedback","","<div class='trialDiv'><img src='trustrating_stim/white_mw048.bmp'><br><font class='baseline'><strong>Joseph</strong><p>Received: <strong>20</strong></font> &nbsp; &nbsp; &nbsp; &nbsp; &nbsp; &nbsp;<font class='negOutcome'>Shared back: <strong>0</strong></font></font><div class='respPicDiv'><img src='img/responseButtonOffersNo0_wht.png' class='respPic'></div></div>","null","5","Joseph","1","Kept","0.65,0.2","11","0.65","trustrating_stim/white_mw048.bmp","2","61","13"
"html-keyboard-response","176","405918","0.0-19.0-1.13","5f43ef4041bb5f11a27aa07e","bdp_trlrn","Sun Mar 12 2023 21:17:48 GMT-0500 (Central Daylight Time)","722537","Untrustworthy,Trustworthy","","1308","","","","decision","","<div class='trialDiv'><img src='trustrating_stim/white_00109_931230_fa_edt.bmp'><br><font class='baseline'><strong>Timothy</strong><p>Choose number of points to send.</font><div class='respPicDiv'><img src='img/responseButtonOffersNo0L.png' class='respPic'></div></div>","1","5","Timothy","8","Kept","0.2,0.65","8","0.2","trustrating_stim/white_00109_931230_fa_edt.bmp","7","66","14"
"html-keyboard-response","177","406175","0.0-19.0-2.13","5f43ef4041bb5f11a27aa07e","bdp_trlrn","Sun Mar 12 2023 21:17:48 GMT-0500 (Central Daylight Time)","722537","Untrustworthy,Trustworthy","","null","","","","decisionFB","","<div class='trialDiv'><img src='trustrating_stim/white_00109_931230_fa_edt.bmp'><br><font class='baseline'><strong>Timothy</strong><p>Choose number of points to send.</font><div class='respPicDiv'><img src='img/responseButtonOffersNo0L1.png' class='respPic'></div></div>","null","5","Timothy","8","Kept","0.2,0.65","8","0.2","trustrating_stim/white_00109_931230_fa_edt.bmp","7","65","14"
"html-keyboard-response","178","407184","0.0-19.0-3.13","5f43ef4041bb5f11a27aa07e","bdp_trlrn","Sun Mar 12 2023 21:17:48 GMT-0500 (Central Daylight Time)","722537","Untrustworthy,Trustworthy","","null","","","","feedback","","<div class='trialDiv'><img src='trustrating_stim/white_00109_931230_fa_edt.bmp'><br><font class='baseline'><strong>Timothy</strong><p>Received: <strong>4</strong></font> &nbsp; &nbsp; &nbsp; &nbsp; &nbsp; &nbsp;<font class='negOutcome'>Shared back: <strong>0</strong></font></font><div class='respPicDiv'><img src='img/responseButtonOffersNo0_wht.png' class='respPic'></div></div>","null","5","Timothy","8","Kept","0.2,0.65","8","0.2","trustrating_stim/white_00109_931230_fa_edt.bmp","7","65","14"
"html-keyboard-response","179","408563","0.0-19.0-1.14","5f43ef4041bb5f11a27aa07e","bdp_trlrn","Sun Mar 12 2023 21:17:48 GMT-0500 (Central Daylight Time)","722537","Untrustworthy,Trustworthy","","1376","","","","decision","","<div class='trialDiv'><img src='trustrating_stim/white_mw071.bmp'><br><font class='baseline'><strong>Ethan</strong><p>Choose number of points to send.</font><div class='respPicDiv'><img src='img/responseButtonOffersNo0L.png' class='respPic'></div></div>","2","5","Ethan","6","Kept","0.2,0.8","14","0.2","trustrating_stim/white_mw071.bmp","4","70","15"
"html-keyboard-response","180","408821","0.0-19.0-2.14","5f43ef4041bb5f11a27aa07e","bdp_trlrn","Sun Mar 12 2023 21:17:48 GMT-0500 (Central Daylight Time)","722537","Untrustworthy,Trustworthy","","null","","","","decisionFB","","<div class='trialDiv'><img src='trustrating_stim/white_mw071.bmp'><br><font class='baseline'><strong>Ethan</strong><p>Choose number of points to send.</font><div class='respPicDiv'><img src='img/responseButtonOffersNo0L2.png' class='respPic'></div></div>","null","5","Ethan","6","Kept","0.2,0.8","14","0.2","trustrating_stim/white_mw071.bmp","4","68","15"
"html-keyboard-response","181","409830","0.0-19.0-3.14","5f43ef4041bb5f11a27aa07e","bdp_trlrn","Sun Mar 12 2023 21:17:48 GMT-0500 (Central Daylight Time)","722537","Untrustworthy,Trustworthy","","null","","","","feedback","","<div class='trialDiv'><img src='trustrating_stim/white_mw071.bmp'><br><font class='baseline'><strong>Ethan</strong><p>Received: <strong>8</strong></font> &nbsp; &nbsp; &nbsp; &nbsp; &nbsp; &nbsp;<font class='negOutcome'>Shared back: <strong>0</strong></font></font><div class='respPicDiv'><img src='img/responseButtonOffersNo0_wht.png' class='respPic'></div></div>","null","5","Ethan","6","Kept","0.2,0.8","14","0.2","trustrating_stim/white_mw071.bmp","4","68","15"
"html-keyboard-response","182","412049","0.0-19.0-1.15","5f43ef4041bb5f11a27aa07e","bdp_trlrn","Sun Mar 12 2023 21:17:48 GMT-0500 (Central Daylight Time)","722537","Untrustworthy,Trustworthy","","2216","","","","decision","","<div class='trialDiv'><img src='trustrating_stim/white_mw048.bmp'><br><font class='baseline'><strong>Joseph</strong><p>Choose number of points to send.</font><div class='respPicDiv'><img src='img/responseButtonOffersNo0L.png' class='respPic'></div></div>","3","6","Joseph","1","Kept","0.65,0.2","11","0.65","trustrating_stim/white_mw048.bmp","2","73","16"
"html-keyboard-response","183","412310","0.0-19.0-2.15","5f43ef4041bb5f11a27aa07e","bdp_trlrn","Sun Mar 12 2023 21:17:48 GMT-0500 (Central Daylight Time)","722537","Untrustworthy,Trustworthy","","null","","","","decisionFB","","<div class='trialDiv'><img src='trustrating_stim/white_mw048.bmp'><br><font class='baseline'><strong>Joseph</strong><p>Choose number of points to send.</font><div class='respPicDiv'><img src='img/responseButtonOffersNo0L3.png' class='respPic'></div></div>","null","6","Joseph","1","Kept","0.65,0.2","11","0.65","trustrating_stim/white_mw048.bmp","2","70","16"
"html-keyboard-response","184","413317","0.0-19.0-3.15","5f43ef4041bb5f11a27aa07e","bdp_trlrn","Sun Mar 12 2023 21:17:48 GMT-0500 (Central Daylight Time)","722537","Untrustworthy,Trustworthy","","null","","","","feedback","","<div class='trialDiv'><img src='trustrating_stim/white_mw048.bmp'><br><font class='baseline'><strong>Joseph</strong><p>Received: <strong>12</strong></font> &nbsp; &nbsp; &nbsp; &nbsp; &nbsp; &nbsp;<font class='negOutcome'>Shared back: <strong>0</strong></font></font><div class='respPicDiv'><img src='img/responseButtonOffersNo0_wht.png' class='respPic'></div></div>","null","6","Joseph","1","Kept","0.65,0.2","11","0.65","trustrating_stim/white_mw048.bmp","2","70","16"
"html-keyboard-response","185","414593","0.0-19.0-1.16","5f43ef4041bb5f11a27aa07e","bdp_trlrn","Sun Mar 12 2023 21:17:48 GMT-0500 (Central Daylight Time)","722537","Untrustworthy,Trustworthy","","1273","","","","decision","","<div class='trialDiv'><img src='trustrating_stim/white_00109_931230_fa_edt.bmp'><br><font class='baseline'><strong>Timothy</strong><p>Choose number of points to send.</font><div class='respPicDiv'><img src='img/responseButtonOffersNo0L.png' class='respPic'></div></div>","1","6","Timothy","8","Kept","0.2,0.65","8","0.2","trustrating_stim/white_00109_931230_fa_edt.bmp","7","75","17"
"html-keyboard-response","186","414853","0.0-19.0-2.16","5f43ef4041bb5f11a27aa07e","bdp_trlrn","Sun Mar 12 2023 21:17:48 GMT-0500 (Central Daylight Time)","722537","Untrustworthy,Trustworthy","","null","","","","decisionFB","","<div class='trialDiv'><img src='trustrating_stim/white_00109_931230_fa_edt.bmp'><br><font class='baseline'><strong>Timothy</strong><p>Choose number of points to send.</font><div class='respPicDiv'><img src='img/responseButtonOffersNo0L1.png' class='respPic'></div></div>","null","6","Timothy","8","Kept","0.2,0.65","8","0.2","trustrating_stim/white_00109_931230_fa_edt.bmp","7","74","17"
"html-keyboard-response","187","415862","0.0-19.0-3.16","5f43ef4041bb5f11a27aa07e","bdp_trlrn","Sun Mar 12 2023 21:17:48 GMT-0500 (Central Daylight Time)","722537","Untrustworthy,Trustworthy","","null","","","","feedback","","<div class='trialDiv'><img src='trustrating_stim/white_00109_931230_fa_edt.bmp'><br><font class='baseline'><strong>Timothy</strong><p>Received: <strong>4</strong></font> &nbsp; &nbsp; &nbsp; &nbsp; &nbsp; &nbsp;<font class='negOutcome'>Shared back: <strong>0</strong></font></font><div class='respPicDiv'><img src='img/responseButtonOffersNo0_wht.png' class='respPic'></div></div>","null","6","Timothy","8","Kept","0.2,0.65","8","0.2","trustrating_stim/white_00109_931230_fa_edt.bmp","7","74","17"
"html-keyboard-response","188","418641","0.0-19.0-1.17","5f43ef4041bb5f11a27aa07e","bdp_trlrn","Sun Mar 12 2023 21:17:48 GMT-0500 (Central Daylight Time)","722537","Untrustworthy,Trustworthy","","2776","","","","decision","","<div class='trialDiv'><img src='trustrating_stim/white_mw071.bmp'><br><font class='baseline'><strong>Ethan</strong><p>Choose number of points to send.</font><div class='respPicDiv'><img src='img/responseButtonOffersNo0L.png' class='respPic'></div></div>","2","6","Ethan","6","Shared","0.2,0.8","14","0.2","trustrating_stim/white_mw071.bmp","4","79","18"
"html-keyboard-response","189","418901","0.0-19.0-2.17","5f43ef4041bb5f11a27aa07e","bdp_trlrn","Sun Mar 12 2023 21:17:48 GMT-0500 (Central Daylight Time)","722537","Untrustworthy,Trustworthy","","null","","","","decisionFB","","<div class='trialDiv'><img src='trustrating_stim/white_mw071.bmp'><br><font class='baseline'><strong>Ethan</strong><p>Choose number of points to send.</font><div class='respPicDiv'><img src='img/responseButtonOffersNo0L2.png' class='respPic'></div></div>","null","6","Ethan","6","Shared","0.2,0.8","14","0.2","trustrating_stim/white_mw071.bmp","4","77","18"
"html-keyboard-response","190","419910","0.0-19.0-3.17","5f43ef4041bb5f11a27aa07e","bdp_trlrn","Sun Mar 12 2023 21:17:48 GMT-0500 (Central Daylight Time)","722537","Untrustworthy,Trustworthy","","null","","","","feedback","","<div class='trialDiv'><img src='trustrating_stim/white_mw071.bmp'><br><font class='baseline'><strong>Ethan</strong><p>Received: <strong>8</strong></font> &nbsp; &nbsp; &nbsp; &nbsp; &nbsp; &nbsp;<font class='posOutcome'>Shared back: <strong>4</strong></font></font><div class='respPicDiv'><img src='img/responseButtonOffersNo0_wht.png' class='respPic'></div></div>","null","6","Ethan","6","Shared","0.2,0.8","14","0.2","trustrating_stim/white_mw071.bmp","4","81","18"
"html-keyboard-response","191","420761","0.0-19.0-1.18","5f43ef4041bb5f11a27aa07e","bdp_trlrn","Sun Mar 12 2023 21:17:48 GMT-0500 (Central Daylight Time)","722537","Untrustworthy,Trustworthy","","848","","","","decision","","<div class='trialDiv'><img src='trustrating_stim/white_00109_931230_fa_edt.bmp'><br><font class='baseline'><strong>Timothy</strong><p>Choose number of points to send.</font><div class='respPicDiv'><img src='img/responseButtonOffersNo0L.png' class='respPic'></div></div>","1","7","Timothy","8","Shared","0.2,0.65","8","0.2","trustrating_stim/white_00109_931230_fa_edt.bmp","7","86","19"
"html-keyboard-response","192","421024","0.0-19.0-2.18","5f43ef4041bb5f11a27aa07e","bdp_trlrn","Sun Mar 12 2023 21:17:48 GMT-0500 (Central Daylight Time)","722537","Untrustworthy,Trustworthy","","null","","","","decisionFB","","<div class='trialDiv'><img src='trustrating_stim/white_00109_931230_fa_edt.bmp'><br><font class='baseline'><strong>Timothy</strong><p>Choose number of points to send.</font><div class='respPicDiv'><img src='img/responseButtonOffersNo0L1.png' class='respPic'></div></div>","null","7","Timothy","8","Shared","0.2,0.65","8","0.2","trustrating_stim/white_00109_931230_fa_edt.bmp","7","85","19"
"html-keyboard-response","193","422032","0.0-19.0-3.18","5f43ef4041bb5f11a27aa07e","bdp_trlrn","Sun Mar 12 2023 21:17:48 GMT-0500 (Central Daylight Time)","722537","Untrustworthy,Trustworthy","","null","","","","feedback","","<div class='trialDiv'><img src='trustrating_stim/white_00109_931230_fa_edt.bmp'><br><font class='baseline'><strong>Timothy</strong><p>Received: <strong>4</strong></font> &nbsp; &nbsp; &nbsp; &nbsp; &nbsp; &nbsp;<font class='posOutcome'>Shared back: <strong>2</strong></font></font><div class='respPicDiv'><img src='img/responseButtonOffersNo0_wht.png' class='respPic'></div></div>","null","7","Timothy","8","Shared","0.2,0.65","8","0.2","trustrating_stim/white_00109_931230_fa_edt.bmp","7","87","19"
"html-keyboard-response","194","422969","0.0-19.0-1.19","5f43ef4041bb5f11a27aa07e","bdp_trlrn","Sun Mar 12 2023 21:17:48 GMT-0500 (Central Daylight Time)","722537","Untrustworthy,Trustworthy","","933","","","","decision","","<div class='trialDiv'><img src='trustrating_stim/white_mw048.bmp'><br><font class='baseline'><strong>Joseph</strong><p>Choose number of points to send.</font><div class='respPicDiv'><img src='img/responseButtonOffersNo0L.png' class='respPic'></div></div>","2","7","Joseph","1","Shared","0.65,0.2","11","0.65","trustrating_stim/white_mw048.bmp","2","92","20"
"html-keyboard-response","195","423232","0.0-19.0-2.19","5f43ef4041bb5f11a27aa07e","bdp_trlrn","Sun Mar 12 2023 21:17:48 GMT-0500 (Central Daylight Time)","722537","Untrustworthy,Trustworthy","","null","","","","decisionFB","","<div class='trialDiv'><img src='trustrating_stim/white_mw048.bmp'><br><font class='baseline'><strong>Joseph</strong><p>Choose number of points to send.</font><div class='respPicDiv'><img src='img/responseButtonOffersNo0L2.png' class='respPic'></div></div>","null","7","Joseph","1","Shared","0.65,0.2","11","0.65","trustrating_stim/white_mw048.bmp","2","90","20"
"html-keyboard-response","196","424240","0.0-19.0-3.19","5f43ef4041bb5f11a27aa07e","bdp_trlrn","Sun Mar 12 2023 21:17:48 GMT-0500 (Central Daylight Time)","722537","Untrustworthy,Trustworthy","","null","","","","feedback","","<div class='trialDiv'><img src='trustrating_stim/white_mw048.bmp'><br><font class='baseline'><strong>Joseph</strong><p>Received: <strong>8</strong></font> &nbsp; &nbsp; &nbsp; &nbsp; &nbsp; &nbsp;<font class='posOutcome'>Shared back: <strong>4</strong></font></font><div class='respPicDiv'><img src='img/responseButtonOffersNo0_wht.png' class='respPic'></div></div>","null","7","Joseph","1","Shared","0.65,0.2","11","0.65","trustrating_stim/white_mw048.bmp","2","94","20"
"html-keyboard-response","197","425727","0.0-19.0-1.20","5f43ef4041bb5f11a27aa07e","bdp_trlrn","Sun Mar 12 2023 21:17:48 GMT-0500 (Central Daylight Time)","722537","Untrustworthy,Trustworthy","","1484","","","","decision","","<div class='trialDiv'><img src='trustrating_stim/white_mw071.bmp'><br><font class='baseline'><strong>Ethan</strong><p>Choose number of points to send.</font><div class='respPicDiv'><img src='img/responseButtonOffersNo0L.png' class='respPic'></div></div>","2","7","Ethan","6","Kept","0.2,0.8","14","0.2","trustrating_stim/white_mw071.bmp","4","99","21"
"html-keyboard-response","198","425984","0.0-19.0-2.20","5f43ef4041bb5f11a27aa07e","bdp_trlrn","Sun Mar 12 2023 21:17:48 GMT-0500 (Central Daylight Time)","722537","Untrustworthy,Trustworthy","","null","","","","decisionFB","","<div class='trialDiv'><img src='trustrating_stim/white_mw071.bmp'><br><font class='baseline'><strong>Ethan</strong><p>Choose number of points to send.</font><div class='respPicDiv'><img src='img/responseButtonOffersNo0L2.png' class='respPic'></div></div>","null","7","Ethan","6","Kept","0.2,0.8","14","0.2","trustrating_stim/white_mw071.bmp","4","97","21"
"html-keyboard-response","199","426992","0.0-19.0-3.20","5f43ef4041bb5f11a27aa07e","bdp_trlrn","Sun Mar 12 2023 21:17:48 GMT-0500 (Central Daylight Time)","722537","Untrustworthy,Trustworthy","","null","","","","feedback","","<div class='trialDiv'><img src='trustrating_stim/white_mw071.bmp'><br><font class='baseline'><strong>Ethan</strong><p>Received: <strong>8</strong></font> &nbsp; &nbsp; &nbsp; &nbsp; &nbsp; &nbsp;<font class='negOutcome'>Shared back: <strong>0</strong></font></font><div class='respPicDiv'><img src='img/responseButtonOffersNo0_wht.png' class='respPic'></div></div>","null","7","Ethan","6","Kept","0.2,0.8","14","0.2","trustrating_stim/white_mw071.bmp","4","97","21"
"html-keyboard-response","200","427897","0.0-19.0-1.21","5f43ef4041bb5f11a27aa07e","bdp_trlrn","Sun Mar 12 2023 21:17:48 GMT-0500 (Central Daylight Time)","722537","Untrustworthy,Trustworthy","","903","","","","decision","","<div class='trialDiv'><img src='trustrating_stim/white_00109_931230_fa_edt.bmp'><br><font class='baseline'><strong>Timothy</strong><p>Choose number of points to send.</font><div class='respPicDiv'><img src='img/responseButtonOffersNo0L.png' class='respPic'></div></div>","1","8","Timothy","8","Shared","0.2,0.65","8","0.2","trustrating_stim/white_00109_931230_fa_edt.bmp","7","102","22"
"html-keyboard-response","201","428160","0.0-19.0-2.21","5f43ef4041bb5f11a27aa07e","bdp_trlrn","Sun Mar 12 2023 21:17:48 GMT-0500 (Central Daylight Time)","722537","Untrustworthy,Trustworthy","","null","","","","decisionFB","","<div class='trialDiv'><img src='trustrating_stim/white_00109_931230_fa_edt.bmp'><br><font class='baseline'><strong>Timothy</strong><p>Choose number of points to send.</font><div class='respPicDiv'><img src='img/responseButtonOffersNo0L1.png' class='respPic'></div></div>","null","8","Timothy","8","Shared","0.2,0.65","8","0.2","trustrating_stim/white_00109_931230_fa_edt.bmp","7","101","22"
"html-keyboard-response","202","429168","0.0-19.0-3.21","5f43ef4041bb5f11a27aa07e","bdp_trlrn","Sun Mar 12 2023 21:17:48 GMT-0500 (Central Daylight Time)","722537","Untrustworthy,Trustworthy","","null","","","","feedback","","<div class='trialDiv'><img src='trustrating_stim/white_00109_931230_fa_edt.bmp'><br><font class='baseline'><strong>Timothy</strong><p>Received: <strong>4</strong></font> &nbsp; &nbsp; &nbsp; &nbsp; &nbsp; &nbsp;<font class='posOutcome'>Shared back: <strong>2</strong></font></font><div class='respPicDiv'><img src='img/responseButtonOffersNo0_wht.png' class='respPic'></div></div>","null","8","Timothy","8","Shared","0.2,0.65","8","0.2","trustrating_stim/white_00109_931230_fa_edt.bmp","7","103","22"
"html-keyboard-response","203","430843","0.0-19.0-1.22","5f43ef4041bb5f11a27aa07e","bdp_trlrn","Sun Mar 12 2023 21:17:48 GMT-0500 (Central Daylight Time)","722537","Untrustworthy,Trustworthy","","1672","","","","decision","","<div class='trialDiv'><img src='trustrating_stim/white_mw048.bmp'><br><font class='baseline'><strong>Joseph</strong><p>Choose number of points to send.</font><div class='respPicDiv'><img src='img/responseButtonOffersNo0L.png' class='respPic'></div></div>","3","8","Joseph","1","Shared","0.65,0.2","11","0.65","trustrating_stim/white_mw048.bmp","2","108","23"
"html-keyboard-response","204","431105","0.0-19.0-2.22","5f43ef4041bb5f11a27aa07e","bdp_trlrn","Sun Mar 12 2023 21:17:48 GMT-0500 (Central Daylight Time)","722537","Untrustworthy,Trustworthy","","null","","","","decisionFB","","<div class='trialDiv'><img src='trustrating_stim/white_mw048.bmp'><br><font class='baseline'><strong>Joseph</strong><p>Choose number of points to send.</font><div class='respPicDiv'><img src='img/responseButtonOffersNo0L3.png' class='respPic'></div></div>","null","8","Joseph","1","Shared","0.65,0.2","11","0.65","trustrating_stim/white_mw048.bmp","2","105","23"
"html-keyboard-response","205","432112","0.0-19.0-3.22","5f43ef4041bb5f11a27aa07e","bdp_trlrn","Sun Mar 12 2023 21:17:48 GMT-0500 (Central Daylight Time)","722537","Untrustworthy,Trustworthy","","null","","","","feedback","","<div class='trialDiv'><img src='trustrating_stim/white_mw048.bmp'><br><font class='baseline'><strong>Joseph</strong><p>Received: <strong>12</strong></font> &nbsp; &nbsp; &nbsp; &nbsp; &nbsp; &nbsp;<font class='posOutcome'>Shared back: <strong>6</strong></font></font><div class='respPicDiv'><img src='img/responseButtonOffersNo0_wht.png' class='respPic'></div></div>","null","8","Joseph","1","Shared","0.65,0.2","11","0.65","trustrating_stim/white_mw048.bmp","2","111","23"
"html-keyboard-response","206","433061","0.0-19.0-1.23","5f43ef4041bb5f11a27aa07e","bdp_trlrn","Sun Mar 12 2023 21:17:48 GMT-0500 (Central Daylight Time)","722537","Untrustworthy,Trustworthy","","946","","","","decision","","<div class='trialDiv'><img src='trustrating_stim/white_mw071.bmp'><br><font class='baseline'><strong>Ethan</strong><p>Choose number of points to send.</font><div class='respPicDiv'><img src='img/responseButtonOffersNo0L.png' class='respPic'></div></div>","2","8","Ethan","6","Kept","0.2,0.8","14","0.2","trustrating_stim/white_mw071.bmp","4","116","24"
"html-keyboard-response","207","433318","0.0-19.0-2.23","5f43ef4041bb5f11a27aa07e","bdp_trlrn","Sun Mar 12 2023 21:17:48 GMT-0500 (Central Daylight Time)","722537","Untrustworthy,Trustworthy","","null","","","","decisionFB","","<div class='trialDiv'><img src='trustrating_stim/white_mw071.bmp'><br><font class='baseline'><strong>Ethan</strong><p>Choose number of points to send.</font><div class='respPicDiv'><img src='img/responseButtonOffersNo0L2.png' class='respPic'></div></div>","null","8","Ethan","6","Kept","0.2,0.8","14","0.2","trustrating_stim/white_mw071.bmp","4","114","24"
"html-keyboard-response","208","434326","0.0-19.0-3.23","5f43ef4041bb5f11a27aa07e","bdp_trlrn","Sun Mar 12 2023 21:17:48 GMT-0500 (Central Daylight Time)","722537","Untrustworthy,Trustworthy","","null","","","","feedback","","<div class='trialDiv'><img src='trustrating_stim/white_mw071.bmp'><br><font class='baseline'><strong>Ethan</strong><p>Received: <strong>8</strong></font> &nbsp; &nbsp; &nbsp; &nbsp; &nbsp; &nbsp;<font class='negOutcome'>Shared back: <strong>0</strong></font></font><div class='respPicDiv'><img src='img/responseButtonOffersNo0_wht.png' class='respPic'></div></div>","null","8","Ethan","6","Kept","0.2,0.8","14","0.2","trustrating_stim/white_mw071.bmp","4","114","24"
"html-keyboard-response","209","436718","0.0-19.0-1.24","5f43ef4041bb5f11a27aa07e","bdp_trlrn","Sun Mar 12 2023 21:17:48 GMT-0500 (Central Daylight Time)","722537","Untrustworthy,Trustworthy","","2390","","","","decision","","<div class='trialDiv'><img src='trustrating_stim/white_mw048.bmp'><br><font class='baseline'><strong>Joseph</strong><p>Choose number of points to send.</font><div class='respPicDiv'><img src='img/responseButtonOffersNo0L.png' class='respPic'></div></div>","4","9","Joseph","1","Shared","0.65,0.2","11","0.65","trustrating_stim/white_mw048.bmp","2","119","25"
"html-keyboard-response","210","436976","0.0-19.0-2.24","5f43ef4041bb5f11a27aa07e","bdp_trlrn","Sun Mar 12 2023 21:17:48 GMT-0500 (Central Daylight Time)","722537","Untrustworthy,Trustworthy","","null","","","","decisionFB","","<div class='trialDiv'><img src='trustrating_stim/white_mw048.bmp'><br><font class='baseline'><strong>Joseph</strong><p>Choose number of points to send.</font><div class='respPicDiv'><img src='img/responseButtonOffersNo0L4.png' class='respPic'></div></div>","null","9","Joseph","1","Shared","0.65,0.2","11","0.65","trustrating_stim/white_mw048.bmp","2","115","25"
"html-keyboard-response","211","437984","0.0-19.0-3.24","5f43ef4041bb5f11a27aa07e","bdp_trlrn","Sun Mar 12 2023 21:17:48 GMT-0500 (Central Daylight Time)","722537","Untrustworthy,Trustworthy","","null","","","","feedback","","<div class='trialDiv'><img src='trustrating_stim/white_mw048.bmp'><br><font class='baseline'><strong>Joseph</strong><p>Received: <strong>16</strong></font> &nbsp; &nbsp; &nbsp; &nbsp; &nbsp; &nbsp;<font class='posOutcome'>Shared back: <strong>8</strong></font></font><div class='respPicDiv'><img src='img/responseButtonOffersNo0_wht.png' class='respPic'></div></div>","null","9","Joseph","1","Shared","0.65,0.2","11","0.65","trustrating_stim/white_mw048.bmp","2","123","25"
"html-keyboard-response","212","439115","0.0-19.0-1.25","5f43ef4041bb5f11a27aa07e","bdp_trlrn","Sun Mar 12 2023 21:17:48 GMT-0500 (Central Daylight Time)","722537","Untrustworthy,Trustworthy","","1129","","","","decision","","<div class='trialDiv'><img src='trustrating_stim/white_mw071.bmp'><br><font class='baseline'><strong>Ethan</strong><p>Choose number of points to send.</font><div class='respPicDiv'><img src='img/responseButtonOffersNo0L.png' class='respPic'></div></div>","2","9","Ethan","6","Kept","0.2,0.8","14","0.2","trustrating_stim/white_mw071.bmp","4","128","26"
"html-keyboard-response","213","439376","0.0-19.0-2.25","5f43ef4041bb5f11a27aa07e","bdp_trlrn","Sun Mar 12 2023 21:17:48 GMT-0500 (Central Daylight Time)","722537","Untrustworthy,Trustworthy","","null","","","","decisionFB","","<div class='trialDiv'><img src='trustrating_stim/white_mw071.bmp'><br><font class='baseline'><strong>Ethan</strong><p>Choose number of points to send.</font><div class='respPicDiv'><img src='img/responseButtonOffersNo0L2.png' class='respPic'></div></div>","null","9","Ethan","6","Kept","0.2,0.8","14","0.2","trustrating_stim/white_mw071.bmp","4","126","26"
"html-keyboard-response","214","440384","0.0-19.0-3.25","5f43ef4041bb5f11a27aa07e","bdp_trlrn","Sun Mar 12 2023 21:17:48 GMT-0500 (Central Daylight Time)","722537","Untrustworthy,Trustworthy","","null","","","","feedback","","<div class='trialDiv'><img src='trustrating_stim/white_mw071.bmp'><br><font class='baseline'><strong>Ethan</strong><p>Received: <strong>8</strong></font> &nbsp; &nbsp; &nbsp; &nbsp; &nbsp; &nbsp;<font class='negOutcome'>Shared back: <strong>0</strong></font></font><div class='respPicDiv'><img src='img/responseButtonOffersNo0_wht.png' class='respPic'></div></div>","null","9","Ethan","6","Kept","0.2,0.8","14","0.2","trustrating_stim/white_mw071.bmp","4","126","26"
"html-keyboard-response","215","440898","0.0-19.0-1.26","5f43ef4041bb5f11a27aa07e","bdp_trlrn","Sun Mar 12 2023 21:17:48 GMT-0500 (Central Daylight Time)","722537","Untrustworthy,Trustworthy","","512","","","","decision","","<div class='trialDiv'><img src='trustrating_stim/white_00109_931230_fa_edt.bmp'><br><font class='baseline'><strong>Timothy</strong><p>Choose number of points to send.</font><div class='respPicDiv'><img src='img/responseButtonOffersNo0L.png' class='respPic'></div></div>","1","9","Timothy","8","Kept","0.2,0.65","8","0.2","trustrating_stim/white_00109_931230_fa_edt.bmp","7","131","27"
"html-keyboard-response","216","441157","0.0-19.0-2.26","5f43ef4041bb5f11a27aa07e","bdp_trlrn","Sun Mar 12 2023 21:17:48 GMT-0500 (Central Daylight Time)","722537","Untrustworthy,Trustworthy","","null","","","","decisionFB","","<div class='trialDiv'><img src='trustrating_stim/white_00109_931230_fa_edt.bmp'><br><font class='baseline'><strong>Timothy</strong><p>Choose number of points to send.</font><div class='respPicDiv'><img src='img/responseButtonOffersNo0L1.png' class='respPic'></div></div>","null","9","Timothy","8","Kept","0.2,0.65","8","0.2","trustrating_stim/white_00109_931230_fa_edt.bmp","7","130","27"
"html-keyboard-response","217","442165","0.0-19.0-3.26","5f43ef4041bb5f11a27aa07e","bdp_trlrn","Sun Mar 12 2023 21:17:48 GMT-0500 (Central Daylight Time)","722537","Untrustworthy,Trustworthy","","null","","","","feedback","","<div class='trialDiv'><img src='trustrating_stim/white_00109_931230_fa_edt.bmp'><br><font class='baseline'><strong>Timothy</strong><p>Received: <strong>4</strong></font> &nbsp; &nbsp; &nbsp; &nbsp; &nbsp; &nbsp;<font class='negOutcome'>Shared back: <strong>0</strong></font></font><div class='respPicDiv'><img src='img/responseButtonOffersNo0_wht.png' class='respPic'></div></div>","null","9","Timothy","8","Kept","0.2,0.65","8","0.2","trustrating_stim/white_00109_931230_fa_edt.bmp","7","130","27"
"html-keyboard-response","218","443612","0.0-19.0-1.27","5f43ef4041bb5f11a27aa07e","bdp_trlrn","Sun Mar 12 2023 21:17:48 GMT-0500 (Central Daylight Time)","722537","Untrustworthy,Trustworthy","","1443","","","","decision","","<div class='trialDiv'><img src='trustrating_stim/white_mw071.bmp'><br><font class='baseline'><strong>Ethan</strong><p>Choose number of points to send.</font><div class='respPicDiv'><img src='img/responseButtonOffersNo0L.png' class='respPic'></div></div>","2","10","Ethan","6","Kept","0.2,0.8","14","0.2","trustrating_stim/white_mw071.bmp","4","135","28"
"html-keyboard-response","219","443872","0.0-19.0-2.27","5f43ef4041bb5f11a27aa07e","bdp_trlrn","Sun Mar 12 2023 21:17:48 GMT-0500 (Central Daylight Time)","722537","Untrustworthy,Trustworthy","","null","","","","decisionFB","","<div class='trialDiv'><img src='trustrating_stim/white_mw071.bmp'><br><font class='baseline'><strong>Ethan</strong><p>Choose number of points to send.</font><div class='respPicDiv'><img src='img/responseButtonOffersNo0L2.png' class='respPic'></div></div>","null","10","Ethan","6","Kept","0.2,0.8","14","0.2","trustrating_stim/white_mw071.bmp","4","133","28"
"html-keyboard-response","220","444880","0.0-19.0-3.27","5f43ef4041bb5f11a27aa07e","bdp_trlrn","Sun Mar 12 2023 21:17:48 GMT-0500 (Central Daylight Time)","722537","Untrustworthy,Trustworthy","","null","","","","feedback","","<div class='trialDiv'><img src='trustrating_stim/white_mw071.bmp'><br><font class='baseline'><strong>Ethan</strong><p>Received: <strong>8</strong></font> &nbsp; &nbsp; &nbsp; &nbsp; &nbsp; &nbsp;<font class='negOutcome'>Shared back: <strong>0</strong></font></font><div class='respPicDiv'><img src='img/responseButtonOffersNo0_wht.png' class='respPic'></div></div>","null","10","Ethan","6","Kept","0.2,0.8","14","0.2","trustrating_stim/white_mw071.bmp","4","133","28"
"html-keyboard-response","221","446759","0.0-19.0-1.28","5f43ef4041bb5f11a27aa07e","bdp_trlrn","Sun Mar 12 2023 21:17:48 GMT-0500 (Central Daylight Time)","722537","Untrustworthy,Trustworthy","","1877","","","","decision","","<div class='trialDiv'><img src='trustrating_stim/white_mw048.bmp'><br><font class='baseline'><strong>Joseph</strong><p>Choose number of points to send.</font><div class='respPicDiv'><img src='img/responseButtonOffersNo0L.png' class='respPic'></div></div>","3","10","Joseph","1","Kept","0.65,0.2","11","0.65","trustrating_stim/white_mw048.bmp","2","138","29"
