"trial_type","trial_index","time_elapsed","internal_node_id","subject_id","task","startTime","totalTime","labels","view_history","rt","event","trial","time","trialtype","success","stimulus","key_press","aground","name","faceID","outcome","agenttype","agentswpt","agentcurrpshare","face","avgRating","point_total","round"
"pavlovia","0","5","0.0-0.0","58016c9f551314000145af58","bdp_trlrn","Fri Mar 10 2023 14:58:31 GMT-0500 (Eastern Standard Time)","787676","Untrustworthy,Trustworthy","","","","","","","","","","","","","","","","","","","",""
"instructions","1","4832","0.0-1.0","58016c9f551314000145af58","bdp_trlrn","Fri Mar 10 2023 14:58:31 GMT-0500 (Eastern Standard Time)","787676","Untrustworthy,Trustworthy","[{""page_index"":0,""viewing_time"":4826}]","4826","","","","","","","","","","","","","","","","","",""
"","","","","58016c9f551314000145af58","bdp_trlrn","Fri Mar 10 2023 14:58:31 GMT-0500 (Eastern Standard Time)","787676","Untrustworthy,Trustworthy","","","fullscreenenter","2","7051","fullscreenenter","","","","","","","","","","","","","",""
"fullscreen","2","8050","0.0-2.0","58016c9f551314000145af58","bdp_trlrn","Fri Mar 10 2023 14:58:31 GMT-0500 (Eastern Standard Time)","787676","Untrustworthy,Trustworthy","","","","","","","true","","","","","","","","","","","","",""
"instructions","3","28389","0.0-4.0","58016c9f551314000145af58","bdp_trlrn","Fri Mar 10 2023 14:58:31 GMT-0500 (Eastern Standard Time)","787676","Untrustworthy,Trustworthy","[{""page_index"":0,""viewing_time"":17685},{""page_index"":1,""viewing_time"":2653}]","20338","","","","","","","","","","","","","","","","","",""
"instructions","4","29501","0.0-5.0","58016c9f551314000145af58","bdp_trlrn","Fri Mar 10 2023 14:58:31 GMT-0500 (Eastern Standard Time)","787676","Untrustworthy,Trustworthy","[{""page_index"":0,""viewing_time"":1111}]","1111","","","","","","","","","","","","","","","","","",""
"image-keyboard-response","5","32421","0.0-6.0-1.0","58016c9f551314000145af58","bdp_trlrn","Fri Mar 10 2023 14:58:31 GMT-0500 (Eastern Standard Time)","787676","Untrustworthy,Trustworthy","","2818","","","","rating","","trustrating_stim/white_00602_940928_fb_edt.bmp","5","","","","","","","","","","",""
"image-keyboard-response","6","32626","0.0-6.0-2.0","58016c9f551314000145af58","bdp_trlrn","Fri Mar 10 2023 14:58:31 GMT-0500 (Eastern Standard Time)","787676","Untrustworthy,Trustworthy","","null","","","","ratingFB","","trustrating_stim/white_00602_940928_fb_edt.bmp","null","","","","","","","","","","",""
"image-keyboard-response","7","35693","0.0-6.0-1.1","58016c9f551314000145af58","bdp_trlrn","Fri Mar 10 2023 14:58:31 GMT-0500 (Eastern Standard Time)","787676","Untrustworthy,Trustworthy","","2963","","","","rating","","trustrating_stim/white_mw071.bmp","4","","","","","","","","","","",""
"image-keyboard-response","8","35897","0.0-6.0-2.1","58016c9f551314000145af58","bdp_trlrn","Fri Mar 10 2023 14:58:31 GMT-0500 (Eastern Standard Time)","787676","Untrustworthy,Trustworthy","","null","","","","ratingFB","","trustrating_stim/white_mw071.bmp","null","","","","","","","","","","",""
"image-keyboard-response","9","38191","0.0-6.0-1.2","58016c9f551314000145af58","bdp_trlrn","Fri Mar 10 2023 14:58:31 GMT-0500 (Eastern Standard Time)","787676","Untrustworthy,Trustworthy","","2189","","","","rating","","trustrating_stim/white_00109_931230_fa_edt.bmp","6","","","","","","","","","","",""
"image-keyboard-response","10","38394","0.0-6.0-2.2","58016c9f551314000145af58","bdp_trlrn","Fri Mar 10 2023 14:58:31 GMT-0500 (Eastern Standard Time)","787676","Untrustworthy,Trustworthy","","null","","","","ratingFB","","trustrating_stim/white_00109_931230_fa_edt.bmp","null","","","","","","","","","","",""
"image-keyboard-response","11","40981","0.0-6.0-1.3","58016c9f551314000145af58","bdp_trlrn","Fri Mar 10 2023 14:58:31 GMT-0500 (Eastern Standard Time)","787676","Untrustworthy,Trustworthy","","2481","","","","rating","","trustrating_stim/white_00785_941205_fb_edt.bmp","4","","","","","","","","","","",""
"image-keyboard-response","12","41186","0.0-6.0-2.3","58016c9f551314000145af58","bdp_trlrn","Fri Mar 10 2023 14:58:31 GMT-0500 (Eastern Standard Time)","787676","Untrustworthy,Trustworthy","","null","","","","ratingFB","","trustrating_stim/white_00785_941205_fb_edt.bmp","null","","","","","","","","","","",""
"image-keyboard-response","13","42781","0.0-6.0-1.4","58016c9f551314000145af58","bdp_trlrn","Fri Mar 10 2023 14:58:31 GMT-0500 (Eastern Standard Time)","787676","Untrustworthy,Trustworthy","","1489","","","","rating","","trustrating_stim/white_00519_940519_fb_edt.bmp","4","","","","","","","","","","",""
"image-keyboard-response","14","42986","0.0-6.0-2.4","58016c9f551314000145af58","bdp_trlrn","Fri Mar 10 2023 14:58:31 GMT-0500 (Eastern Standard Time)","787676","Untrustworthy,Trustworthy","","null","","","","ratingFB","","trustrating_stim/white_00519_940519_fb_edt.bmp","null","","","","","","","","","","",""
"image-keyboard-response","15","44453","0.0-6.0-1.5","58016c9f551314000145af58","bdp_trlrn","Fri Mar 10 2023 14:58:31 GMT-0500 (Eastern Standard Time)","787676","Untrustworthy,Trustworthy","","1362","","","","rating","","trustrating_stim/white_mw053.bmp","5","","","","","","","","","","",""
"image-keyboard-response","16","44658","0.0-6.0-2.5","58016c9f551314000145af58","bdp_trlrn","Fri Mar 10 2023 14:58:31 GMT-0500 (Eastern Standard Time)","787676","Untrustworthy,Trustworthy","","null","","","","ratingFB","","trustrating_stim/white_mw053.bmp","null","","","","","","","","","","",""
"image-keyboard-response","17","46805","0.0-6.0-1.6","58016c9f551314000145af58","bdp_trlrn","Fri Mar 10 2023 14:58:31 GMT-0500 (Eastern Standard Time)","787676","Untrustworthy,Trustworthy","","2042","","","","rating","","trustrating_stim/white_mw066.bmp","6","","","","","","","","","","",""
"image-keyboard-response","18","47010","0.0-6.0-2.6","58016c9f551314000145af58","bdp_trlrn","Fri Mar 10 2023 14:58:31 GMT-0500 (Eastern Standard Time)","787676","Untrustworthy,Trustworthy","","null","","","","ratingFB","","trustrating_stim/white_mw066.bmp","null","","","","","","","","","","",""
"image-keyboard-response","19","48687","0.0-6.0-1.7","58016c9f551314000145af58","bdp_trlrn","Fri Mar 10 2023 14:58:31 GMT-0500 (Eastern Standard Time)","787676","Untrustworthy,Trustworthy","","1573","","","","rating","","trustrating_stim/white_mw049.bmp","7","","","","","","","","","","",""
"image-keyboard-response","20","48890","0.0-6.0-2.7","58016c9f551314000145af58","bdp_trlrn","Fri Mar 10 2023 14:58:31 GMT-0500 (Eastern Standard Time)","787676","Untrustworthy,Trustworthy","","null","","","","ratingFB","","trustrating_stim/white_mw049.bmp","null","","","","","","","","","","",""
"image-keyboard-response","21","50508","0.0-6.0-1.8","58016c9f551314000145af58","bdp_trlrn","Fri Mar 10 2023 14:58:31 GMT-0500 (Eastern Standard Time)","787676","Untrustworthy,Trustworthy","","1514","","","","rating","","trustrating_stim/white_00120_931230_fa_edt.bmp","5","","","","","","","","","","",""
"image-keyboard-response","22","50714","0.0-6.0-2.8","58016c9f551314000145af58","bdp_trlrn","Fri Mar 10 2023 14:58:31 GMT-0500 (Eastern Standard Time)","787676","Untrustworthy,Trustworthy","","null","","","","ratingFB","","trustrating_stim/white_00120_931230_fa_edt.bmp","null","","","","","","","","","","",""
"image-keyboard-response","23","54037","0.0-6.0-1.9","58016c9f551314000145af58","bdp_trlrn","Fri Mar 10 2023 14:58:31 GMT-0500 (Eastern Standard Time)","787676","Untrustworthy,Trustworthy","","3218","","","","rating","","trustrating_stim/white_00898_960530_fa_edt.bmp","4","","","","","","","","","","",""
"image-keyboard-response","24","54242","0.0-6.0-2.9","58016c9f551314000145af58","bdp_trlrn","Fri Mar 10 2023 14:58:31 GMT-0500 (Eastern Standard Time)","787676","Untrustworthy,Trustworthy","","null","","","","ratingFB","","trustrating_stim/white_00898_960530_fa_edt.bmp","null","","","","","","","","","","",""
"image-keyboard-response","25","55884","0.0-6.0-1.10","58016c9f551314000145af58","bdp_trlrn","Fri Mar 10 2023 14:58:31 GMT-0500 (Eastern Standard Time)","787676","Untrustworthy,Trustworthy","","1538","","","","rating","","trustrating_stim/white_mw089.bmp","5","","","","","","","","","","",""
"image-keyboard-response","26","56090","0.0-6.0-2.10","58016c9f551314000145af58","bdp_trlrn","Fri Mar 10 2023 14:58:31 GMT-0500 (Eastern Standard Time)","787676","Untrustworthy,Trustworthy","","null","","","","ratingFB","","trustrating_stim/white_mw089.bmp","null","","","","","","","","","","",""
"image-keyboard-response","27","57332","0.0-6.0-1.11","58016c9f551314000145af58","bdp_trlrn","Fri Mar 10 2023 14:58:31 GMT-0500 (Eastern Standard Time)","787676","Untrustworthy,Trustworthy","","1138","","","","rating","","trustrating_stim/white_mw084.bmp","5","","","","","","","","","","",""
"image-keyboard-response","28","57538","0.0-6.0-2.11","58016c9f551314000145af58","bdp_trlrn","Fri Mar 10 2023 14:58:31 GMT-0500 (Eastern Standard Time)","787676","Untrustworthy,Trustworthy","","null","","","","ratingFB","","trustrating_stim/white_mw084.bmp","null","","","","","","","","","","",""
"image-keyboard-response","29","60311","0.0-6.0-1.12","58016c9f551314000145af58","bdp_trlrn","Fri Mar 10 2023 14:58:31 GMT-0500 (Eastern Standard Time)","787676","Untrustworthy,Trustworthy","","2648","","","","rating","","trustrating_stim/white_00577_940928_fa_edt.bmp","3","","","","","","","","","","",""
"image-keyboard-response","30","60514","0.0-6.0-2.12","58016c9f551314000145af58","bdp_trlrn","Fri Mar 10 2023 14:58:31 GMT-0500 (Eastern Standard Time)","787676","Untrustworthy,Trustworthy","","null","","","","ratingFB","","trustrating_stim/white_00577_940928_fa_edt.bmp","null","","","","","","","","","","",""
"image-keyboard-response","31","63749","0.0-6.0-1.13","58016c9f551314000145af58","bdp_trlrn","Fri Mar 10 2023 14:58:31 GMT-0500 (Eastern Standard Time)","787676","Untrustworthy,Trustworthy","","3131","","","","rating","","trustrating_stim/white_00223_940128_fb_edt.bmp","4","","","","","","","","","","",""
"image-keyboard-response","32","63955","0.0-6.0-2.13","58016c9f551314000145af58","bdp_trlrn","Fri Mar 10 2023 14:58:31 GMT-0500 (Eastern Standard Time)","787676","Untrustworthy,Trustworthy","","null","","","","ratingFB","","trustrating_stim/white_00223_940128_fb_edt.bmp","null","","","","","","","","","","",""
"image-keyboard-response","33","65213","0.0-6.0-1.14","58016c9f551314000145af58","bdp_trlrn","Fri Mar 10 2023 14:58:31 GMT-0500 (Eastern Standard Time)","787676","Untrustworthy,Trustworthy","","1154","","","","rating","","trustrating_stim/white_mw048.bmp","5","","","","","","","","","","",""
"image-keyboard-response","34","65419","0.0-6.0-2.14","58016c9f551314000145af58","bdp_trlrn","Fri Mar 10 2023 14:58:31 GMT-0500 (Eastern Standard Time)","787676","Untrustworthy,Trustworthy","","null","","","","ratingFB","","trustrating_stim/white_mw048.bmp","null","","","","","","","","","","",""
"image-keyboard-response","35","66734","0.0-6.0-1.15","58016c9f551314000145af58","bdp_trlrn","Fri Mar 10 2023 14:58:31 GMT-0500 (Eastern Standard Time)","787676","Untrustworthy,Trustworthy","","1210","","","","rating","","trustrating_stim/white_mw035.bmp","5","","","","","","","","","","",""
"image-keyboard-response","36","66939","0.0-6.0-2.15","58016c9f551314000145af58","bdp_trlrn","Fri Mar 10 2023 14:58:31 GMT-0500 (Eastern Standard Time)","787676","Untrustworthy,Trustworthy","","null","","","","ratingFB","","trustrating_stim/white_mw035.bmp","null","","","","","","","","","","",""
"image-keyboard-response","37","68237","0.0-6.0-1.16","58016c9f551314000145af58","bdp_trlrn","Fri Mar 10 2023 14:58:31 GMT-0500 (Eastern Standard Time)","787676","Untrustworthy,Trustworthy","","1194","","","","rating","","trustrating_stim/white_00659_941121_fa_edt.bmp","5","","","","","","","","","","",""
"image-keyboard-response","38","68443","0.0-6.0-2.16","58016c9f551314000145af58","bdp_trlrn","Fri Mar 10 2023 14:58:31 GMT-0500 (Eastern Standard Time)","787676","Untrustworthy,Trustworthy","","null","","","","ratingFB","","trustrating_stim/white_00659_941121_fa_edt.bmp","null","","","","","","","","","","",""
"image-keyboard-response","39","70552","0.0-6.0-1.17","58016c9f551314000145af58","bdp_trlrn","Fri Mar 10 2023 14:58:31 GMT-0500 (Eastern Standard Time)","787676","Untrustworthy,Trustworthy","","2005","","","","rating","","trustrating_stim/white_mw046.bmp","4","","","","","","","","","","",""
"image-keyboard-response","40","70755","0.0-6.0-2.17","58016c9f551314000145af58","bdp_trlrn","Fri Mar 10 2023 14:58:31 GMT-0500 (Eastern Standard Time)","787676","Untrustworthy,Trustworthy","","null","","","","ratingFB","","trustrating_stim/white_mw046.bmp","null","","","","","","","","","","",""
"image-keyboard-response","41","73765","0.0-6.0-1.18","58016c9f551314000145af58","bdp_trlrn","Fri Mar 10 2023 14:58:31 GMT-0500 (Eastern Standard Time)","787676","Untrustworthy,Trustworthy","","2906","","","","rating","","trustrating_stim/white_mw056.bmp","5","","","","","","","","","","",""
"image-keyboard-response","42","73971","0.0-6.0-2.18","58016c9f551314000145af58","bdp_trlrn","Fri Mar 10 2023 14:58:31 GMT-0500 (Eastern Standard Time)","787676","Untrustworthy,Trustworthy","","null","","","","ratingFB","","trustrating_stim/white_mw056.bmp","null","","","","","","","","","","",""
"image-keyboard-response","43","76541","0.0-6.0-1.19","58016c9f551314000145af58","bdp_trlrn","Fri Mar 10 2023 14:58:31 GMT-0500 (Eastern Standard Time)","787676","Untrustworthy,Trustworthy","","2466","","","","rating","","trustrating_stim/white_00340_940422_fa_edt.bmp","3","","","","","","","","","","",""
"image-keyboard-response","44","76747","0.0-6.0-2.19","58016c9f551314000145af58","bdp_trlrn","Fri Mar 10 2023 14:58:31 GMT-0500 (Eastern Standard Time)","787676","Untrustworthy,Trustworthy","","null","","","","ratingFB","","trustrating_stim/white_00340_940422_fa_edt.bmp","null","","","","","","","","","","",""
"image-keyboard-response","45","78405","0.0-6.0-1.20","58016c9f551314000145af58","bdp_trlrn","Fri Mar 10 2023 14:58:31 GMT-0500 (Eastern Standard Time)","787676","Untrustworthy,Trustworthy","","1554","","","","rating","","trustrating_stim/white_mw099.bmp","4","","","","","","","","","","",""
"image-keyboard-response","46","78611","0.0-6.0-2.20","58016c9f551314000145af58","bdp_trlrn","Fri Mar 10 2023 14:58:31 GMT-0500 (Eastern Standard Time)","787676","Untrustworthy,Trustworthy","","null","","","","ratingFB","","trustrating_stim/white_mw099.bmp","null","","","","","","","","","","",""
"image-keyboard-response","47","80045","0.0-6.0-1.21","58016c9f551314000145af58","bdp_trlrn","Fri Mar 10 2023 14:58:31 GMT-0500 (Eastern Standard Time)","787676","Untrustworthy,Trustworthy","","1330","","","","rating","","trustrating_stim/white_mw063.bmp","4","","","","","","","","","","",""
"image-keyboard-response","48","80252","0.0-6.0-2.21","58016c9f551314000145af58","bdp_trlrn","Fri Mar 10 2023 14:58:31 GMT-0500 (Eastern Standard Time)","787676","Untrustworthy,Trustworthy","","null","","","","ratingFB","","trustrating_stim/white_mw063.bmp","null","","","","","","","","","","",""
"image-keyboard-response","49","82039","0.0-6.0-1.22","58016c9f551314000145af58","bdp_trlrn","Fri Mar 10 2023 14:58:31 GMT-0500 (Eastern Standard Time)","787676","Untrustworthy,Trustworthy","","1683","","","","rating","","trustrating_stim/white_mw097.bmp","5","","","","","","","","","","",""
"image-keyboard-response","50","82244","0.0-6.0-2.22","58016c9f551314000145af58","bdp_trlrn","Fri Mar 10 2023 14:58:31 GMT-0500 (Eastern Standard Time)","787676","Untrustworthy,Trustworthy","","null","","","","ratingFB","","trustrating_stim/white_mw097.bmp","null","","","","","","","","","","",""
"image-keyboard-response","51","83357","0.0-6.0-1.23","58016c9f551314000145af58","bdp_trlrn","Fri Mar 10 2023 14:58:31 GMT-0500 (Eastern Standard Time)","787676","Untrustworthy,Trustworthy","","1009","","","","rating","","trustrating_stim/white_00807_941205_fb_edt.bmp","5","","","","","","","","","","",""
"image-keyboard-response","52","83563","0.0-6.0-2.23","58016c9f551314000145af58","bdp_trlrn","Fri Mar 10 2023 14:58:31 GMT-0500 (Eastern Standard Time)","787676","Untrustworthy,Trustworthy","","null","","","","ratingFB","","trustrating_stim/white_00807_941205_fb_edt.bmp","null","","","","","","","","","","",""
"image-keyboard-response","53","85821","0.0-6.0-1.24","58016c9f551314000145af58","bdp_trlrn","Fri Mar 10 2023 14:58:31 GMT-0500 (Eastern Standard Time)","787676","Untrustworthy,Trustworthy","","2153","","","","rating","","trustrating_stim/white_00757_941201_fa_edt.bmp","5","","","","","","","","","","",""
"image-keyboard-response","54","86027","0.0-6.0-2.24","58016c9f551314000145af58","bdp_trlrn","Fri Mar 10 2023 14:58:31 GMT-0500 (Eastern Standard Time)","787676","Untrustworthy,Trustworthy","","null","","","","ratingFB","","trustrating_stim/white_00757_941201_fa_edt.bmp","null","","","","","","","","","","",""
"image-keyboard-response","55","87101","0.0-6.0-1.25","58016c9f551314000145af58","bdp_trlrn","Fri Mar 10 2023 14:58:31 GMT-0500 (Eastern Standard Time)","787676","Untrustworthy,Trustworthy","","882","","","","rating","","trustrating_stim/white_00129_931230_fb_edt.bmp","5","","","","","","","","","","",""
"image-keyboard-response","56","87307","0.0-6.0-2.25","58016c9f551314000145af58","bdp_trlrn","Fri Mar 10 2023 14:58:31 GMT-0500 (Eastern Standard Time)","787676","Untrustworthy,Trustworthy","","null","","","","ratingFB","","trustrating_stim/white_00129_931230_fb_edt.bmp","null","","","","","","","","","","",""
"image-keyboard-response","57","89381","0.0-6.0-1.26","58016c9f551314000145af58","bdp_trlrn","Fri Mar 10 2023 14:58:31 GMT-0500 (Eastern Standard Time)","787676","Untrustworthy,Trustworthy","","1969","","","","rating","","trustrating_stim/white_mw033.bmp","5","","","","","","","","","","",""
"image-keyboard-response","58","89587","0.0-6.0-2.26","58016c9f551314000145af58","bdp_trlrn","Fri Mar 10 2023 14:58:31 GMT-0500 (Eastern Standard Time)","787676","Untrustworthy,Trustworthy","","null","","","","ratingFB","","trustrating_stim/white_mw033.bmp","null","","","","","","","","","","",""
"image-keyboard-response","59","91069","0.0-6.0-1.27","58016c9f551314000145af58","bdp_trlrn","Fri Mar 10 2023 14:58:31 GMT-0500 (Eastern Standard Time)","787676","Untrustworthy,Trustworthy","","1377","","","","rating","","trustrating_stim/white_mw060.bmp","4","","","","","","","","","","",""
"image-keyboard-response","60","91275","0.0-6.0-2.27","58016c9f551314000145af58","bdp_trlrn","Fri Mar 10 2023 14:58:31 GMT-0500 (Eastern Standard Time)","787676","Untrustworthy,Trustworthy","","null","","","","ratingFB","","trustrating_stim/white_mw060.bmp","null","","","","","","","","","","",""
"image-keyboard-response","61","92703","0.0-6.0-1.28","58016c9f551314000145af58","bdp_trlrn","Fri Mar 10 2023 14:58:31 GMT-0500 (Eastern Standard Time)","787676","Untrustworthy,Trustworthy","","1322","","","","rating","","trustrating_stim/white_00761_941201_fb_edt.bmp","6","","","","","","","","","","",""
"image-keyboard-response","62","92907","0.0-6.0-2.28","58016c9f551314000145af58","bdp_trlrn","Fri Mar 10 2023 14:58:31 GMT-0500 (Eastern Standard Time)","787676","Untrustworthy,Trustworthy","","null","","","","ratingFB","","trustrating_stim/white_00761_941201_fb_edt.bmp","null","","","","","","","","","","",""
"image-keyboard-response","63","95189","0.0-6.0-1.29","58016c9f551314000145af58","bdp_trlrn","Fri Mar 10 2023 14:58:31 GMT-0500 (Eastern Standard Time)","787676","Untrustworthy,Trustworthy","","2178","","","","rating","","trustrating_stim/white_00299_940422_fa_edt.bmp","5","","","","","","","","","","",""
"image-keyboard-response","64","95395","0.0-6.0-2.29","58016c9f551314000145af58","bdp_trlrn","Fri Mar 10 2023 14:58:31 GMT-0500 (Eastern Standard Time)","787676","Untrustworthy,Trustworthy","","null","","","","ratingFB","","trustrating_stim/white_00299_940422_fa_edt.bmp","null","","","","","","","","","","",""
"image-keyboard-response","65","96725","0.0-6.0-1.30","58016c9f551314000145af58","bdp_trlrn","Fri Mar 10 2023 14:58:31 GMT-0500 (Eastern Standard Time)","787676","Untrustworthy,Trustworthy","","1224","","","","rating","","trustrating_stim/white_00129_931230_fb_edt.bmp","5","","","","","","","","","","",""
"image-keyboard-response","66","96931","0.0-6.0-2.30","58016c9f551314000145af58","bdp_trlrn","Fri Mar 10 2023 14:58:31 GMT-0500 (Eastern Standard Time)","787676","Untrustworthy,Trustworthy","","null","","","","ratingFB","","trustrating_stim/white_00129_931230_fb_edt.bmp","null","","","","","","","","","","",""
"image-keyboard-response","67","98613","0.0-6.0-1.31","58016c9f551314000145af58","bdp_trlrn","Fri Mar 10 2023 14:58:31 GMT-0500 (Eastern Standard Time)","787676","Untrustworthy,Trustworthy","","1578","","","","rating","","trustrating_stim/white_mw056.bmp","5","","","","","","","","","","",""
"image-keyboard-response","68","98819","0.0-6.0-2.31","58016c9f551314000145af58","bdp_trlrn","Fri Mar 10 2023 14:58:31 GMT-0500 (Eastern Standard Time)","787676","Untrustworthy,Trustworthy","","null","","","","ratingFB","","trustrating_stim/white_mw056.bmp","null","","","","","","","","","","",""
"image-keyboard-response","69","100301","0.0-6.0-1.32","58016c9f551314000145af58","bdp_trlrn","Fri Mar 10 2023 14:58:31 GMT-0500 (Eastern Standard Time)","787676","Untrustworthy,Trustworthy","","1378","","","","rating","","trustrating_stim/white_mw071.bmp","4","","","","","","","","","","",""
"image-keyboard-response","70","100507","0.0-6.0-2.32","58016c9f551314000145af58","bdp_trlrn","Fri Mar 10 2023 14:58:31 GMT-0500 (Eastern Standard Time)","787676","Untrustworthy,Trustworthy","","null","","","","ratingFB","","trustrating_stim/white_mw071.bmp","null","","","","","","","","","","",""
"image-keyboard-response","71","101877","0.0-6.0-1.33","58016c9f551314000145af58","bdp_trlrn","Fri Mar 10 2023 14:58:31 GMT-0500 (Eastern Standard Time)","787676","Untrustworthy,Trustworthy","","1265","","","","rating","","trustrating_stim/white_00757_941201_fa_edt.bmp","5","","","","","","","","","","",""
"image-keyboard-response","72","102083","0.0-6.0-2.33","58016c9f551314000145af58","bdp_trlrn","Fri Mar 10 2023 14:58:31 GMT-0500 (Eastern Standard Time)","787676","Untrustworthy,Trustworthy","","null","","","","ratingFB","","trustrating_stim/white_00757_941201_fa_edt.bmp","null","","","","","","","","","","",""
"image-keyboard-response","73","103479","0.0-6.0-1.34","58016c9f551314000145af58","bdp_trlrn","Fri Mar 10 2023 14:58:31 GMT-0500 (Eastern Standard Time)","787676","Untrustworthy,Trustworthy","","1291","","","","rating","","trustrating_stim/white_mw035.bmp","5","","","","","","","","","","",""
"image-keyboard-response","74","103683","0.0-6.0-2.34","58016c9f551314000145af58","bdp_trlrn","Fri Mar 10 2023 14:58:31 GMT-0500 (Eastern Standard Time)","787676","Untrustworthy,Trustworthy","","null","","","","ratingFB","","trustrating_stim/white_mw035.bmp","null","","","","","","","","","","",""
"image-keyboard-response","75","105180","0.0-6.0-1.35","58016c9f551314000145af58","bdp_trlrn","Fri Mar 10 2023 14:58:31 GMT-0500 (Eastern Standard Time)","787676","Untrustworthy,Trustworthy","","1393","","","","rating","","trustrating_stim/white_00299_940422_fa_edt.bmp","5","","","","","","","","","","",""
"image-keyboard-response","76","105387","0.0-6.0-2.35","58016c9f551314000145af58","bdp_trlrn","Fri Mar 10 2023 14:58:31 GMT-0500 (Eastern Standard Time)","787676","Untrustworthy,Trustworthy","","null","","","","ratingFB","","trustrating_stim/white_00299_940422_fa_edt.bmp","null","","","","","","","","","","",""
"image-keyboard-response","77","107596","0.0-6.0-1.36","58016c9f551314000145af58","bdp_trlrn","Fri Mar 10 2023 14:58:31 GMT-0500 (Eastern Standard Time)","787676","Untrustworthy,Trustworthy","","2105","","","","rating","","trustrating_stim/white_00577_940928_fa_edt.bmp","4","","","","","","","","","","",""
"image-keyboard-response","78","107803","0.0-6.0-2.36","58016c9f551314000145af58","bdp_trlrn","Fri Mar 10 2023 14:58:31 GMT-0500 (Eastern Standard Time)","787676","Untrustworthy,Trustworthy","","null","","","","ratingFB","","trustrating_stim/white_00577_940928_fa_edt.bmp","null","","","","","","","","","","",""
"image-keyboard-response","79","109756","0.0-6.0-1.37","58016c9f551314000145af58","bdp_trlrn","Fri Mar 10 2023 14:58:31 GMT-0500 (Eastern Standard Time)","787676","Untrustworthy,Trustworthy","","1831","","","","rating","","trustrating_stim/white_00340_940422_fa_edt.bmp","4","","","","","","","","","","",""
"image-keyboard-response","80","109963","0.0-6.0-2.37","58016c9f551314000145af58","bdp_trlrn","Fri Mar 10 2023 14:58:31 GMT-0500 (Eastern Standard Time)","787676","Untrustworthy,Trustworthy","","null","","","","ratingFB","","trustrating_stim/white_00340_940422_fa_edt.bmp","null","","","","","","","","","","",""
"image-keyboard-response","81","111772","0.0-6.0-1.38","58016c9f551314000145af58","bdp_trlrn","Fri Mar 10 2023 14:58:31 GMT-0500 (Eastern Standard Time)","787676","Untrustworthy,Trustworthy","","1705","","","","rating","","trustrating_stim/white_mw089.bmp","5","","","","","","","","","","",""
"image-keyboard-response","82","111979","0.0-6.0-2.38","58016c9f551314000145af58","bdp_trlrn","Fri Mar 10 2023 14:58:31 GMT-0500 (Eastern Standard Time)","787676","Untrustworthy,Trustworthy","","null","","","","ratingFB","","trustrating_stim/white_mw089.bmp","null","","","","","","","","","","",""
"image-keyboard-response","83","114247","0.0-6.0-1.39","58016c9f551314000145af58","bdp_trlrn","Fri Mar 10 2023 14:58:31 GMT-0500 (Eastern Standard Time)","787676","Untrustworthy,Trustworthy","","2163","","","","rating","","trustrating_stim/white_00898_960530_fa_edt.bmp","5","","","","","","","","","","",""
"image-keyboard-response","84","114451","0.0-6.0-2.39","58016c9f551314000145af58","bdp_trlrn","Fri Mar 10 2023 14:58:31 GMT-0500 (Eastern Standard Time)","787676","Untrustworthy,Trustworthy","","null","","","","ratingFB","","trustrating_stim/white_00898_960530_fa_edt.bmp","null","","","","","","","","","","",""
"image-keyboard-response","85","116340","0.0-6.0-1.40","58016c9f551314000145af58","bdp_trlrn","Fri Mar 10 2023 14:58:31 GMT-0500 (Eastern Standard Time)","787676","Untrustworthy,Trustworthy","","1785","","","","rating","","trustrating_stim/white_00109_931230_fa_edt.bmp","6","","","","","","","","","","",""
"image-keyboard-response","86","116547","0.0-6.0-2.40","58016c9f551314000145af58","bdp_trlrn","Fri Mar 10 2023 14:58:31 GMT-0500 (Eastern Standard Time)","787676","Untrustworthy,Trustworthy","","null","","","","ratingFB","","trustrating_stim/white_00109_931230_fa_edt.bmp","null","","","","","","","","","","",""
"image-keyboard-response","87","117948","0.0-6.0-1.41","58016c9f551314000145af58","bdp_trlrn","Fri Mar 10 2023 14:58:31 GMT-0500 (Eastern Standard Time)","787676","Untrustworthy,Trustworthy","","1297","","","","rating","","trustrating_stim/white_00785_941205_fb_edt.bmp","5","","","","","","","","","","",""
"image-keyboard-response","88","118155","0.0-6.0-2.41","58016c9f551314000145af58","bdp_trlrn","Fri Mar 10 2023 14:58:31 GMT-0500 (Eastern Standard Time)","787676","Untrustworthy,Trustworthy","","null","","","","ratingFB","","trustrating_stim/white_00785_941205_fb_edt.bmp","null","","","","","","","","","","",""
"image-keyboard-response","89","121276","0.0-6.0-1.42","58016c9f551314000145af58","bdp_trlrn","Fri Mar 10 2023 14:58:31 GMT-0500 (Eastern Standard Time)","787676","Untrustworthy,Trustworthy","","3017","","","","rating","","trustrating_stim/white_00602_940928_fb_edt.bmp","5","","","","","","","","","","",""
"image-keyboard-response","90","121483","0.0-6.0-2.42","58016c9f551314000145af58","bdp_trlrn","Fri Mar 10 2023 14:58:31 GMT-0500 (Eastern Standard Time)","787676","Untrustworthy,Trustworthy","","null","","","","ratingFB","","trustrating_stim/white_00602_940928_fb_edt.bmp","null","","","","","","","","","","",""
"image-keyboard-response","91","124384","0.0-6.0-1.43","58016c9f551314000145af58","bdp_trlrn","Fri Mar 10 2023 14:58:31 GMT-0500 (Eastern Standard Time)","787676","Untrustworthy,Trustworthy","","2796","","","","rating","","trustrating_stim/white_mw033.bmp","4","","","","","","","","","","",""
"image-keyboard-response","92","124589","0.0-6.0-2.43","58016c9f551314000145af58","bdp_trlrn","Fri Mar 10 2023 14:58:31 GMT-0500 (Eastern Standard Time)","787676","Untrustworthy,Trustworthy","","null","","","","ratingFB","","trustrating_stim/white_mw033.bmp","null","","","","","","","","","","",""
"image-keyboard-response","93","126246","0.0-6.0-1.44","58016c9f551314000145af58","bdp_trlrn","Fri Mar 10 2023 14:58:31 GMT-0500 (Eastern Standard Time)","787676","Untrustworthy,Trustworthy","","1552","","","","rating","","trustrating_stim/white_mw063.bmp","4","","","","","","","","","","",""
"image-keyboard-response","94","126453","0.0-6.0-2.44","58016c9f551314000145af58","bdp_trlrn","Fri Mar 10 2023 14:58:31 GMT-0500 (Eastern Standard Time)","787676","Untrustworthy,Trustworthy","","null","","","","ratingFB","","trustrating_stim/white_mw063.bmp","null","","","","","","","","","","",""
"image-keyboard-response","95","127694","0.0-6.0-1.45","58016c9f551314000145af58","bdp_trlrn","Fri Mar 10 2023 14:58:31 GMT-0500 (Eastern Standard Time)","787676","Untrustworthy,Trustworthy","","1136","","","","rating","","trustrating_stim/white_00223_940128_fb_edt.bmp","4","","","","","","","","","","",""
"image-keyboard-response","96","127901","0.0-6.0-2.45","58016c9f551314000145af58","bdp_trlrn","Fri Mar 10 2023 14:58:31 GMT-0500 (Eastern Standard Time)","787676","Untrustworthy,Trustworthy","","null","","","","ratingFB","","trustrating_stim/white_00223_940128_fb_edt.bmp","null","","","","","","","","","","",""
"image-keyboard-response","97","129885","0.0-6.0-1.46","58016c9f551314000145af58","bdp_trlrn","Fri Mar 10 2023 14:58:31 GMT-0500 (Eastern Standard Time)","787676","Untrustworthy,Trustworthy","","1880","","","","rating","","trustrating_stim/white_00120_931230_fa_edt.bmp","6","","","","","","","","","","",""
"image-keyboard-response","98","130093","0.0-6.0-2.46","58016c9f551314000145af58","bdp_trlrn","Fri Mar 10 2023 14:58:31 GMT-0500 (Eastern Standard Time)","787676","Untrustworthy,Trustworthy","","null","","","","ratingFB","","trustrating_stim/white_00120_931230_fa_edt.bmp","null","","","","","","","","","","",""
"image-keyboard-response","99","131813","0.0-6.0-1.47","58016c9f551314000145af58","bdp_trlrn","Fri Mar 10 2023 14:58:31 GMT-0500 (Eastern Standard Time)","787676","Untrustworthy,Trustworthy","","1616","","","","rating","","trustrating_stim/white_00761_941201_fb_edt.bmp","6","","","","","","","","","","",""
"image-keyboard-response","100","132021","0.0-6.0-2.47","58016c9f551314000145af58","bdp_trlrn","Fri Mar 10 2023 14:58:31 GMT-0500 (Eastern Standard Time)","787676","Untrustworthy,Trustworthy","","null","","","","ratingFB","","trustrating_stim/white_00761_941201_fb_edt.bmp","null","","","","","","","","","","",""
"image-keyboard-response","101","133221","0.0-6.0-1.48","58016c9f551314000145af58","bdp_trlrn","Fri Mar 10 2023 14:58:31 GMT-0500 (Eastern Standard Time)","787676","Untrustworthy,Trustworthy","","1096","","","","rating","","trustrating_stim/white_mw053.bmp","5","","","","","","","","","","",""
"image-keyboard-response","102","133429","0.0-6.0-2.48","58016c9f551314000145af58","bdp_trlrn","Fri Mar 10 2023 14:58:31 GMT-0500 (Eastern Standard Time)","787676","Untrustworthy,Trustworthy","","null","","","","ratingFB","","trustrating_stim/white_mw053.bmp","null","","","","","","","","","","",""
"image-keyboard-response","103","135952","0.0-6.0-1.49","58016c9f551314000145af58","bdp_trlrn","Fri Mar 10 2023 14:58:31 GMT-0500 (Eastern Standard Time)","787676","Untrustworthy,Trustworthy","","2418","","","","rating","","trustrating_stim/white_mw046.bmp","4","","","","","","","","","","",""
"image-keyboard-response","104","136157","0.0-6.0-2.49","58016c9f551314000145af58","bdp_trlrn","Fri Mar 10 2023 14:58:31 GMT-0500 (Eastern Standard Time)","787676","Untrustworthy,Trustworthy","","null","","","","ratingFB","","trustrating_stim/white_mw046.bmp","null","","","","","","","","","","",""
"image-keyboard-response","105","137493","0.0-6.0-1.50","58016c9f551314000145af58","bdp_trlrn","Fri Mar 10 2023 14:58:31 GMT-0500 (Eastern Standard Time)","787676","Untrustworthy,Trustworthy","","1232","","","","rating","","trustrating_stim/white_mw097.bmp","5","","","","","","","","","","",""
"image-keyboard-response","106","137700","0.0-6.0-2.50","58016c9f551314000145af58","bdp_trlrn","Fri Mar 10 2023 14:58:31 GMT-0500 (Eastern Standard Time)","787676","Untrustworthy,Trustworthy","","null","","","","ratingFB","","trustrating_stim/white_mw097.bmp","null","","","","","","","","","","",""
"image-keyboard-response","107","140581","0.0-6.0-1.51","58016c9f551314000145af58","bdp_trlrn","Fri Mar 10 2023 14:58:31 GMT-0500 (Eastern Standard Time)","787676","Untrustworthy,Trustworthy","","2776","","","","rating","","trustrating_stim/white_00659_941121_fa_edt.bmp","4","","","","","","","","","","",""
"image-keyboard-response","108","140788","0.0-6.0-2.51","58016c9f551314000145af58","bdp_trlrn","Fri Mar 10 2023 14:58:31 GMT-0500 (Eastern Standard Time)","787676","Untrustworthy,Trustworthy","","null","","","","ratingFB","","trustrating_stim/white_00659_941121_fa_edt.bmp","null","","","","","","","","","","",""
"image-keyboard-response","109","145829","0.0-6.0-1.52","58016c9f551314000145af58","bdp_trlrn","Fri Mar 10 2023 14:58:31 GMT-0500 (Eastern Standard Time)","787676","Untrustworthy,Trustworthy","","4936","","","","rating","","trustrating_stim/white_mw066.bmp","7","","","","","","","","","","",""
"image-keyboard-response","110","146037","0.0-6.0-2.52","58016c9f551314000145af58","bdp_trlrn","Fri Mar 10 2023 14:58:31 GMT-0500 (Eastern Standard Time)","787676","Untrustworthy,Trustworthy","","null","","","","ratingFB","","trustrating_stim/white_mw066.bmp","null","","","","","","","","","","",""
"image-keyboard-response","111","147279","0.0-6.0-1.53","58016c9f551314000145af58","bdp_trlrn","Fri Mar 10 2023 14:58:31 GMT-0500 (Eastern Standard Time)","787676","Untrustworthy,Trustworthy","","1138","","","","rating","","trustrating_stim/white_mw084.bmp","5","","","","","","","","","","",""
"image-keyboard-response","112","147485","0.0-6.0-2.53","58016c9f551314000145af58","bdp_trlrn","Fri Mar 10 2023 14:58:31 GMT-0500 (Eastern Standard Time)","787676","Untrustworthy,Trustworthy","","null","","","","ratingFB","","trustrating_stim/white_mw084.bmp","null","","","","","","","","","","",""
"image-keyboard-response","113","148549","0.0-6.0-1.54","58016c9f551314000145af58","bdp_trlrn","Fri Mar 10 2023 14:58:31 GMT-0500 (Eastern Standard Time)","787676","Untrustworthy,Trustworthy","","960","","","","rating","","trustrating_stim/white_mw048.bmp","5","","","","","","","","","","",""
"image-keyboard-response","114","148754","0.0-6.0-2.54","58016c9f551314000145af58","bdp_trlrn","Fri Mar 10 2023 14:58:31 GMT-0500 (Eastern Standard Time)","787676","Untrustworthy,Trustworthy","","null","","","","ratingFB","","trustrating_stim/white_mw048.bmp","null","","","","","","","","","","",""
"image-keyboard-response","115","150389","0.0-6.0-1.55","58016c9f551314000145af58","bdp_trlrn","Fri Mar 10 2023 14:58:31 GMT-0500 (Eastern Standard Time)","787676","Untrustworthy,Trustworthy","","1498","","","","rating","","trustrating_stim/white_00519_940519_fb_edt.bmp","4","","","","","","","","","","",""
"image-keyboard-response","116","150596","0.0-6.0-2.55","58016c9f551314000145af58","bdp_trlrn","Fri Mar 10 2023 14:58:31 GMT-0500 (Eastern Standard Time)","787676","Untrustworthy,Trustworthy","","null","","","","ratingFB","","trustrating_stim/white_00519_940519_fb_edt.bmp","null","","","","","","","","","","",""
"image-keyboard-response","117","151789","0.0-6.0-1.56","58016c9f551314000145af58","bdp_trlrn","Fri Mar 10 2023 14:58:31 GMT-0500 (Eastern Standard Time)","787676","Untrustworthy,Trustworthy","","1088","","","","rating","","trustrating_stim/white_mw060.bmp","4","","","","","","","","","","",""
"image-keyboard-response","118","151996","0.0-6.0-2.56","58016c9f551314000145af58","bdp_trlrn","Fri Mar 10 2023 14:58:31 GMT-0500 (Eastern Standard Time)","787676","Untrustworthy,Trustworthy","","null","","","","ratingFB","","trustrating_stim/white_mw060.bmp","null","","","","","","","","","","",""
"image-keyboard-response","119","153749","0.0-6.0-1.57","58016c9f551314000145af58","bdp_trlrn","Fri Mar 10 2023 14:58:31 GMT-0500 (Eastern Standard Time)","787676","Untrustworthy,Trustworthy","","1648","","","","rating","","trustrating_stim/white_mw049.bmp","6","","","","","","","","","","",""
"image-keyboard-response","120","153956","0.0-6.0-2.57","58016c9f551314000145af58","bdp_trlrn","Fri Mar 10 2023 14:58:31 GMT-0500 (Eastern Standard Time)","787676","Untrustworthy,Trustworthy","","null","","","","ratingFB","","trustrating_stim/white_mw049.bmp","null","","","","","","","","","","",""
"image-keyboard-response","121","156781","0.0-6.0-1.58","58016c9f551314000145af58","bdp_trlrn","Fri Mar 10 2023 14:58:31 GMT-0500 (Eastern Standard Time)","787676","Untrustworthy,Trustworthy","","2721","","","","rating","","trustrating_stim/white_00807_941205_fb_edt.bmp","6","","","","","","","","","","",""
"image-keyboard-response","122","156988","0.0-6.0-2.58","58016c9f551314000145af58","bdp_trlrn","Fri Mar 10 2023 14:58:31 GMT-0500 (Eastern Standard Time)","787676","Untrustworthy,Trustworthy","","null","","","","ratingFB","","trustrating_stim/white_00807_941205_fb_edt.bmp","null","","","","","","","","","","",""
"image-keyboard-response","123","160199","0.0-6.0-1.59","58016c9f551314000145af58","bdp_trlrn","Fri Mar 10 2023 14:58:31 GMT-0500 (Eastern Standard Time)","787676","Untrustworthy,Trustworthy","","3107","","","","rating","","trustrating_stim/white_mw099.bmp","5","","","","","","","","","","",""
"image-keyboard-response","124","160404","0.0-6.0-2.59","58016c9f551314000145af58","bdp_trlrn","Fri Mar 10 2023 14:58:31 GMT-0500 (Eastern Standard Time)","787676","Untrustworthy,Trustworthy","","null","","","","ratingFB","","trustrating_stim/white_mw099.bmp","null","","","","","","","","","","",""
"instructions","125","161597","0.0-7.0","58016c9f551314000145af58","bdp_trlrn","Fri Mar 10 2023 14:58:31 GMT-0500 (Eastern Standard Time)","787676","Untrustworthy,Trustworthy","[{""page_index"":0,""viewing_time"":1088}]","1089","","","","","","","","","","","","","","","","","",""
"instructions","126","336413","0.0-8.0","58016c9f551314000145af58","bdp_trlrn","Fri Mar 10 2023 14:58:31 GMT-0500 (Eastern Standard Time)","787676","Untrustworthy,Trustworthy","[{""page_index"":0,""viewing_time"":79002},{""page_index"":1,""viewing_time"":60137},{""page_index"":2,""viewing_time"":5629},{""page_index"":3,""viewing_time"":6306},{""page_index"":4,""viewing_time"":4894},{""page_index"":5,""viewing_time"":4832},{""page_index"":6,""viewing_time"":10778},{""page_index"":7,""viewing_time"":3134}]","174712","","","","","","","","","","","","","","","","","",""
"html-keyboard-response","127","343439","0.0-9.0","58016c9f551314000145af58","bdp_trlrn","Fri Mar 10 2023 14:58:31 GMT-0500 (Eastern Standard Time)","787676","Untrustworthy,Trustworthy","","7024","","","","","","<div class='header' style='text-align:left; position: absolute; top: 5%; left: 5%;'><small>Task 3 of 5</small></div><div class='instruxDiv'><p><strong>1) What is the minimum number of points you can choose to send to your partner?</strong></p><p>a) 0</p><p>b) 1</p><p>c) 5</p>","B","","","","","","","","","","",""
"html-keyboard-response","128","345668","0.0-10.0","58016c9f551314000145af58","bdp_trlrn","Fri Mar 10 2023 14:58:31 GMT-0500 (Eastern Standard Time)","787676","Untrustworthy,Trustworthy","","2122","","","","","","<div class='header' style='text-align:left; position: absolute; top: 5%; left: 5%;'><small>Task 3 of 5</small></div><div class='instruxDiv'><p><strong>1) What is the minimum number of points you can choose to send to your partner?</strong></p><p>a) 0</p><p style='color:#00FF00'>b) 1</p><p>c) 5</p><h3 style='color:#00FF00'>Correct!</h3><h3 class='center-content'>The correct response is b).</h3><h3 class='center-content'>The minimum number of points you can choose to send to your partner is 1 point.</h3><p><em>Press SPACEBAR to continue</em></p></div>"," ","","","","","","","","","","",""
"html-keyboard-response","129","351500","0.0-11.0","58016c9f551314000145af58","bdp_trlrn","Fri Mar 10 2023 14:58:31 GMT-0500 (Eastern Standard Time)","787676","Untrustworthy,Trustworthy","","5723","","","","","","<div class='header' style='text-align:left; position: absolute; top: 5%; left: 5%;'><small>Task 3 of 5</small></div><div class='instruxDiv'><p><strong>2) What is the maximum number of points you can choose to send to your partner?</strong></p><p>a) 8</p><p>b) 5</p><p>c) 3</p>","B","","","","","","","","","","",""
"html-keyboard-response","130","352932","0.0-12.0","58016c9f551314000145af58","bdp_trlrn","Fri Mar 10 2023 14:58:31 GMT-0500 (Eastern Standard Time)","787676","Untrustworthy,Trustworthy","","1327","","","","","","<div class='header' style='text-align:left; position: absolute; top: 5%; left: 5%;'><small>Task 3 of 5</small></div><div class='instruxDiv'><p><strong>2) What is the maximum number of points you can choose to send to your partner?</strong></p><p>a) 8</p><p style='color:#00FF00'>b) 5</p><p>c) 3</p><h3 style='color:#00FF00'>Correct!</h3><h3 class='center-content'>The correct response is b).</h3><h3 class='center-content'>The maximum number of points you can choose to send to your partner is 5 points.</h3><p><em>Press SPACEBAR to continue</em></p></div>"," ","","","","","","","","","","",""
"html-keyboard-response","131","356638","0.0-13.0","58016c9f551314000145af58","bdp_trlrn","Fri Mar 10 2023 14:58:31 GMT-0500 (Eastern Standard Time)","787676","Untrustworthy,Trustworthy","","3605","","","","","","<div class='header' style='text-align:left; position: absolute; top: 5%; left: 5%;'><small>Task 3 of 5</small></div><div class='instruxDiv'><p><strong>3) What happens to the amount of points you send to your partner?</strong></p><p>a) Nothing</p><p>b) It doubles</p><p>c) It quadruples</p>","C","","","","","","","","","","",""
"html-keyboard-response","132","358396","0.0-14.0","58016c9f551314000145af58","bdp_trlrn","Fri Mar 10 2023 14:58:31 GMT-0500 (Eastern Standard Time)","787676","Untrustworthy,Trustworthy","","1651","","","","","","<div class='header' style='text-align:left; position: absolute; top: 5%; left: 5%;'><small>Task 3 of 5</small></div><div class='instruxDiv'><p><strong>3) What happens to the amount of points you send to your partner?</strong></p><p>a) Nothing</p><p>b) It doubles</p><p style='color:#00FF00'>c) It quadruples</p><h3 style='color:#00FF00'>Correct!</h3><h3 class='center-content'>The correct response is c).</h3><h3 class='center-content'>The amount of points you send to your partner quadruples.</h3><p><em>Press SPACEBAR to continue</em></p></div>"," ","","","","","","","","","","",""
"html-keyboard-response","133","373728","0.0-15.0","58016c9f551314000145af58","bdp_trlrn","Fri Mar 10 2023 14:58:31 GMT-0500 (Eastern Standard Time)","787676","Untrustworthy,Trustworthy","","15223","","","","","","<div class='header' style='text-align:left; position: absolute; top: 5%; left: 5%;'><small>Task 3 of 5</small></div><div class='instruxDiv'><p><strong>4) If you decided to share 4 out of 5 points with your partner, and they decided to share half of the amount they received with you, how many points would you receive back from them on this round?</strong></p><p>a) 16</p><p>b) 0</p><p>c) 8</p>","C","","","","","","","","","","",""
"html-keyboard-response","134","378749","0.0-16.0","58016c9f551314000145af58","bdp_trlrn","Fri Mar 10 2023 14:58:31 GMT-0500 (Eastern Standard Time)","787676","Untrustworthy,Trustworthy","","4914","","","","","","<div class='header' style='text-align:left; position: absolute; top: 5%; left: 5%;'><small>Task 3 of 5</small></div><div class='instruxDiv'><p><strong>4) If you decided to share 4 out of 5 points with your partner, and they decided to share half of the amount they received with you, how many points would you receive back from them on this round?</strong></p><p>a) 16</p><p>b) 0</p><p style='color:#00FF00'>c) 8</p><h3 style='color:#00FF00'>Correct!</h3><h3 class='center-content'>The correct response is c).</h3><h3 class='center-content'>If you shared 4 out of 5 points with your partner and they decided to share half of the amount they received with you, you would receive 8 points back (i.e. (4 x 4)/2 = 8).</h3><p><em>Press SPACEBAR to continue</em></p></div>"," ","","","","","","","","","","",""
"html-keyboard-response","135","383859","0.0-17.0","58016c9f551314000145af58","bdp_trlrn","Fri Mar 10 2023 14:58:31 GMT-0500 (Eastern Standard Time)","787676","Untrustworthy,Trustworthy","","null","","","","","","<div class='header' style='text-align:left; position: absolute; top: 5%; left: 5%;'><small>Task 3 of 5</small></div><div class='instruxDiv'><p>Thank you for completing the quiz<p>These are the actual partners you will be interacting with in the next block:<p><div class='tc' align='center'><img class='introPic' src='trustrating_stim/white_00577_940928_fa_edt.bmp'><br><strong>Richard</strong></div><div class='bl' align='center'><img class='introPic' src='trustrating_stim/white_00129_931230_fb_edt.bmp'><br><strong>Jordan</strong></div><div class='br' align='center'><img class='introPic' src='trustrating_stim/white_00109_931230_fa_edt.bmp'><br><strong>Alex</strong></div></div><p>Across <strong>66 rounds</strong> you will interact with each partner <strong>22 times</strong> (in random order).<p style='align:center; color:white'><font <em>Press SPACEBAR to continue</em></p>","null","","","","","","","","","","",""
"instructions","136","389365","0.0-18.0","58016c9f551314000145af58","bdp_trlrn","Fri Mar 10 2023 14:58:31 GMT-0500 (Eastern Standard Time)","787676","Untrustworthy,Trustworthy","[{""page_index"":0,""viewing_time"":3188},{""page_index"":1,""viewing_time"":2317}]","5505","","","","","","","","","","","","","","","","","",""
"html-keyboard-response","137","394405","0.0-19.0-1.0","58016c9f551314000145af58","bdp_trlrn","Fri Mar 10 2023 14:58:31 GMT-0500 (Eastern Standard Time)","787676","Untrustworthy,Trustworthy","","4937","","","","decision","","<div class='trialDiv'><img src='trustrating_stim/white_00577_940928_fa_edt.bmp'><br><font class='baseline'><strong>Richard</strong><p>Choose number of points to send.</font><div class='respPicDiv'><img src='img/responseButtonOffersNo0L.png' class='respPic'></div></div>","1","1","Richard","0","Shared","0.8,0.35","10","0.8","trustrating_stim/white_00577_940928_fa_edt.bmp","3.5","5","1"
"html-keyboard-response","138","394659","0.0-19.0-2.0","58016c9f551314000145af58","bdp_trlrn","Fri Mar 10 2023 14:58:31 GMT-0500 (Eastern Standard Time)","787676","Untrustworthy,Trustworthy","","null","","","","decisionFB","","<div class='trialDiv'><img src='trustrating_stim/white_00577_940928_fa_edt.bmp'><br><font class='baseline'><strong>Richard</strong><p>Choose number of points to send.</font><div class='respPicDiv'><img src='img/responseButtonOffersNo0L1.png' class='respPic'></div></div>","null","1","Richard","0","Shared","0.8,0.35","10","0.8","trustrating_stim/white_00577_940928_fa_edt.bmp","3.5","4","1"
"html-keyboard-response","139","395666","0.0-19.0-3.0","58016c9f551314000145af58","bdp_trlrn","Fri Mar 10 2023 14:58:31 GMT-0500 (Eastern Standard Time)","787676","Untrustworthy,Trustworthy","","null","","","","feedback","","<div class='trialDiv'><img src='trustrating_stim/white_00577_940928_fa_edt.bmp'><br><font class='baseline'><strong>Richard</strong><p>Received: <strong>4</strong></font> &nbsp; &nbsp; &nbsp; &nbsp; &nbsp; &nbsp;<font class='posOutcome'>Shared back: <strong>2</strong></font></font><div class='respPicDiv'><img src='img/responseButtonOffersNo0_wht.png' class='respPic'></div></div>","null","1","Richard","0","Shared","0.8,0.35","10","0.8","trustrating_stim/white_00577_940928_fa_edt.bmp","3.5","6","1"
"html-keyboard-response","140","400031","0.0-19.0-1.1","58016c9f551314000145af58","bdp_trlrn","Fri Mar 10 2023 14:58:31 GMT-0500 (Eastern Standard Time)","787676","Untrustworthy,Trustworthy","","4364","","","","decision","","<div class='trialDiv'><img src='trustrating_stim/white_00109_931230_fa_edt.bmp'><br><font class='baseline'><strong>Alex</strong><p>Choose number of points to send.</font><div class='respPicDiv'><img src='img/responseButtonOffersNo0L.png' class='respPic'></div></div>","3","1","Alex","9","Shared","0.35,0.8","14","0.35","trustrating_stim/white_00109_931230_fa_edt.bmp","6","11","2"
"html-keyboard-response","141","400290","0.0-19.0-2.1","58016c9f551314000145af58","bdp_trlrn","Fri Mar 10 2023 14:58:31 GMT-0500 (Eastern Standard Time)","787676","Untrustworthy,Trustworthy","","null","","","","decisionFB","","<div class='trialDiv'><img src='trustrating_stim/white_00109_931230_fa_edt.bmp'><br><font class='baseline'><strong>Alex</strong><p>Choose number of points to send.</font><div class='respPicDiv'><img src='img/responseButtonOffersNo0L3.png' class='respPic'></div></div>","null","1","Alex","9","Shared","0.35,0.8","14","0.35","trustrating_stim/white_00109_931230_fa_edt.bmp","6","8","2"
"html-keyboard-response","142","401298","0.0-19.0-3.1","58016c9f551314000145af58","bdp_trlrn","Fri Mar 10 2023 14:58:31 GMT-0500 (Eastern Standard Time)","787676","Untrustworthy,Trustworthy","","null","","","","feedback","","<div class='trialDiv'><img src='trustrating_stim/white_00109_931230_fa_edt.bmp'><br><font class='baseline'><strong>Alex</strong><p>Received: <strong>12</strong></font> &nbsp; &nbsp; &nbsp; &nbsp; &nbsp; &nbsp;<font class='posOutcome'>Shared back: <strong>6</strong></font></font><div class='respPicDiv'><img src='img/responseButtonOffersNo0_wht.png' class='respPic'></div></div>","null","1","Alex","9","Shared","0.35,0.8","14","0.35","trustrating_stim/white_00109_931230_fa_edt.bmp","6","14","2"
"html-keyboard-response","143","405188","0.0-19.0-1.2","58016c9f551314000145af58","bdp_trlrn","Fri Mar 10 2023 14:58:31 GMT-0500 (Eastern Standard Time)","787676","Untrustworthy,Trustworthy","","3889","","","","decision","","<div class='trialDiv'><img src='trustrating_stim/white_00129_931230_fb_edt.bmp'><br><font class='baseline'><strong>Jordan</strong><p>Choose number of points to send.</font><div class='respPicDiv'><img src='img/responseButtonOffersNo0L.png' class='respPic'></div></div>","2","1","Jordan","6","Kept","0.2,0.8","8","0.2","trustrating_stim/white_00129_931230_fb_edt.bmp","5","19","3"
"html-keyboard-response","144","405442","0.0-19.0-2.2","58016c9f551314000145af58","bdp_trlrn","Fri Mar 10 2023 14:58:31 GMT-0500 (Eastern Standard Time)","787676","Untrustworthy,Trustworthy","","null","","","","decisionFB","","<div class='trialDiv'><img src='trustrating_stim/white_00129_931230_fb_edt.bmp'><br><font class='baseline'><strong>Jordan</strong><p>Choose number of points to send.</font><div class='respPicDiv'><img src='img/responseButtonOffersNo0L2.png' class='respPic'></div></div>","null","1","Jordan","6","Kept","0.2,0.8","8","0.2","trustrating_stim/white_00129_931230_fb_edt.bmp","5","17","3"
"html-keyboard-response","145","406450","0.0-19.0-3.2","58016c9f551314000145af58","bdp_trlrn","Fri Mar 10 2023 14:58:31 GMT-0500 (Eastern Standard Time)","787676","Untrustworthy,Trustworthy","","null","","","","feedback","","<div class='trialDiv'><img src='trustrating_stim/white_00129_931230_fb_edt.bmp'><br><font class='baseline'><strong>Jordan</strong><p>Received: <strong>8</strong></font> &nbsp; &nbsp; &nbsp; &nbsp; &nbsp; &nbsp;<font class='negOutcome'>Shared back: <strong>0</strong></font></font><div class='respPicDiv'><img src='img/responseButtonOffersNo0_wht.png' class='respPic'></div></div>","null","1","Jordan","6","Kept","0.2,0.8","8","0.2","trustrating_stim/white_00129_931230_fb_edt.bmp","5","17","3"
"html-keyboard-response","146","408945","0.0-19.0-1.3","58016c9f551314000145af58","bdp_trlrn","Fri Mar 10 2023 14:58:31 GMT-0500 (Eastern Standard Time)","787676","Untrustworthy,Trustworthy","","2494","","","","decision","","<div class='trialDiv'><img src='trustrating_stim/white_00109_931230_fa_edt.bmp'><br><font class='baseline'><strong>Alex</strong><p>Choose number of points to send.</font><div class='respPicDiv'><img src='img/responseButtonOffersNo0L.png' class='respPic'></div></div>","4","2","Alex","9","Shared","0.35,0.8","14","0.35","trustrating_stim/white_00109_931230_fa_edt.bmp","6","22","4"
"html-keyboard-response","147","409202","0.0-19.0-2.3","58016c9f551314000145af58","bdp_trlrn","Fri Mar 10 2023 14:58:31 GMT-0500 (Eastern Standard Time)","787676","Untrustworthy,Trustworthy","","null","","","","decisionFB","","<div class='trialDiv'><img src='trustrating_stim/white_00109_931230_fa_edt.bmp'><br><font class='baseline'><strong>Alex</strong><p>Choose number of points to send.</font><div class='respPicDiv'><img src='img/responseButtonOffersNo0L4.png' class='respPic'></div></div>","null","2","Alex","9","Shared","0.35,0.8","14","0.35","trustrating_stim/white_00109_931230_fa_edt.bmp","6","18","4"
"html-keyboard-response","148","410210","0.0-19.0-3.3","58016c9f551314000145af58","bdp_trlrn","Fri Mar 10 2023 14:58:31 GMT-0500 (Eastern Standard Time)","787676","Untrustworthy,Trustworthy","","null","","","","feedback","","<div class='trialDiv'><img src='trustrating_stim/white_00109_931230_fa_edt.bmp'><br><font class='baseline'><strong>Alex</strong><p>Received: <strong>16</strong></font> &nbsp; &nbsp; &nbsp; &nbsp; &nbsp; &nbsp;<font class='posOutcome'>Shared back: <strong>8</strong></font></font><div class='respPicDiv'><img src='img/responseButtonOffersNo0_wht.png' class='respPic'></div></div>","null","2","Alex","9","Shared","0.35,0.8","14","0.35","trustrating_stim/white_00109_931230_fa_edt.bmp","6","26","4"
"html-keyboard-response","149","412279","0.0-19.0-1.4","58016c9f551314000145af58","bdp_trlrn","Fri Mar 10 2023 14:58:31 GMT-0500 (Eastern Standard Time)","787676","Untrustworthy,Trustworthy","","2067","","","","decision","","<div class='trialDiv'><img src='trustrating_stim/white_00577_940928_fa_edt.bmp'><br><font class='baseline'><strong>Richard</strong><p>Choose number of points to send.</font><div class='respPicDiv'><img src='img/responseButtonOffersNo0L.png' class='respPic'></div></div>","2","2","Richard","0","Shared","0.8,0.35","10","0.8","trustrating_stim/white_00577_940928_fa_edt.bmp","3.5","31","5"
"html-keyboard-response","150","412538","0.0-19.0-2.4","58016c9f551314000145af58","bdp_trlrn","Fri Mar 10 2023 14:58:31 GMT-0500 (Eastern Standard Time)","787676","Untrustworthy,Trustworthy","","null","","","","decisionFB","","<div class='trialDiv'><img src='trustrating_stim/white_00577_940928_fa_edt.bmp'><br><font class='baseline'><strong>Richard</strong><p>Choose number of points to send.</font><div class='respPicDiv'><img src='img/responseButtonOffersNo0L2.png' class='respPic'></div></div>","null","2","Richard","0","Shared","0.8,0.35","10","0.8","trustrating_stim/white_00577_940928_fa_edt.bmp","3.5","29","5"
"html-keyboard-response","151","413546","0.0-19.0-3.4","58016c9f551314000145af58","bdp_trlrn","Fri Mar 10 2023 14:58:31 GMT-0500 (Eastern Standard Time)","787676","Untrustworthy,Trustworthy","","null","","","","feedback","","<div class='trialDiv'><img src='trustrating_stim/white_00577_940928_fa_edt.bmp'><br><font class='baseline'><strong>Richard</strong><p>Received: <strong>8</strong></font> &nbsp; &nbsp; &nbsp; &nbsp; &nbsp; &nbsp;<font class='posOutcome'>Shared back: <strong>4</strong></font></font><div class='respPicDiv'><img src='img/responseButtonOffersNo0_wht.png' class='respPic'></div></div>","null","2","Richard","0","Shared","0.8,0.35","10","0.8","trustrating_stim/white_00577_940928_fa_edt.bmp","3.5","33","5"
"html-keyboard-response","152","417092","0.0-19.0-1.5","58016c9f551314000145af58","bdp_trlrn","Fri Mar 10 2023 14:58:31 GMT-0500 (Eastern Standard Time)","787676","Untrustworthy,Trustworthy","","3545","","","","decision","","<div class='trialDiv'><img src='trustrating_stim/white_00129_931230_fb_edt.bmp'><br><font class='baseline'><strong>Jordan</strong><p>Choose number of points to send.</font><div class='respPicDiv'><img src='img/responseButtonOffersNo0L.png' class='respPic'></div></div>","3","2","Jordan","6","Kept","0.2,0.8","8","0.2","trustrating_stim/white_00129_931230_fb_edt.bmp","5","38","6"
"html-keyboard-response","153","417347","0.0-19.0-2.5","58016c9f551314000145af58","bdp_trlrn","Fri Mar 10 2023 14:58:31 GMT-0500 (Eastern Standard Time)","787676","Untrustworthy,Trustworthy","","null","","","","decisionFB","","<div class='trialDiv'><img src='trustrating_stim/white_00129_931230_fb_edt.bmp'><br><font class='baseline'><strong>Jordan</strong><p>Choose number of points to send.</font><div class='respPicDiv'><img src='img/responseButtonOffersNo0L3.png' class='respPic'></div></div>","null","2","Jordan","6","Kept","0.2,0.8","8","0.2","trustrating_stim/white_00129_931230_fb_edt.bmp","5","35","6"
"html-keyboard-response","154","418355","0.0-19.0-3.5","58016c9f551314000145af58","bdp_trlrn","Fri Mar 10 2023 14:58:31 GMT-0500 (Eastern Standard Time)","787676","Untrustworthy,Trustworthy","","null","","","","feedback","","<div class='trialDiv'><img src='trustrating_stim/white_00129_931230_fb_edt.bmp'><br><font class='baseline'><strong>Jordan</strong><p>Received: <strong>12</strong></font> &nbsp; &nbsp; &nbsp; &nbsp; &nbsp; &nbsp;<font class='negOutcome'>Shared back: <strong>0</strong></font></font><div class='respPicDiv'><img src='img/responseButtonOffersNo0_wht.png' class='respPic'></div></div>","null","2","Jordan","6","Kept","0.2,0.8","8","0.2","trustrating_stim/white_00129_931230_fb_edt.bmp","5","35","6"
"html-keyboard-response","155","420644","0.0-19.0-1.6","58016c9f551314000145af58","bdp_trlrn","Fri Mar 10 2023 14:58:31 GMT-0500 (Eastern Standard Time)","787676","Untrustworthy,Trustworthy","","2288","","","","decision","","<div class='trialDiv'><img src='trustrating_stim/white_00577_940928_fa_edt.bmp'><br><font class='baseline'><strong>Richard</strong><p>Choose number of points to send.</font><div class='respPicDiv'><img src='img/responseButtonOffersNo0L.png' class='respPic'></div></div>","3","3","Richard","0","Shared","0.8,0.35","10","0.8","trustrating_stim/white_00577_940928_fa_edt.bmp","3.5","40","7"
"html-keyboard-response","156","420900","0.0-19.0-2.6","58016c9f551314000145af58","bdp_trlrn","Fri Mar 10 2023 14:58:31 GMT-0500 (Eastern Standard Time)","787676","Untrustworthy,Trustworthy","","null","","","","decisionFB","","<div class='trialDiv'><img src='trustrating_stim/white_00577_940928_fa_edt.bmp'><br><font class='baseline'><strong>Richard</strong><p>Choose number of points to send.</font><div class='respPicDiv'><img src='img/responseButtonOffersNo0L3.png' class='respPic'></div></div>","null","3","Richard","0","Shared","0.8,0.35","10","0.8","trustrating_stim/white_00577_940928_fa_edt.bmp","3.5","37","7"
"html-keyboard-response","157","421907","0.0-19.0-3.6","58016c9f551314000145af58","bdp_trlrn","Fri Mar 10 2023 14:58:31 GMT-0500 (Eastern Standard Time)","787676","Untrustworthy,Trustworthy","","null","","","","feedback","","<div class='trialDiv'><img src='trustrating_stim/white_00577_940928_fa_edt.bmp'><br><font class='baseline'><strong>Richard</strong><p>Received: <strong>12</strong></font> &nbsp; &nbsp; &nbsp; &nbsp; &nbsp; &nbsp;<font class='posOutcome'>Shared back: <strong>6</strong></font></font><div class='respPicDiv'><img src='img/responseButtonOffersNo0_wht.png' class='respPic'></div></div>","null","3","Richard","0","Shared","0.8,0.35","10","0.8","trustrating_stim/white_00577_940928_fa_edt.bmp","3.5","43","7"
"html-keyboard-response","158","423832","0.0-19.0-1.7","58016c9f551314000145af58","bdp_trlrn","Fri Mar 10 2023 14:58:31 GMT-0500 (Eastern Standard Time)","787676","Untrustworthy,Trustworthy","","1924","","","","decision","","<div class='trialDiv'><img src='trustrating_stim/white_00129_931230_fb_edt.bmp'><br><font class='baseline'><strong>Jordan</strong><p>Choose number of points to send.</font><div class='respPicDiv'><img src='img/responseButtonOffersNo0L.png' class='respPic'></div></div>","1","3","Jordan","6","Kept","0.2,0.8","8","0.2","trustrating_stim/white_00129_931230_fb_edt.bmp","5","48","8"
"html-keyboard-response","159","424084","0.0-19.0-2.7","58016c9f551314000145af58","bdp_trlrn","Fri Mar 10 2023 14:58:31 GMT-0500 (Eastern Standard Time)","787676","Untrustworthy,Trustworthy","","null","","","","decisionFB","","<div class='trialDiv'><img src='trustrating_stim/white_00129_931230_fb_edt.bmp'><br><font class='baseline'><strong>Jordan</strong><p>Choose number of points to send.</font><div class='respPicDiv'><img src='img/responseButtonOffersNo0L1.png' class='respPic'></div></div>","null","3","Jordan","6","Kept","0.2,0.8","8","0.2","trustrating_stim/white_00129_931230_fb_edt.bmp","5","47","8"
"html-keyboard-response","160","425092","0.0-19.0-3.7","58016c9f551314000145af58","bdp_trlrn","Fri Mar 10 2023 14:58:31 GMT-0500 (Eastern Standard Time)","787676","Untrustworthy,Trustworthy","","null","","","","feedback","","<div class='trialDiv'><img src='trustrating_stim/white_00129_931230_fb_edt.bmp'><br><font class='baseline'><strong>Jordan</strong><p>Received: <strong>4</strong></font> &nbsp; &nbsp; &nbsp; &nbsp; &nbsp; &nbsp;<font class='negOutcome'>Shared back: <strong>0</strong></font></font><div class='respPicDiv'><img src='img/responseButtonOffersNo0_wht.png' class='respPic'></div></div>","null","3","Jordan","6","Kept","0.2,0.8","8","0.2","trustrating_stim/white_00129_931230_fb_edt.bmp","5","47","8"
"html-keyboard-response","161","426885","0.0-19.0-1.8","58016c9f551314000145af58","bdp_trlrn","Fri Mar 10 2023 14:58:31 GMT-0500 (Eastern Standard Time)","787676","Untrustworthy,Trustworthy","","1792","","","","decision","","<div class='trialDiv'><img src='trustrating_stim/white_00109_931230_fa_edt.bmp'><br><font class='baseline'><strong>Alex</strong><p>Choose number of points to send.</font><div class='respPicDiv'><img src='img/responseButtonOffersNo0L.png' class='respPic'></div></div>","5","3","Alex","9","Shared","0.35,0.8","14","0.35","trustrating_stim/white_00109_931230_fa_edt.bmp","6","52","9"
"html-keyboard-response","162","427140","0.0-19.0-2.8","58016c9f551314000145af58","bdp_trlrn","Fri Mar 10 2023 14:58:31 GMT-0500 (Eastern Standard Time)","787676","Untrustworthy,Trustworthy","","null","","","","decisionFB","","<div class='trialDiv'><img src='trustrating_stim/white_00109_931230_fa_edt.bmp'><br><font class='baseline'><strong>Alex</strong><p>Choose number of points to send.</font><div class='respPicDiv'><img src='img/responseButtonOffersNo0L5.png' class='respPic'></div></div>","null","3","Alex","9","Shared","0.35,0.8","14","0.35","trustrating_stim/white_00109_931230_fa_edt.bmp","6","47","9"
"html-keyboard-response","163","428148","0.0-19.0-3.8","58016c9f551314000145af58","bdp_trlrn","Fri Mar 10 2023 14:58:31 GMT-0500 (Eastern Standard Time)","787676","Untrustworthy,Trustworthy","","null","","","","feedback","","<div class='trialDiv'><img src='trustrating_stim/white_00109_931230_fa_edt.bmp'><br><font class='baseline'><strong>Alex</strong><p>Received: <strong>20</strong></font> &nbsp; &nbsp; &nbsp; &nbsp; &nbsp; &nbsp;<font class='posOutcome'>Shared back: <strong>10</strong></font></font><div class='respPicDiv'><img src='img/responseButtonOffersNo0_wht.png' class='respPic'></div></div>","null","3","Alex","9","Shared","0.35,0.8","14","0.35","trustrating_stim/white_00109_931230_fa_edt.bmp","6","57","9"
"html-keyboard-response","164","429589","0.0-19.0-1.9","58016c9f551314000145af58","bdp_trlrn","Fri Mar 10 2023 14:58:31 GMT-0500 (Eastern Standard Time)","787676","Untrustworthy,Trustworthy","","1440","","","","decision","","<div class='trialDiv'><img src='trustrating_stim/white_00577_940928_fa_edt.bmp'><br><font class='baseline'><strong>Richard</strong><p>Choose number of points to send.</font><div class='respPicDiv'><img src='img/responseButtonOffersNo0L.png' class='respPic'></div></div>","5","4","Richard","0","Shared","0.8,0.35","10","0.8","trustrating_stim/white_00577_940928_fa_edt.bmp","3.5","62","10"
"html-keyboard-response","165","429844","0.0-19.0-2.9","58016c9f551314000145af58","bdp_trlrn","Fri Mar 10 2023 14:58:31 GMT-0500 (Eastern Standard Time)","787676","Untrustworthy,Trustworthy","","null","","","","decisionFB","","<div class='trialDiv'><img src='trustrating_stim/white_00577_940928_fa_edt.bmp'><br><font class='baseline'><strong>Richard</strong><p>Choose number of points to send.</font><div class='respPicDiv'><img src='img/responseButtonOffersNo0L5.png' class='respPic'></div></div>","null","4","Richard","0","Shared","0.8,0.35","10","0.8","trustrating_stim/white_00577_940928_fa_edt.bmp","3.5","57","10"
"html-keyboard-response","166","430852","0.0-19.0-3.9","58016c9f551314000145af58","bdp_trlrn","Fri Mar 10 2023 14:58:31 GMT-0500 (Eastern Standard Time)","787676","Untrustworthy,Trustworthy","","null","","","","feedback","","<div class='trialDiv'><img src='trustrating_stim/white_00577_940928_fa_edt.bmp'><br><font class='baseline'><strong>Richard</strong><p>Received: <strong>20</strong></font> &nbsp; &nbsp; &nbsp; &nbsp; &nbsp; &nbsp;<font class='posOutcome'>Shared back: <strong>10</strong></font></font><div class='respPicDiv'><img src='img/responseButtonOffersNo0_wht.png' class='respPic'></div></div>","null","4","Richard","0","Shared","0.8,0.35","10","0.8","trustrating_stim/white_00577_940928_fa_edt.bmp","3.5","67","10"
"html-keyboard-response","167","431493","0.0-19.0-1.10","58016c9f551314000145af58","bdp_trlrn","Fri Mar 10 2023 14:58:31 GMT-0500 (Eastern Standard Time)","787676","Untrustworthy,Trustworthy","","639","","","","decision","","<div class='trialDiv'><img src='trustrating_stim/white_00129_931230_fb_edt.bmp'><br><font class='baseline'><strong>Jordan</strong><p>Choose number of points to send.</font><div class='respPicDiv'><img src='img/responseButtonOffersNo0L.png' class='respPic'></div></div>","1","4","Jordan","6","Kept","0.2,0.8","8","0.2","trustrating_stim/white_00129_931230_fb_edt.bmp","5","72","11"
"html-keyboard-response","168","431748","0.0-19.0-2.10","58016c9f551314000145af58","bdp_trlrn","Fri Mar 10 2023 14:58:31 GMT-0500 (Eastern Standard Time)","787676","Untrustworthy,Trustworthy","","null","","","","decisionFB","","<div class='trialDiv'><img src='trustrating_stim/white_00129_931230_fb_edt.bmp'><br><font class='baseline'><strong>Jordan</strong><p>Choose number of points to send.</font><div class='respPicDiv'><img src='img/responseButtonOffersNo0L1.png' class='respPic'></div></div>","null","4","Jordan","6","Kept","0.2,0.8","8","0.2","trustrating_stim/white_00129_931230_fb_edt.bmp","5","71","11"
"html-keyboard-response","169","432756","0.0-19.0-3.10","58016c9f551314000145af58","bdp_trlrn","Fri Mar 10 2023 14:58:31 GMT-0500 (Eastern Standard Time)","787676","Untrustworthy,Trustworthy","","null","","","","feedback","","<div class='trialDiv'><img src='trustrating_stim/white_00129_931230_fb_edt.bmp'><br><font class='baseline'><strong>Jordan</strong><p>Received: <strong>4</strong></font> &nbsp; &nbsp; &nbsp; &nbsp; &nbsp; &nbsp;<font class='negOutcome'>Shared back: <strong>0</strong></font></font><div class='respPicDiv'><img src='img/responseButtonOffersNo0_wht.png' class='respPic'></div></div>","null","4","Jordan","6","Kept","0.2,0.8","8","0.2","trustrating_stim/white_00129_931230_fb_edt.bmp","5","71","11"
"html-keyboard-response","170","434240","0.0-19.0-1.11","58016c9f551314000145af58","bdp_trlrn","Fri Mar 10 2023 14:58:31 GMT-0500 (Eastern Standard Time)","787676","Untrustworthy,Trustworthy","","1483","","","","decision","","<div class='trialDiv'><img src='trustrating_stim/white_00109_931230_fa_edt.bmp'><br><font class='baseline'><strong>Alex</strong><p>Choose number of points to send.</font><div class='respPicDiv'><img src='img/responseButtonOffersNo0L.png' class='respPic'></div></div>","5","4","Alex","9","Shared","0.35,0.8","14","0.35","trustrating_stim/white_00109_931230_fa_edt.bmp","6","76","12"
"html-keyboard-response","171","434500","0.0-19.0-2.11","58016c9f551314000145af58","bdp_trlrn","Fri Mar 10 2023 14:58:31 GMT-0500 (Eastern Standard Time)","787676","Untrustworthy,Trustworthy","","null","","","","decisionFB","","<div class='trialDiv'><img src='trustrating_stim/white_00109_931230_fa_edt.bmp'><br><font class='baseline'><strong>Alex</strong><p>Choose number of points to send.</font><div class='respPicDiv'><img src='img/responseButtonOffersNo0L5.png' class='respPic'></div></div>","null","4","Alex","9","Shared","0.35,0.8","14","0.35","trustrating_stim/white_00109_931230_fa_edt.bmp","6","71","12"
"html-keyboard-response","172","435508","0.0-19.0-3.11","58016c9f551314000145af58","bdp_trlrn","Fri Mar 10 2023 14:58:31 GMT-0500 (Eastern Standard Time)","787676","Untrustworthy,Trustworthy","","null","","","","feedback","","<div class='trialDiv'><img src='trustrating_stim/white_00109_931230_fa_edt.bmp'><br><font class='baseline'><strong>Alex</strong><p>Received: <strong>20</strong></font> &nbsp; &nbsp; &nbsp; &nbsp; &nbsp; &nbsp;<font class='posOutcome'>Shared back: <strong>10</strong></font></font><div class='respPicDiv'><img src='img/responseButtonOffersNo0_wht.png' class='respPic'></div></div>","null","4","Alex","9","Shared","0.35,0.8","14","0.35","trustrating_stim/white_00109_931230_fa_edt.bmp","6","81","12"
"html-keyboard-response","173","436702","0.0-19.0-1.12","58016c9f551314000145af58","bdp_trlrn","Fri Mar 10 2023 14:58:31 GMT-0500 (Eastern Standard Time)","787676","Untrustworthy,Trustworthy","","1192","","","","decision","","<div class='trialDiv'><img src='trustrating_stim/white_00577_940928_fa_edt.bmp'><br><font class='baseline'><strong>Richard</strong><p>Choose number of points to send.</font><div class='respPicDiv'><img src='img/responseButtonOffersNo0L.png' class='respPic'></div></div>","5","5","Richard","0","Shared","0.8,0.35","10","0.8","trustrating_stim/white_00577_940928_fa_edt.bmp","3.5","86","13"
"html-keyboard-response","174","436956","0.0-19.0-2.12","58016c9f551314000145af58","bdp_trlrn","Fri Mar 10 2023 14:58:31 GMT-0500 (Eastern Standard Time)","787676","Untrustworthy,Trustworthy","","null","","","","decisionFB","","<div class='trialDiv'><img src='trustrating_stim/white_00577_940928_fa_edt.bmp'><br><font class='baseline'><strong>Richard</strong><p>Choose number of points to send.</font><div class='respPicDiv'><img src='img/responseButtonOffersNo0L5.png' class='respPic'></div></div>","null","5","Richard","0","Shared","0.8,0.35","10","0.8","trustrating_stim/white_00577_940928_fa_edt.bmp","3.5","81","13"
"html-keyboard-response","175","437964","0.0-19.0-3.12","58016c9f551314000145af58","bdp_trlrn","Fri Mar 10 2023 14:58:31 GMT-0500 (Eastern Standard Time)","787676","Untrustworthy,Trustworthy","","null","","","","feedback","","<div class='trialDiv'><img src='trustrating_stim/white_00577_940928_fa_edt.bmp'><br><font class='baseline'><strong>Richard</strong><p>Received: <strong>20</strong></font> &nbsp; &nbsp; &nbsp; &nbsp; &nbsp; &nbsp;<font class='posOutcome'>Shared back: <strong>10</strong></font></font><div class='respPicDiv'><img src='img/responseButtonOffersNo0_wht.png' class='respPic'></div></div>","null","5","Richard","0","Shared","0.8,0.35","10","0.8","trustrating_stim/white_00577_940928_fa_edt.bmp","3.5","91","13"
"html-keyboard-response","176","438663","0.0-19.0-1.13","58016c9f551314000145af58","bdp_trlrn","Fri Mar 10 2023 14:58:31 GMT-0500 (Eastern Standard Time)","787676","Untrustworthy,Trustworthy","","697","","","","decision","","<div class='trialDiv'><img src='trustrating_stim/white_00129_931230_fb_edt.bmp'><br><font class='baseline'><strong>Jordan</strong><p>Choose number of points to send.</font><div class='respPicDiv'><img src='img/responseButtonOffersNo0L.png' class='respPic'></div></div>","1","5","Jordan","6","Kept","0.2,0.8","8","0.2","trustrating_stim/white_00129_931230_fb_edt.bmp","5","96","14"
"html-keyboard-response","177","438915","0.0-19.0-2.13","58016c9f551314000145af58","bdp_trlrn","Fri Mar 10 2023 14:58:31 GMT-0500 (Eastern Standard Time)","787676","Untrustworthy,Trustworthy","","null","","","","decisionFB","","<div class='trialDiv'><img src='trustrating_stim/white_00129_931230_fb_edt.bmp'><br><font class='baseline'><strong>Jordan</strong><p>Choose number of points to send.</font><div class='respPicDiv'><img src='img/responseButtonOffersNo0L1.png' class='respPic'></div></div>","null","5","Jordan","6","Kept","0.2,0.8","8","0.2","trustrating_stim/white_00129_931230_fb_edt.bmp","5","95","14"
"html-keyboard-response","178","439924","0.0-19.0-3.13","58016c9f551314000145af58","bdp_trlrn","Fri Mar 10 2023 14:58:31 GMT-0500 (Eastern Standard Time)","787676","Untrustworthy,Trustworthy","","null","","","","feedback","","<div class='trialDiv'><img src='trustrating_stim/white_00129_931230_fb_edt.bmp'><br><font class='baseline'><strong>Jordan</strong><p>Received: <strong>4</strong></font> &nbsp; &nbsp; &nbsp; &nbsp; &nbsp; &nbsp;<font class='negOutcome'>Shared back: <strong>0</strong></font></font><div class='respPicDiv'><img src='img/responseButtonOffersNo0_wht.png' class='respPic'></div></div>","null","5","Jordan","6","Kept","0.2,0.8","8","0.2","trustrating_stim/white_00129_931230_fb_edt.bmp","5","95","14"
"html-keyboard-response","179","440989","0.0-19.0-1.14","58016c9f551314000145af58","bdp_trlrn","Fri Mar 10 2023 14:58:31 GMT-0500 (Eastern Standard Time)","787676","Untrustworthy,Trustworthy","","1064","","","","decision","","<div class='trialDiv'><img src='trustrating_stim/white_00109_931230_fa_edt.bmp'><br><font class='baseline'><strong>Alex</strong><p>Choose number of points to send.</font><div class='respPicDiv'><img src='img/responseButtonOffersNo0L.png' class='respPic'></div></div>","5","5","Alex","9","Kept","0.35,0.8","14","0.35","trustrating_stim/white_00109_931230_fa_edt.bmp","6","100","15"
"html-keyboard-response","180","441243","0.0-19.0-2.14","58016c9f551314000145af58","bdp_trlrn","Fri Mar 10 2023 14:58:31 GMT-0500 (Eastern Standard Time)","787676","Untrustworthy,Trustworthy","","null","","","","decisionFB","","<div class='trialDiv'><img src='trustrating_stim/white_00109_931230_fa_edt.bmp'><br><font class='baseline'><strong>Alex</strong><p>Choose number of points to send.</font><div class='respPicDiv'><img src='img/responseButtonOffersNo0L5.png' class='respPic'></div></div>","null","5","Alex","9","Kept","0.35,0.8","14","0.35","trustrating_stim/white_00109_931230_fa_edt.bmp","6","95","15"
"html-keyboard-response","181","442252","0.0-19.0-3.14","58016c9f551314000145af58","bdp_trlrn","Fri Mar 10 2023 14:58:31 GMT-0500 (Eastern Standard Time)","787676","Untrustworthy,Trustworthy","","null","","","","feedback","","<div class='trialDiv'><img src='trustrating_stim/white_00109_931230_fa_edt.bmp'><br><font class='baseline'><strong>Alex</strong><p>Received: <strong>20</strong></font> &nbsp; &nbsp; &nbsp; &nbsp; &nbsp; &nbsp;<font class='negOutcome'>Shared back: <strong>0</strong></font></font><div class='respPicDiv'><img src='img/responseButtonOffersNo0_wht.png' class='respPic'></div></div>","null","5","Alex","9","Kept","0.35,0.8","14","0.35","trustrating_stim/white_00109_931230_fa_edt.bmp","6","95","15"
"html-keyboard-response","182","444791","0.0-19.0-1.15","58016c9f551314000145af58","bdp_trlrn","Fri Mar 10 2023 14:58:31 GMT-0500 (Eastern Standard Time)","787676","Untrustworthy,Trustworthy","","2538","","","","decision","","<div class='trialDiv'><img src='trustrating_stim/white_00129_931230_fb_edt.bmp'><br><font class='baseline'><strong>Jordan</strong><p>Choose number of points to send.</font><div class='respPicDiv'><img src='img/responseButtonOffersNo0L.png' class='respPic'></div></div>","3","6","Jordan","6","Shared","0.2,0.8","8","0.2","trustrating_stim/white_00129_931230_fb_edt.bmp","5","100","16"
"html-keyboard-response","183","445043","0.0-19.0-2.15","58016c9f551314000145af58","bdp_trlrn","Fri Mar 10 2023 14:58:31 GMT-0500 (Eastern Standard Time)","787676","Untrustworthy,Trustworthy","","null","","","","decisionFB","","<div class='trialDiv'><img src='trustrating_stim/white_00129_931230_fb_edt.bmp'><br><font class='baseline'><strong>Jordan</strong><p>Choose number of points to send.</font><div class='respPicDiv'><img src='img/responseButtonOffersNo0L3.png' class='respPic'></div></div>","null","6","Jordan","6","Shared","0.2,0.8","8","0.2","trustrating_stim/white_00129_931230_fb_edt.bmp","5","97","16"
"html-keyboard-response","184","446052","0.0-19.0-3.15","58016c9f551314000145af58","bdp_trlrn","Fri Mar 10 2023 14:58:31 GMT-0500 (Eastern Standard Time)","787676","Untrustworthy,Trustworthy","","null","","","","feedback","","<div class='trialDiv'><img src='trustrating_stim/white_00129_931230_fb_edt.bmp'><br><font class='baseline'><strong>Jordan</strong><p>Received: <strong>12</strong></font> &nbsp; &nbsp; &nbsp; &nbsp; &nbsp; &nbsp;<font class='posOutcome'>Shared back: <strong>6</strong></font></font><div class='respPicDiv'><img src='img/responseButtonOffersNo0_wht.png' class='respPic'></div></div>","null","6","Jordan","6","Shared","0.2,0.8","8","0.2","trustrating_stim/white_00129_931230_fb_edt.bmp","5","103","16"
"html-keyboard-response","185","447589","0.0-19.0-1.16","58016c9f551314000145af58","bdp_trlrn","Fri Mar 10 2023 14:58:31 GMT-0500 (Eastern Standard Time)","787676","Untrustworthy,Trustworthy","","1533","","","","decision","","<div class='trialDiv'><img src='trustrating_stim/white_00577_940928_fa_edt.bmp'><br><font class='baseline'><strong>Richard</strong><p>Choose number of points to send.</font><div class='respPicDiv'><img src='img/responseButtonOffersNo0L.png' class='respPic'></div></div>","3","6","Richard","0","Kept","0.8,0.35","10","0.8","trustrating_stim/white_00577_940928_fa_edt.bmp","3.5","108","17"
"html-keyboard-response","186","447843","0.0-19.0-2.16","58016c9f551314000145af58","bdp_trlrn","Fri Mar 10 2023 14:58:31 GMT-0500 (Eastern Standard Time)","787676","Untrustworthy,Trustworthy","","null","","","","decisionFB","","<div class='trialDiv'><img src='trustrating_stim/white_00577_940928_fa_edt.bmp'><br><font class='baseline'><strong>Richard</strong><p>Choose number of points to send.</font><div class='respPicDiv'><img src='img/responseButtonOffersNo0L3.png' class='respPic'></div></div>","null","6","Richard","0","Kept","0.8,0.35","10","0.8","trustrating_stim/white_00577_940928_fa_edt.bmp","3.5","105","17"
"html-keyboard-response","187","448852","0.0-19.0-3.16","58016c9f551314000145af58","bdp_trlrn","Fri Mar 10 2023 14:58:31 GMT-0500 (Eastern Standard Time)","787676","Untrustworthy,Trustworthy","","null","","","","feedback","","<div class='trialDiv'><img src='trustrating_stim/white_00577_940928_fa_edt.bmp'><br><font class='baseline'><strong>Richard</strong><p>Received: <strong>12</strong></font> &nbsp; &nbsp; &nbsp; &nbsp; &nbsp; &nbsp;<font class='negOutcome'>Shared back: <strong>0</strong></font></font><div class='respPicDiv'><img src='img/responseButtonOffersNo0_wht.png' class='respPic'></div></div>","null","6","Richard","0","Kept","0.8,0.35","10","0.8","trustrating_stim/white_00577_940928_fa_edt.bmp","3.5","105","17"
"html-keyboard-response","188","452061","0.0-19.0-1.17","58016c9f551314000145af58","bdp_trlrn","Fri Mar 10 2023 14:58:31 GMT-0500 (Eastern Standard Time)","787676","Untrustworthy,Trustworthy","","3208","","","","decision","","<div class='trialDiv'><img src='trustrating_stim/white_00109_931230_fa_edt.bmp'><br><font class='baseline'><strong>Alex</strong><p>Choose number of points to send.</font><div class='respPicDiv'><img src='img/responseButtonOffersNo0L.png' class='respPic'></div></div>","4","6","Alex","9","Shared","0.35,0.8","14","0.35","trustrating_stim/white_00109_931230_fa_edt.bmp","6","110","18"
"html-keyboard-response","189","452315","0.0-19.0-2.17","58016c9f551314000145af58","bdp_trlrn","Fri Mar 10 2023 14:58:31 GMT-0500 (Eastern Standard Time)","787676","Untrustworthy,Trustworthy","","null","","","","decisionFB","","<div class='trialDiv'><img src='trustrating_stim/white_00109_931230_fa_edt.bmp'><br><font class='baseline'><strong>Alex</strong><p>Choose number of points to send.</font><div class='respPicDiv'><img src='img/responseButtonOffersNo0L4.png' class='respPic'></div></div>","null","6","Alex","9","Shared","0.35,0.8","14","0.35","trustrating_stim/white_00109_931230_fa_edt.bmp","6","106","18"
"html-keyboard-response","190","453323","0.0-19.0-3.17","58016c9f551314000145af58","bdp_trlrn","Fri Mar 10 2023 14:58:31 GMT-0500 (Eastern Standard Time)","787676","Untrustworthy,Trustworthy","","null","","","","feedback","","<div class='trialDiv'><img src='trustrating_stim/white_00109_931230_fa_edt.bmp'><br><font class='baseline'><strong>Alex</strong><p>Received: <strong>16</strong></font> &nbsp; &nbsp; &nbsp; &nbsp; &nbsp; &nbsp;<font class='posOutcome'>Shared back: <strong>8</strong></font></font><div class='respPicDiv'><img src='img/responseButtonOffersNo0_wht.png' class='respPic'></div></div>","null","6","Alex","9","Shared","0.35,0.8","14","0.35","trustrating_stim/white_00109_931230_fa_edt.bmp","6","114","18"
"html-keyboard-response","191","454541","0.0-19.0-1.18","58016c9f551314000145af58","bdp_trlrn","Fri Mar 10 2023 14:58:31 GMT-0500 (Eastern Standard Time)","787676","Untrustworthy,Trustworthy","","1217","","","","decision","","<div class='trialDiv'><img src='trustrating_stim/white_00577_940928_fa_edt.bmp'><br><font class='baseline'><strong>Richard</strong><p>Choose number of points to send.</font><div class='respPicDiv'><img src='img/responseButtonOffersNo0L.png' class='respPic'></div></div>","3","7","Richard","0","Shared","0.8,0.35","10","0.8","trustrating_stim/white_00577_940928_fa_edt.bmp","3.5","119","19"
"html-keyboard-response","192","454795","0.0-19.0-2.18","58016c9f551314000145af58","bdp_trlrn","Fri Mar 10 2023 14:58:31 GMT-0500 (Eastern Standard Time)","787676","Untrustworthy,Trustworthy","","null","","","","decisionFB","","<div class='trialDiv'><img src='trustrating_stim/white_00577_940928_fa_edt.bmp'><br><font class='baseline'><strong>Richard</strong><p>Choose number of points to send.</font><div class='respPicDiv'><img src='img/responseButtonOffersNo0L3.png' class='respPic'></div></div>","null","7","Richard","0","Shared","0.8,0.35","10","0.8","trustrating_stim/white_00577_940928_fa_edt.bmp","3.5","116","19"
"html-keyboard-response","193","455803","0.0-19.0-3.18","58016c9f551314000145af58","bdp_trlrn","Fri Mar 10 2023 14:58:31 GMT-0500 (Eastern Standard Time)","787676","Untrustworthy,Trustworthy","","null","","","","feedback","","<div class='trialDiv'><img src='trustrating_stim/white_00577_940928_fa_edt.bmp'><br><font class='baseline'><strong>Richard</strong><p>Received: <strong>12</strong></font> &nbsp; &nbsp; &nbsp; &nbsp; &nbsp; &nbsp;<font class='posOutcome'>Shared back: <strong>6</strong></font></font><div class='respPicDiv'><img src='img/responseButtonOffersNo0_wht.png' class='respPic'></div></div>","null","7","Richard","0","Shared","0.8,0.35","10","0.8","trustrating_stim/white_00577_940928_fa_edt.bmp","3.5","122","19"
"html-keyboard-response","194","456423","0.0-19.0-1.19","58016c9f551314000145af58","bdp_trlrn","Fri Mar 10 2023 14:58:31 GMT-0500 (Eastern Standard Time)","787676","Untrustworthy,Trustworthy","","619","","","","decision","","<div class='trialDiv'><img src='trustrating_stim/white_00129_931230_fb_edt.bmp'><br><font class='baseline'><strong>Jordan</strong><p>Choose number of points to send.</font><div class='respPicDiv'><img src='img/responseButtonOffersNo0L.png' class='respPic'></div></div>","1","7","Jordan","6","Kept","0.2,0.8","8","0.2","trustrating_stim/white_00129_931230_fb_edt.bmp","5","127","20"
"html-keyboard-response","195","456676","0.0-19.0-2.19","58016c9f551314000145af58","bdp_trlrn","Fri Mar 10 2023 14:58:31 GMT-0500 (Eastern Standard Time)","787676","Untrustworthy,Trustworthy","","null","","","","decisionFB","","<div class='trialDiv'><img src='trustrating_stim/white_00129_931230_fb_edt.bmp'><br><font class='baseline'><strong>Jordan</strong><p>Choose number of points to send.</font><div class='respPicDiv'><img src='img/responseButtonOffersNo0L1.png' class='respPic'></div></div>","null","7","Jordan","6","Kept","0.2,0.8","8","0.2","trustrating_stim/white_00129_931230_fb_edt.bmp","5","126","20"
"html-keyboard-response","196","457684","0.0-19.0-3.19","58016c9f551314000145af58","bdp_trlrn","Fri Mar 10 2023 14:58:31 GMT-0500 (Eastern Standard Time)","787676","Untrustworthy,Trustworthy","","null","","","","feedback","","<div class='trialDiv'><img src='trustrating_stim/white_00129_931230_fb_edt.bmp'><br><font class='baseline'><strong>Jordan</strong><p>Received: <strong>4</strong></font> &nbsp; &nbsp; &nbsp; &nbsp; &nbsp; &nbsp;<font class='negOutcome'>Shared back: <strong>0</strong></font></font><div class='respPicDiv'><img src='img/responseButtonOffersNo0_wht.png' class='respPic'></div></div>","null","7","Jordan","6","Kept","0.2,0.8","8","0.2","trustrating_stim/white_00129_931230_fb_edt.bmp","5","126","20"
"html-keyboard-response","197","459029","0.0-19.0-1.20","58016c9f551314000145af58","bdp_trlrn","Fri Mar 10 2023 14:58:31 GMT-0500 (Eastern Standard Time)","787676","Untrustworthy,Trustworthy","","1344","","","","decision","","<div class='trialDiv'><img src='trustrating_stim/white_00109_931230_fa_edt.bmp'><br><font class='baseline'><strong>Alex</strong><p>Choose number of points to send.</font><div class='respPicDiv'><img src='img/responseButtonOffersNo0L.png' class='respPic'></div></div>","4","7","Alex","9","Kept","0.35,0.8","14","0.35","trustrating_stim/white_00109_931230_fa_edt.bmp","6","131","21"
"html-keyboard-response","198","459284","0.0-19.0-2.20","58016c9f551314000145af58","bdp_trlrn","Fri Mar 10 2023 14:58:31 GMT-0500 (Eastern Standard Time)","787676","Untrustworthy,Trustworthy","","null","","","","decisionFB","","<div class='trialDiv'><img src='trustrating_stim/white_00109_931230_fa_edt.bmp'><br><font class='baseline'><strong>Alex</strong><p>Choose number of points to send.</font><div class='respPicDiv'><img src='img/responseButtonOffersNo0L4.png' class='respPic'></div></div>","null","7","Alex","9","Kept","0.35,0.8","14","0.35","trustrating_stim/white_00109_931230_fa_edt.bmp","6","127","21"
"html-keyboard-response","199","460292","0.0-19.0-3.20","58016c9f551314000145af58","bdp_trlrn","Fri Mar 10 2023 14:58:31 GMT-0500 (Eastern Standard Time)","787676","Untrustworthy,Trustworthy","","null","","","","feedback","","<div class='trialDiv'><img src='trustrating_stim/white_00109_931230_fa_edt.bmp'><br><font class='baseline'><strong>Alex</strong><p>Received: <strong>16</strong></font> &nbsp; &nbsp; &nbsp; &nbsp; &nbsp; &nbsp;<font class='negOutcome'>Shared back: <strong>0</strong></font></font><div class='respPicDiv'><img src='img/responseButtonOffersNo0_wht.png' class='respPic'></div></div>","null","7","Alex","9","Kept","0.35,0.8","14","0.35","trustrating_stim/white_00109_931230_fa_edt.bmp","6","127","21"
"html-keyboard-response","200","461309","0.0-19.0-1.21","58016c9f551314000145af58","bdp_trlrn","Fri Mar 10 2023 14:58:31 GMT-0500 (Eastern Standard Time)","787676","Untrustworthy,Trustworthy","","1015","","","","decision","","<div class='trialDiv'><img src='trustrating_stim/white_00129_931230_fb_edt.bmp'><br><font class='baseline'><strong>Jordan</strong><p>Choose number of points to send.</font><div class='respPicDiv'><img src='img/responseButtonOffersNo0L.png' class='respPic'></div></div>","1","8","Jordan","6","Shared","0.2,0.8","8","0.2","trustrating_stim/white_00129_931230_fb_edt.bmp","5","132","22"
"html-keyboard-response","201","461564","0.0-19.0-2.21","58016c9f551314000145af58","bdp_trlrn","Fri Mar 10 2023 14:58:31 GMT-0500 (Eastern Standard Time)","787676","Untrustworthy,Trustworthy","","null","","","","decisionFB","","<div class='trialDiv'><img src='trustrating_stim/white_00129_931230_fb_edt.bmp'><br><font class='baseline'><strong>Jordan</strong><p>Choose number of points to send.</font><div class='respPicDiv'><img src='img/responseButtonOffersNo0L1.png' class='respPic'></div></div>","null","8","Jordan","6","Shared","0.2,0.8","8","0.2","trustrating_stim/white_00129_931230_fb_edt.bmp","5","131","22"
"html-keyboard-response","202","462572","0.0-19.0-3.21","58016c9f551314000145af58","bdp_trlrn","Fri Mar 10 2023 14:58:31 GMT-0500 (Eastern Standard Time)","787676","Untrustworthy,Trustworthy","","null","","","","feedback","","<div class='trialDiv'><img src='trustrating_stim/white_00129_931230_fb_edt.bmp'><br><font class='baseline'><strong>Jordan</strong><p>Received: <strong>4</strong></font> &nbsp; &nbsp; &nbsp; &nbsp; &nbsp; &nbsp;<font class='posOutcome'>Shared back: <strong>2</strong></font></font><div class='respPicDiv'><img src='img/responseButtonOffersNo0_wht.png' class='respPic'></div></div>","null","8","Jordan","6","Shared","0.2,0.8","8","0.2","trustrating_stim/white_00129_931230_fb_edt.bmp","5","133","22"
"html-keyboard-response","203","463909","0.0-19.0-1.22","58016c9f551314000145af58","bdp_trlrn","Fri Mar 10 2023 14:58:31 GMT-0500 (Eastern Standard Time)","787676","Untrustworthy,Trustworthy","","1335","","","","decision","","<div class='trialDiv'><img src='trustrating_stim/white_00109_931230_fa_edt.bmp'><br><font class='baseline'><strong>Alex</strong><p>Choose number of points to send.</font><div class='respPicDiv'><img src='img/responseButtonOffersNo0L.png' class='respPic'></div></div>","5","8","Alex","9","Shared","0.35,0.8","14","0.35","trustrating_stim/white_00109_931230_fa_edt.bmp","6","138","23"
"html-keyboard-response","204","464164","0.0-19.0-2.22","58016c9f551314000145af58","bdp_trlrn","Fri Mar 10 2023 14:58:31 GMT-0500 (Eastern Standard Time)","787676","Untrustworthy,Trustworthy","","null","","","","decisionFB","","<div class='trialDiv'><img src='trustrating_stim/white_00109_931230_fa_edt.bmp'><br><font class='baseline'><strong>Alex</strong><p>Choose number of points to send.</font><div class='respPicDiv'><img src='img/responseButtonOffersNo0L5.png' class='respPic'></div></div>","null","8","Alex","9","Shared","0.35,0.8","14","0.35","trustrating_stim/white_00109_931230_fa_edt.bmp","6","133","23"
"html-keyboard-response","205","465172","0.0-19.0-3.22","58016c9f551314000145af58","bdp_trlrn","Fri Mar 10 2023 14:58:31 GMT-0500 (Eastern Standard Time)","787676","Untrustworthy,Trustworthy","","null","","","","feedback","","<div class='trialDiv'><img src='trustrating_stim/white_00109_931230_fa_edt.bmp'><br><font class='baseline'><strong>Alex</strong><p>Received: <strong>20</strong></font> &nbsp; &nbsp; &nbsp; &nbsp; &nbsp; &nbsp;<font class='posOutcome'>Shared back: <strong>10</strong></font></font><div class='respPicDiv'><img src='img/responseButtonOffersNo0_wht.png' class='respPic'></div></div>","null","8","Alex","9","Shared","0.35,0.8","14","0.35","trustrating_stim/white_00109_931230_fa_edt.bmp","6","143","23"
"html-keyboard-response","206","466013","0.0-19.0-1.23","58016c9f551314000145af58","bdp_trlrn","Fri Mar 10 2023 14:58:31 GMT-0500 (Eastern Standard Time)","787676","Untrustworthy,Trustworthy","","839","","","","decision","","<div class='trialDiv'><img src='trustrating_stim/white_00577_940928_fa_edt.bmp'><br><font class='baseline'><strong>Richard</strong><p>Choose number of points to send.</font><div class='respPicDiv'><img src='img/responseButtonOffersNo0L.png' class='respPic'></div></div>","5","8","Richard","0","Shared","0.8,0.35","10","0.8","trustrating_stim/white_00577_940928_fa_edt.bmp","3.5","148","24"
"html-keyboard-response","207","466290","0.0-19.0-2.23","58016c9f551314000145af58","bdp_trlrn","Fri Mar 10 2023 14:58:31 GMT-0500 (Eastern Standard Time)","787676","Untrustworthy,Trustworthy","","null","","","","decisionFB","","<div class='trialDiv'><img src='trustrating_stim/white_00577_940928_fa_edt.bmp'><br><font class='baseline'><strong>Richard</strong><p>Choose number of points to send.</font><div class='respPicDiv'><img src='img/responseButtonOffersNo0L5.png' class='respPic'></div></div>","null","8","Richard","0","Shared","0.8,0.35","10","0.8","trustrating_stim/white_00577_940928_fa_edt.bmp","3.5","143","24"
"html-keyboard-response","208","467292","0.0-19.0-3.23","58016c9f551314000145af58","bdp_trlrn","Fri Mar 10 2023 14:58:31 GMT-0500 (Eastern Standard Time)","787676","Untrustworthy,Trustworthy","","null","","","","feedback","","<div class='trialDiv'><img src='trustrating_stim/white_00577_940928_fa_edt.bmp'><br><font class='baseline'><strong>Richard</strong><p>Received: <strong>20</strong></font> &nbsp; &nbsp; &nbsp; &nbsp; &nbsp; &nbsp;<font class='posOutcome'>Shared back: <strong>10</strong></font></font><div class='respPicDiv'><img src='img/responseButtonOffersNo0_wht.png' class='respPic'></div></div>","null","8","Richard","0","Shared","0.8,0.35","10","0.8","trustrating_stim/white_00577_940928_fa_edt.bmp","3.5","153","24"
"html-keyboard-response","209","468751","0.0-19.0-1.24","58016c9f551314000145af58","bdp_trlrn","Fri Mar 10 2023 14:58:31 GMT-0500 (Eastern Standard Time)","787676","Untrustworthy,Trustworthy","","1457","","","","decision","","<div class='trialDiv'><img src='trustrating_stim/white_00109_931230_fa_edt.bmp'><br><font class='baseline'><strong>Alex</strong><p>Choose number of points to send.</font><div class='respPicDiv'><img src='img/responseButtonOffersNo0L.png' class='respPic'></div></div>","5","9","Alex","9","Kept","0.35,0.8","14","0.35","trustrating_stim/white_00109_931230_fa_edt.bmp","6","158","25"
"html-keyboard-response","210","469004","0.0-19.0-2.24","58016c9f551314000145af58","bdp_trlrn","Fri Mar 10 2023 14:58:31 GMT-0500 (Eastern Standard Time)","787676","Untrustworthy,Trustworthy","","null","","","","decisionFB","","<div class='trialDiv'><img src='trustrating_stim/white_00109_931230_fa_edt.bmp'><br><font class='baseline'><strong>Alex</strong><p>Choose number of points to send.</font><div class='respPicDiv'><img src='img/responseButtonOffersNo0L5.png' class='respPic'></div></div>","null","9","Alex","9","Kept","0.35,0.8","14","0.35","trustrating_stim/white_00109_931230_fa_edt.bmp","6","153","25"
"html-keyboard-response","211","470012","0.0-19.0-3.24","58016c9f551314000145af58","bdp_trlrn","Fri Mar 10 2023 14:58:31 GMT-0500 (Eastern Standard Time)","787676","Untrustworthy,Trustworthy","","null","","","","feedback","","<div class='trialDiv'><img src='trustrating_stim/white_00109_931230_fa_edt.bmp'><br><font class='baseline'><strong>Alex</strong><p>Received: <strong>20</strong></font> &nbsp; &nbsp; &nbsp; &nbsp; &nbsp; &nbsp;<font class='negOutcome'>Shared back: <strong>0</strong></font></font><div class='respPicDiv'><img src='img/responseButtonOffersNo0_wht.png' class='respPic'></div></div>","null","9","Alex","9","Kept","0.35,0.8","14","0.35","trustrating_stim/white_00109_931230_fa_edt.bmp","6","153","25"
"html-keyboard-response","212","471364","0.0-19.0-1.25","58016c9f551314000145af58","bdp_trlrn","Fri Mar 10 2023 14:58:31 GMT-0500 (Eastern Standard Time)","787676","Untrustworthy,Trustworthy","","1351","","","","decision","","<div class='trialDiv'><img src='trustrating_stim/white_00577_940928_fa_edt.bmp'><br><font class='baseline'><strong>Richard</strong><p>Choose number of points to send.</font><div class='respPicDiv'><img src='img/responseButtonOffersNo0L.png' class='respPic'></div></div>","1","9","Richard","0","Shared","0.8,0.35","10","0.8","trustrating_stim/white_00577_940928_fa_edt.bmp","3.5","158","26"
"html-keyboard-response","213","471620","0.0-19.0-2.25","58016c9f551314000145af58","bdp_trlrn","Fri Mar 10 2023 14:58:31 GMT-0500 (Eastern Standard Time)","787676","Untrustworthy,Trustworthy","","null","","","","decisionFB","","<div class='trialDiv'><img src='trustrating_stim/white_00577_940928_fa_edt.bmp'><br><font class='baseline'><strong>Richard</strong><p>Choose number of points to send.</font><div class='respPicDiv'><img src='img/responseButtonOffersNo0L1.png' class='respPic'></div></div>","null","9","Richard","0","Shared","0.8,0.35","10","0.8","trustrating_stim/white_00577_940928_fa_edt.bmp","3.5","157","26"
"html-keyboard-response","214","472628","0.0-19.0-3.25","58016c9f551314000145af58","bdp_trlrn","Fri Mar 10 2023 14:58:31 GMT-0500 (Eastern Standard Time)","787676","Untrustworthy,Trustworthy","","null","","","","feedback","","<div class='trialDiv'><img src='trustrating_stim/white_00577_940928_fa_edt.bmp'><br><font class='baseline'><strong>Richard</strong><p>Received: <strong>4</strong></font> &nbsp; &nbsp; &nbsp; &nbsp; &nbsp; &nbsp;<font class='posOutcome'>Shared back: <strong>2</strong></font></font><div class='respPicDiv'><img src='img/responseButtonOffersNo0_wht.png' class='respPic'></div></div>","null","9","Richard","0","Shared","0.8,0.35","10","0.8","trustrating_stim/white_00577_940928_fa_edt.bmp","3.5","159","26"
"html-keyboard-response","215","473684","0.0-19.0-1.26","58016c9f551314000145af58","bdp_trlrn","Fri Mar 10 2023 14:58:31 GMT-0500 (Eastern Standard Time)","787676","Untrustworthy,Trustworthy","","1055","","","","decision","","<div class='trialDiv'><img src='trustrating_stim/white_00129_931230_fb_edt.bmp'><br><font class='baseline'><strong>Jordan</strong><p>Choose number of points to send.</font><div class='respPicDiv'><img src='img/responseButtonOffersNo0L.png' class='respPic'></div></div>","1","9","Jordan","6","Kept","0.2,0.8","8","0.2","trustrating_stim/white_00129_931230_fb_edt.bmp","5","164","27"
"html-keyboard-response","216","473940","0.0-19.0-2.26","58016c9f551314000145af58","bdp_trlrn","Fri Mar 10 2023 14:58:31 GMT-0500 (Eastern Standard Time)","787676","Untrustworthy,Trustworthy","","null","","","","decisionFB","","<div class='trialDiv'><img src='trustrating_stim/white_00129_931230_fb_edt.bmp'><br><font class='baseline'><strong>Jordan</strong><p>Choose number of points to send.</font><div class='respPicDiv'><img src='img/responseButtonOffersNo0L1.png' class='respPic'></div></div>","null","9","Jordan","6","Kept","0.2,0.8","8","0.2","trustrating_stim/white_00129_931230_fb_edt.bmp","5","163","27"
"html-keyboard-response","217","474948","0.0-19.0-3.26","58016c9f551314000145af58","bdp_trlrn","Fri Mar 10 2023 14:58:31 GMT-0500 (Eastern Standard Time)","787676","Untrustworthy,Trustworthy","","null","","","","feedback","","<div class='trialDiv'><img src='trustrating_stim/white_00129_931230_fb_edt.bmp'><br><font class='baseline'><strong>Jordan</strong><p>Received: <strong>4</strong></font> &nbsp; &nbsp; &nbsp; &nbsp; &nbsp; &nbsp;<font class='negOutcome'>Shared back: <strong>0</strong></font></font><div class='respPicDiv'><img src='img/responseButtonOffersNo0_wht.png' class='respPic'></div></div>","null","9","Jordan","6","Kept","0.2,0.8","8","0.2","trustrating_stim/white_00129_931230_fb_edt.bmp","5","163","27"
"html-keyboard-response","218","476468","0.0-19.0-1.27","58016c9f551314000145af58","bdp_trlrn","Fri Mar 10 2023 14:58:31 GMT-0500 (Eastern Standard Time)","787676","Untrustworthy,Trustworthy","","1519","","","","decision","","<div class='trialDiv'><img src='trustrating_stim/white_00577_940928_fa_edt.bmp'><br><font class='baseline'><strong>Richard</strong><p>Choose number of points to send.</font><div class='respPicDiv'><img src='img/responseButtonOffersNo0L.png' class='respPic'></div></div>","3","10","Richard","0","Kept","0.8,0.35","10","0.8","trustrating_stim/white_00577_940928_fa_edt.bmp","3.5","168","28"
