"trial_type","trial_index","time_elapsed","internal_node_id","subject_id","task","startTime","totalTime","labels","view_history","rt","event","trial","time","trialtype","success","stimulus","key_press","aground","name","faceID","outcome","agenttype","agentswpt","agentcurrpshare","face","avgRating","point_total","round"
"pavlovia","0","5","0.0-0.0","631ce86c7a3ce20f628bae05","bdp_trlrn","Sat Apr 08 2023 11:46:53 GMT-0400 (Eastern Daylight Time)","556663","Untrustworthy,Trustworthy","","","","","","","","","","","","","","","","","","","",""
"instructions","1","1823","0.0-1.0","631ce86c7a3ce20f628bae05","bdp_trlrn","Sat Apr 08 2023 11:46:53 GMT-0400 (Eastern Daylight Time)","556663","Untrustworthy,Trustworthy","[{""page_index"":0,""viewing_time"":1817}]","1817","","","","","","","","","","","","","","","","","",""
"","","","","631ce86c7a3ce20f628bae05","bdp_trlrn","Sat Apr 08 2023 11:46:53 GMT-0400 (Eastern Daylight Time)","556663","Untrustworthy,Trustworthy","","","fullscreenenter","2","6379","fullscreenenter","","","","","","","","","","","","","",""
"fullscreen","2","7360","0.0-2.0","631ce86c7a3ce20f628bae05","bdp_trlrn","Sat Apr 08 2023 11:46:53 GMT-0400 (Eastern Daylight Time)","556663","Untrustworthy,Trustworthy","","","","","","","true","","","","","","","","","","","","",""
"instructions","3","15855","0.0-4.0","631ce86c7a3ce20f628bae05","bdp_trlrn","Sat Apr 08 2023 11:46:53 GMT-0400 (Eastern Daylight Time)","556663","Untrustworthy,Trustworthy","[{""page_index"":0,""viewing_time"":3951},{""page_index"":1,""viewing_time"":4543}]","8494","","","","","","","","","","","","","","","","","",""
"instructions","4","17727","0.0-5.0","631ce86c7a3ce20f628bae05","bdp_trlrn","Sat Apr 08 2023 11:46:53 GMT-0400 (Eastern Daylight Time)","556663","Untrustworthy,Trustworthy","[{""page_index"":0,""viewing_time"":1871}]","1871","","","","","","","","","","","","","","","","","",""
"image-keyboard-response","5","20783","0.0-6.0-1.0","631ce86c7a3ce20f628bae05","bdp_trlrn","Sat Apr 08 2023 11:46:53 GMT-0400 (Eastern Daylight Time)","556663","Untrustworthy,Trustworthy","","2940","","","","rating","","trustrating_stim/white_mw099.bmp","6","","","","","","","","","","",""
"image-keyboard-response","6","20998","0.0-6.0-2.0","631ce86c7a3ce20f628bae05","bdp_trlrn","Sat Apr 08 2023 11:46:53 GMT-0400 (Eastern Daylight Time)","556663","Untrustworthy,Trustworthy","","null","","","","ratingFB","","trustrating_stim/white_mw099.bmp","null","","","","","","","","","","",""
"image-keyboard-response","7","23312","0.0-6.0-1.1","631ce86c7a3ce20f628bae05","bdp_trlrn","Sat Apr 08 2023 11:46:53 GMT-0400 (Eastern Daylight Time)","556663","Untrustworthy,Trustworthy","","2213","","","","rating","","trustrating_stim/white_00659_941121_fa_edt.bmp","4","","","","","","","","","","",""
"image-keyboard-response","8","23524","0.0-6.0-2.1","631ce86c7a3ce20f628bae05","bdp_trlrn","Sat Apr 08 2023 11:46:53 GMT-0400 (Eastern Daylight Time)","556663","Untrustworthy,Trustworthy","","null","","","","ratingFB","","trustrating_stim/white_00659_941121_fa_edt.bmp","null","","","","","","","","","","",""
"image-keyboard-response","9","25695","0.0-6.0-1.2","631ce86c7a3ce20f628bae05","bdp_trlrn","Sat Apr 08 2023 11:46:53 GMT-0400 (Eastern Daylight Time)","556663","Untrustworthy,Trustworthy","","2069","","","","rating","","trustrating_stim/white_mw084.bmp","5","","","","","","","","","","",""
"image-keyboard-response","10","25912","0.0-6.0-2.2","631ce86c7a3ce20f628bae05","bdp_trlrn","Sat Apr 08 2023 11:46:53 GMT-0400 (Eastern Daylight Time)","556663","Untrustworthy,Trustworthy","","null","","","","ratingFB","","trustrating_stim/white_mw084.bmp","null","","","","","","","","","","",""
"image-keyboard-response","11","27663","0.0-6.0-1.3","631ce86c7a3ce20f628bae05","bdp_trlrn","Sat Apr 08 2023 11:46:53 GMT-0400 (Eastern Daylight Time)","556663","Untrustworthy,Trustworthy","","1641","","","","rating","","trustrating_stim/white_mw035.bmp","6","","","","","","","","","","",""
"image-keyboard-response","12","27876","0.0-6.0-2.3","631ce86c7a3ce20f628bae05","bdp_trlrn","Sat Apr 08 2023 11:46:53 GMT-0400 (Eastern Daylight Time)","556663","Untrustworthy,Trustworthy","","null","","","","ratingFB","","trustrating_stim/white_mw035.bmp","null","","","","","","","","","","",""
"image-keyboard-response","13","31279","0.0-6.0-1.4","631ce86c7a3ce20f628bae05","bdp_trlrn","Sat Apr 08 2023 11:46:53 GMT-0400 (Eastern Daylight Time)","556663","Untrustworthy,Trustworthy","","3302","","","","rating","","trustrating_stim/white_00340_940422_fa_edt.bmp","4","","","","","","","","","","",""
"image-keyboard-response","14","31481","0.0-6.0-2.4","631ce86c7a3ce20f628bae05","bdp_trlrn","Sat Apr 08 2023 11:46:53 GMT-0400 (Eastern Daylight Time)","556663","Untrustworthy,Trustworthy","","null","","","","ratingFB","","trustrating_stim/white_00340_940422_fa_edt.bmp","null","","","","","","","","","","",""
"image-keyboard-response","15","33472","0.0-6.0-1.5","631ce86c7a3ce20f628bae05","bdp_trlrn","Sat Apr 08 2023 11:46:53 GMT-0400 (Eastern Daylight Time)","556663","Untrustworthy,Trustworthy","","1889","","","","rating","","trustrating_stim/white_mw060.bmp","2","","","","","","","","","","",""
"image-keyboard-response","16","33673","0.0-6.0-2.5","631ce86c7a3ce20f628bae05","bdp_trlrn","Sat Apr 08 2023 11:46:53 GMT-0400 (Eastern Daylight Time)","556663","Untrustworthy,Trustworthy","","null","","","","ratingFB","","trustrating_stim/white_mw060.bmp","null","","","","","","","","","","",""
"image-keyboard-response","17","35871","0.0-6.0-1.6","631ce86c7a3ce20f628bae05","bdp_trlrn","Sat Apr 08 2023 11:46:53 GMT-0400 (Eastern Daylight Time)","556663","Untrustworthy,Trustworthy","","2097","","","","rating","","trustrating_stim/white_00807_941205_fb_edt.bmp","4","","","","","","","","","","",""
"image-keyboard-response","18","36072","0.0-6.0-2.6","631ce86c7a3ce20f628bae05","bdp_trlrn","Sat Apr 08 2023 11:46:53 GMT-0400 (Eastern Daylight Time)","556663","Untrustworthy,Trustworthy","","null","","","","ratingFB","","trustrating_stim/white_00807_941205_fb_edt.bmp","null","","","","","","","","","","",""
"image-keyboard-response","19","37791","0.0-6.0-1.7","631ce86c7a3ce20f628bae05","bdp_trlrn","Sat Apr 08 2023 11:46:53 GMT-0400 (Eastern Daylight Time)","556663","Untrustworthy,Trustworthy","","1617","","","","rating","","trustrating_stim/white_mw049.bmp","5","","","","","","","","","","",""
"image-keyboard-response","20","37992","0.0-6.0-2.7","631ce86c7a3ce20f628bae05","bdp_trlrn","Sat Apr 08 2023 11:46:53 GMT-0400 (Eastern Daylight Time)","556663","Untrustworthy,Trustworthy","","null","","","","ratingFB","","trustrating_stim/white_mw049.bmp","null","","","","","","","","","","",""
"image-keyboard-response","21","39327","0.0-6.0-1.8","631ce86c7a3ce20f628bae05","bdp_trlrn","Sat Apr 08 2023 11:46:53 GMT-0400 (Eastern Daylight Time)","556663","Untrustworthy,Trustworthy","","1232","","","","rating","","trustrating_stim/white_mw056.bmp","5","","","","","","","","","","",""
"image-keyboard-response","22","39529","0.0-6.0-2.8","631ce86c7a3ce20f628bae05","bdp_trlrn","Sat Apr 08 2023 11:46:53 GMT-0400 (Eastern Daylight Time)","556663","Untrustworthy,Trustworthy","","null","","","","ratingFB","","trustrating_stim/white_mw056.bmp","null","","","","","","","","","","",""
"image-keyboard-response","23","40927","0.0-6.0-1.9","631ce86c7a3ce20f628bae05","bdp_trlrn","Sat Apr 08 2023 11:46:53 GMT-0400 (Eastern Daylight Time)","556663","Untrustworthy,Trustworthy","","1297","","","","rating","","trustrating_stim/white_mw063.bmp","4","","","","","","","","","","",""
"image-keyboard-response","24","41128","0.0-6.0-2.9","631ce86c7a3ce20f628bae05","bdp_trlrn","Sat Apr 08 2023 11:46:53 GMT-0400 (Eastern Daylight Time)","556663","Untrustworthy,Trustworthy","","null","","","","ratingFB","","trustrating_stim/white_mw063.bmp","null","","","","","","","","","","",""
"image-keyboard-response","25","43279","0.0-6.0-1.10","631ce86c7a3ce20f628bae05","bdp_trlrn","Sat Apr 08 2023 11:46:53 GMT-0400 (Eastern Daylight Time)","556663","Untrustworthy,Trustworthy","","2048","","","","rating","","trustrating_stim/white_mw046.bmp","4","","","","","","","","","","",""
"image-keyboard-response","26","43493","0.0-6.0-2.10","631ce86c7a3ce20f628bae05","bdp_trlrn","Sat Apr 08 2023 11:46:53 GMT-0400 (Eastern Daylight Time)","556663","Untrustworthy,Trustworthy","","null","","","","ratingFB","","trustrating_stim/white_mw046.bmp","null","","","","","","","","","","",""
"image-keyboard-response","27","45136","0.0-6.0-1.11","631ce86c7a3ce20f628bae05","bdp_trlrn","Sat Apr 08 2023 11:46:53 GMT-0400 (Eastern Daylight Time)","556663","Untrustworthy,Trustworthy","","1541","","","","rating","","trustrating_stim/white_mw097.bmp","3","","","","","","","","","","",""
"image-keyboard-response","28","45337","0.0-6.0-2.11","631ce86c7a3ce20f628bae05","bdp_trlrn","Sat Apr 08 2023 11:46:53 GMT-0400 (Eastern Daylight Time)","556663","Untrustworthy,Trustworthy","","null","","","","ratingFB","","trustrating_stim/white_mw097.bmp","null","","","","","","","","","","",""
"image-keyboard-response","29","47231","0.0-6.0-1.12","631ce86c7a3ce20f628bae05","bdp_trlrn","Sat Apr 08 2023 11:46:53 GMT-0400 (Eastern Daylight Time)","556663","Untrustworthy,Trustworthy","","1791","","","","rating","","trustrating_stim/white_00129_931230_fb_edt.bmp","5","","","","","","","","","","",""
"image-keyboard-response","30","47432","0.0-6.0-2.12","631ce86c7a3ce20f628bae05","bdp_trlrn","Sat Apr 08 2023 11:46:53 GMT-0400 (Eastern Daylight Time)","556663","Untrustworthy,Trustworthy","","null","","","","ratingFB","","trustrating_stim/white_00129_931230_fb_edt.bmp","null","","","","","","","","","","",""
"image-keyboard-response","31","49999","0.0-6.0-1.13","631ce86c7a3ce20f628bae05","bdp_trlrn","Sat Apr 08 2023 11:46:53 GMT-0400 (Eastern Daylight Time)","556663","Untrustworthy,Trustworthy","","2464","","","","rating","","trustrating_stim/white_mw033.bmp","4","","","","","","","","","","",""
"image-keyboard-response","32","50201","0.0-6.0-2.13","631ce86c7a3ce20f628bae05","bdp_trlrn","Sat Apr 08 2023 11:46:53 GMT-0400 (Eastern Daylight Time)","556663","Untrustworthy,Trustworthy","","null","","","","ratingFB","","trustrating_stim/white_mw033.bmp","null","","","","","","","","","","",""
"image-keyboard-response","33","51791","0.0-6.0-1.14","631ce86c7a3ce20f628bae05","bdp_trlrn","Sat Apr 08 2023 11:46:53 GMT-0400 (Eastern Daylight Time)","556663","Untrustworthy,Trustworthy","","1489","","","","rating","","trustrating_stim/white_00577_940928_fa_edt.bmp","4","","","","","","","","","","",""
"image-keyboard-response","34","51992","0.0-6.0-2.14","631ce86c7a3ce20f628bae05","bdp_trlrn","Sat Apr 08 2023 11:46:53 GMT-0400 (Eastern Daylight Time)","556663","Untrustworthy,Trustworthy","","null","","","","ratingFB","","trustrating_stim/white_00577_940928_fa_edt.bmp","null","","","","","","","","","","",""
"image-keyboard-response","35","53663","0.0-6.0-1.15","631ce86c7a3ce20f628bae05","bdp_trlrn","Sat Apr 08 2023 11:46:53 GMT-0400 (Eastern Daylight Time)","556663","Untrustworthy,Trustworthy","","1570","","","","rating","","trustrating_stim/white_00120_931230_fa_edt.bmp","6","","","","","","","","","","",""
"image-keyboard-response","36","53864","0.0-6.0-2.15","631ce86c7a3ce20f628bae05","bdp_trlrn","Sat Apr 08 2023 11:46:53 GMT-0400 (Eastern Daylight Time)","556663","Untrustworthy,Trustworthy","","null","","","","ratingFB","","trustrating_stim/white_00120_931230_fa_edt.bmp","null","","","","","","","","","","",""
"image-keyboard-response","37","55552","0.0-6.0-1.16","631ce86c7a3ce20f628bae05","bdp_trlrn","Sat Apr 08 2023 11:46:53 GMT-0400 (Eastern Daylight Time)","556663","Untrustworthy,Trustworthy","","1587","","","","rating","","trustrating_stim/white_00785_941205_fb_edt.bmp","5","","","","","","","","","","",""
"image-keyboard-response","38","55753","0.0-6.0-2.16","631ce86c7a3ce20f628bae05","bdp_trlrn","Sat Apr 08 2023 11:46:53 GMT-0400 (Eastern Daylight Time)","556663","Untrustworthy,Trustworthy","","null","","","","ratingFB","","trustrating_stim/white_00785_941205_fb_edt.bmp","null","","","","","","","","","","",""
"image-keyboard-response","39","57631","0.0-6.0-1.17","631ce86c7a3ce20f628bae05","bdp_trlrn","Sat Apr 08 2023 11:46:53 GMT-0400 (Eastern Daylight Time)","556663","Untrustworthy,Trustworthy","","1776","","","","rating","","trustrating_stim/white_00519_940519_fb_edt.bmp","5","","","","","","","","","","",""
"image-keyboard-response","40","57832","0.0-6.0-2.17","631ce86c7a3ce20f628bae05","bdp_trlrn","Sat Apr 08 2023 11:46:53 GMT-0400 (Eastern Daylight Time)","556663","Untrustworthy,Trustworthy","","null","","","","ratingFB","","trustrating_stim/white_00519_940519_fb_edt.bmp","null","","","","","","","","","","",""
"image-keyboard-response","41","59742","0.0-6.0-1.18","631ce86c7a3ce20f628bae05","bdp_trlrn","Sat Apr 08 2023 11:46:53 GMT-0400 (Eastern Daylight Time)","556663","Untrustworthy,Trustworthy","","1809","","","","rating","","trustrating_stim/white_mw089.bmp","3","","","","","","","","","","",""
"image-keyboard-response","42","59944","0.0-6.0-2.18","631ce86c7a3ce20f628bae05","bdp_trlrn","Sat Apr 08 2023 11:46:53 GMT-0400 (Eastern Daylight Time)","556663","Untrustworthy,Trustworthy","","null","","","","ratingFB","","trustrating_stim/white_mw089.bmp","null","","","","","","","","","","",""
"image-keyboard-response","43","61631","0.0-6.0-1.19","631ce86c7a3ce20f628bae05","bdp_trlrn","Sat Apr 08 2023 11:46:53 GMT-0400 (Eastern Daylight Time)","556663","Untrustworthy,Trustworthy","","1585","","","","rating","","trustrating_stim/white_mw048.bmp","2","","","","","","","","","","",""
"image-keyboard-response","44","61832","0.0-6.0-2.19","631ce86c7a3ce20f628bae05","bdp_trlrn","Sat Apr 08 2023 11:46:53 GMT-0400 (Eastern Daylight Time)","556663","Untrustworthy,Trustworthy","","null","","","","ratingFB","","trustrating_stim/white_mw048.bmp","null","","","","","","","","","","",""
"image-keyboard-response","45","63487","0.0-6.0-1.20","631ce86c7a3ce20f628bae05","bdp_trlrn","Sat Apr 08 2023 11:46:53 GMT-0400 (Eastern Daylight Time)","556663","Untrustworthy,Trustworthy","","1553","","","","rating","","trustrating_stim/white_00761_941201_fb_edt.bmp","2","","","","","","","","","","",""
"image-keyboard-response","46","63689","0.0-6.0-2.20","631ce86c7a3ce20f628bae05","bdp_trlrn","Sat Apr 08 2023 11:46:53 GMT-0400 (Eastern Daylight Time)","556663","Untrustworthy,Trustworthy","","null","","","","ratingFB","","trustrating_stim/white_00761_941201_fb_edt.bmp","null","","","","","","","","","","",""
"image-keyboard-response","47","65648","0.0-6.0-1.21","631ce86c7a3ce20f628bae05","bdp_trlrn","Sat Apr 08 2023 11:46:53 GMT-0400 (Eastern Daylight Time)","556663","Untrustworthy,Trustworthy","","1857","","","","rating","","trustrating_stim/white_00898_960530_fa_edt.bmp","6","","","","","","","","","","",""
"image-keyboard-response","48","65849","0.0-6.0-2.21","631ce86c7a3ce20f628bae05","bdp_trlrn","Sat Apr 08 2023 11:46:53 GMT-0400 (Eastern Daylight Time)","556663","Untrustworthy,Trustworthy","","null","","","","ratingFB","","trustrating_stim/white_00898_960530_fa_edt.bmp","null","","","","","","","","","","",""
"image-keyboard-response","49","67631","0.0-6.0-1.22","631ce86c7a3ce20f628bae05","bdp_trlrn","Sat Apr 08 2023 11:46:53 GMT-0400 (Eastern Daylight Time)","556663","Untrustworthy,Trustworthy","","1680","","","","rating","","trustrating_stim/white_00757_941201_fa_edt.bmp","4","","","","","","","","","","",""
"image-keyboard-response","50","67833","0.0-6.0-2.22","631ce86c7a3ce20f628bae05","bdp_trlrn","Sat Apr 08 2023 11:46:53 GMT-0400 (Eastern Daylight Time)","556663","Untrustworthy,Trustworthy","","null","","","","ratingFB","","trustrating_stim/white_00757_941201_fa_edt.bmp","null","","","","","","","","","","",""
"image-keyboard-response","51","69727","0.0-6.0-1.23","631ce86c7a3ce20f628bae05","bdp_trlrn","Sat Apr 08 2023 11:46:53 GMT-0400 (Eastern Daylight Time)","556663","Untrustworthy,Trustworthy","","1793","","","","rating","","trustrating_stim/white_00109_931230_fa_edt.bmp","7","","","","","","","","","","",""
"image-keyboard-response","52","69928","0.0-6.0-2.23","631ce86c7a3ce20f628bae05","bdp_trlrn","Sat Apr 08 2023 11:46:53 GMT-0400 (Eastern Daylight Time)","556663","Untrustworthy,Trustworthy","","null","","","","ratingFB","","trustrating_stim/white_00109_931230_fa_edt.bmp","null","","","","","","","","","","",""
"image-keyboard-response","53","71727","0.0-6.0-1.24","631ce86c7a3ce20f628bae05","bdp_trlrn","Sat Apr 08 2023 11:46:53 GMT-0400 (Eastern Daylight Time)","556663","Untrustworthy,Trustworthy","","1697","","","","rating","","trustrating_stim/white_00602_940928_fb_edt.bmp","6","","","","","","","","","","",""
"image-keyboard-response","54","71928","0.0-6.0-2.24","631ce86c7a3ce20f628bae05","bdp_trlrn","Sat Apr 08 2023 11:46:53 GMT-0400 (Eastern Daylight Time)","556663","Untrustworthy,Trustworthy","","null","","","","ratingFB","","trustrating_stim/white_00602_940928_fb_edt.bmp","null","","","","","","","","","","",""
"image-keyboard-response","55","73871","0.0-6.0-1.25","631ce86c7a3ce20f628bae05","bdp_trlrn","Sat Apr 08 2023 11:46:53 GMT-0400 (Eastern Daylight Time)","556663","Untrustworthy,Trustworthy","","1840","","","","rating","","trustrating_stim/white_mw066.bmp","6","","","","","","","","","","",""
"image-keyboard-response","56","74073","0.0-6.0-2.25","631ce86c7a3ce20f628bae05","bdp_trlrn","Sat Apr 08 2023 11:46:53 GMT-0400 (Eastern Daylight Time)","556663","Untrustworthy,Trustworthy","","null","","","","ratingFB","","trustrating_stim/white_mw066.bmp","null","","","","","","","","","","",""
"image-keyboard-response","57","76032","0.0-6.0-1.26","631ce86c7a3ce20f628bae05","bdp_trlrn","Sat Apr 08 2023 11:46:53 GMT-0400 (Eastern Daylight Time)","556663","Untrustworthy,Trustworthy","","1857","","","","rating","","trustrating_stim/white_00299_940422_fa_edt.bmp","4","","","","","","","","","","",""
"image-keyboard-response","58","76234","0.0-6.0-2.26","631ce86c7a3ce20f628bae05","bdp_trlrn","Sat Apr 08 2023 11:46:53 GMT-0400 (Eastern Daylight Time)","556663","Untrustworthy,Trustworthy","","null","","","","ratingFB","","trustrating_stim/white_00299_940422_fa_edt.bmp","null","","","","","","","","","","",""
"image-keyboard-response","59","78174","0.0-6.0-1.27","631ce86c7a3ce20f628bae05","bdp_trlrn","Sat Apr 08 2023 11:46:53 GMT-0400 (Eastern Daylight Time)","556663","Untrustworthy,Trustworthy","","1838","","","","rating","","trustrating_stim/white_00223_940128_fb_edt.bmp","5","","","","","","","","","","",""
"image-keyboard-response","60","78375","0.0-6.0-2.27","631ce86c7a3ce20f628bae05","bdp_trlrn","Sat Apr 08 2023 11:46:53 GMT-0400 (Eastern Daylight Time)","556663","Untrustworthy,Trustworthy","","null","","","","ratingFB","","trustrating_stim/white_00223_940128_fb_edt.bmp","null","","","","","","","","","","",""
"image-keyboard-response","61","79902","0.0-6.0-1.28","631ce86c7a3ce20f628bae05","bdp_trlrn","Sat Apr 08 2023 11:46:53 GMT-0400 (Eastern Daylight Time)","556663","Untrustworthy,Trustworthy","","1426","","","","rating","","trustrating_stim/white_mw053.bmp","6","","","","","","","","","","",""
"image-keyboard-response","62","80103","0.0-6.0-2.28","631ce86c7a3ce20f628bae05","bdp_trlrn","Sat Apr 08 2023 11:46:53 GMT-0400 (Eastern Daylight Time)","556663","Untrustworthy,Trustworthy","","null","","","","ratingFB","","trustrating_stim/white_mw053.bmp","null","","","","","","","","","","",""
"image-keyboard-response","63","81822","0.0-6.0-1.29","631ce86c7a3ce20f628bae05","bdp_trlrn","Sat Apr 08 2023 11:46:53 GMT-0400 (Eastern Daylight Time)","556663","Untrustworthy,Trustworthy","","1617","","","","rating","","trustrating_stim/white_mw071.bmp","5","","","","","","","","","","",""
"image-keyboard-response","64","82024","0.0-6.0-2.29","631ce86c7a3ce20f628bae05","bdp_trlrn","Sat Apr 08 2023 11:46:53 GMT-0400 (Eastern Daylight Time)","556663","Untrustworthy,Trustworthy","","null","","","","ratingFB","","trustrating_stim/white_mw071.bmp","null","","","","","","","","","","",""
"image-keyboard-response","65","83358","0.0-6.0-1.30","631ce86c7a3ce20f628bae05","bdp_trlrn","Sat Apr 08 2023 11:46:53 GMT-0400 (Eastern Daylight Time)","556663","Untrustworthy,Trustworthy","","1233","","","","rating","","trustrating_stim/white_mw049.bmp","6","","","","","","","","","","",""
"image-keyboard-response","66","83560","0.0-6.0-2.30","631ce86c7a3ce20f628bae05","bdp_trlrn","Sat Apr 08 2023 11:46:53 GMT-0400 (Eastern Daylight Time)","556663","Untrustworthy,Trustworthy","","null","","","","ratingFB","","trustrating_stim/white_mw049.bmp","null","","","","","","","","","","",""
"image-keyboard-response","67","85182","0.0-6.0-1.31","631ce86c7a3ce20f628bae05","bdp_trlrn","Sat Apr 08 2023 11:46:53 GMT-0400 (Eastern Daylight Time)","556663","Untrustworthy,Trustworthy","","1520","","","","rating","","trustrating_stim/white_00120_931230_fa_edt.bmp","7","","","","","","","","","","",""
"image-keyboard-response","68","85383","0.0-6.0-2.31","631ce86c7a3ce20f628bae05","bdp_trlrn","Sat Apr 08 2023 11:46:53 GMT-0400 (Eastern Daylight Time)","556663","Untrustworthy,Trustworthy","","null","","","","ratingFB","","trustrating_stim/white_00120_931230_fa_edt.bmp","null","","","","","","","","","","",""
"image-keyboard-response","69","88498","0.0-6.0-1.32","631ce86c7a3ce20f628bae05","bdp_trlrn","Sat Apr 08 2023 11:46:53 GMT-0400 (Eastern Daylight Time)","556663","Untrustworthy,Trustworthy","","3013","","","","rating","","trustrating_stim/white_mw084.bmp","5","","","","","","","","","","",""
"image-keyboard-response","70","88700","0.0-6.0-2.32","631ce86c7a3ce20f628bae05","bdp_trlrn","Sat Apr 08 2023 11:46:53 GMT-0400 (Eastern Daylight Time)","556663","Untrustworthy,Trustworthy","","null","","","","ratingFB","","trustrating_stim/white_mw084.bmp","null","","","","","","","","","","",""
"image-keyboard-response","71","90670","0.0-6.0-1.33","631ce86c7a3ce20f628bae05","bdp_trlrn","Sat Apr 08 2023 11:46:53 GMT-0400 (Eastern Daylight Time)","556663","Untrustworthy,Trustworthy","","1869","","","","rating","","trustrating_stim/white_00519_940519_fb_edt.bmp","5","","","","","","","","","","",""
"image-keyboard-response","72","90872","0.0-6.0-2.33","631ce86c7a3ce20f628bae05","bdp_trlrn","Sat Apr 08 2023 11:46:53 GMT-0400 (Eastern Daylight Time)","556663","Untrustworthy,Trustworthy","","null","","","","ratingFB","","trustrating_stim/white_00519_940519_fb_edt.bmp","null","","","","","","","","","","",""
"image-keyboard-response","73","92318","0.0-6.0-1.34","631ce86c7a3ce20f628bae05","bdp_trlrn","Sat Apr 08 2023 11:46:53 GMT-0400 (Eastern Daylight Time)","556663","Untrustworthy,Trustworthy","","1344","","","","rating","","trustrating_stim/white_00340_940422_fa_edt.bmp","3","","","","","","","","","","",""
"image-keyboard-response","74","92521","0.0-6.0-2.34","631ce86c7a3ce20f628bae05","bdp_trlrn","Sat Apr 08 2023 11:46:53 GMT-0400 (Eastern Daylight Time)","556663","Untrustworthy,Trustworthy","","null","","","","ratingFB","","trustrating_stim/white_00340_940422_fa_edt.bmp","null","","","","","","","","","","",""
"image-keyboard-response","75","94238","0.0-6.0-1.35","631ce86c7a3ce20f628bae05","bdp_trlrn","Sat Apr 08 2023 11:46:53 GMT-0400 (Eastern Daylight Time)","556663","Untrustworthy,Trustworthy","","1616","","","","rating","","trustrating_stim/white_00109_931230_fa_edt.bmp","6","","","","","","","","","","",""
"image-keyboard-response","76","94446","0.0-6.0-2.35","631ce86c7a3ce20f628bae05","bdp_trlrn","Sat Apr 08 2023 11:46:53 GMT-0400 (Eastern Daylight Time)","556663","Untrustworthy,Trustworthy","","null","","","","ratingFB","","trustrating_stim/white_00109_931230_fa_edt.bmp","null","","","","","","","","","","",""
"image-keyboard-response","77","96190","0.0-6.0-1.36","631ce86c7a3ce20f628bae05","bdp_trlrn","Sat Apr 08 2023 11:46:53 GMT-0400 (Eastern Daylight Time)","556663","Untrustworthy,Trustworthy","","1642","","","","rating","","trustrating_stim/white_00757_941201_fa_edt.bmp","3","","","","","","","","","","",""
"image-keyboard-response","78","96391","0.0-6.0-2.36","631ce86c7a3ce20f628bae05","bdp_trlrn","Sat Apr 08 2023 11:46:53 GMT-0400 (Eastern Daylight Time)","556663","Untrustworthy,Trustworthy","","null","","","","ratingFB","","trustrating_stim/white_00757_941201_fa_edt.bmp","null","","","","","","","","","","",""
"image-keyboard-response","79","97872","0.0-6.0-1.37","631ce86c7a3ce20f628bae05","bdp_trlrn","Sat Apr 08 2023 11:46:53 GMT-0400 (Eastern Daylight Time)","556663","Untrustworthy,Trustworthy","","1377","","","","rating","","trustrating_stim/white_mw056.bmp","5","","","","","","","","","","",""
"image-keyboard-response","80","98073","0.0-6.0-2.37","631ce86c7a3ce20f628bae05","bdp_trlrn","Sat Apr 08 2023 11:46:53 GMT-0400 (Eastern Daylight Time)","556663","Untrustworthy,Trustworthy","","null","","","","ratingFB","","trustrating_stim/white_mw056.bmp","null","","","","","","","","","","",""
"image-keyboard-response","81","100111","0.0-6.0-1.38","631ce86c7a3ce20f628bae05","bdp_trlrn","Sat Apr 08 2023 11:46:53 GMT-0400 (Eastern Daylight Time)","556663","Untrustworthy,Trustworthy","","1937","","","","rating","","trustrating_stim/white_mw066.bmp","6","","","","","","","","","","",""
"image-keyboard-response","82","100313","0.0-6.0-2.38","631ce86c7a3ce20f628bae05","bdp_trlrn","Sat Apr 08 2023 11:46:53 GMT-0400 (Eastern Daylight Time)","556663","Untrustworthy,Trustworthy","","null","","","","ratingFB","","trustrating_stim/white_mw066.bmp","null","","","","","","","","","","",""
"image-keyboard-response","83","101662","0.0-6.0-1.39","631ce86c7a3ce20f628bae05","bdp_trlrn","Sat Apr 08 2023 11:46:53 GMT-0400 (Eastern Daylight Time)","556663","Untrustworthy,Trustworthy","","1247","","","","rating","","trustrating_stim/white_mw089.bmp","3","","","","","","","","","","",""
"image-keyboard-response","84","101863","0.0-6.0-2.39","631ce86c7a3ce20f628bae05","bdp_trlrn","Sat Apr 08 2023 11:46:53 GMT-0400 (Eastern Daylight Time)","556663","Untrustworthy,Trustworthy","","null","","","","ratingFB","","trustrating_stim/white_mw089.bmp","null","","","","","","","","","","",""
"image-keyboard-response","85","103310","0.0-6.0-1.40","631ce86c7a3ce20f628bae05","bdp_trlrn","Sat Apr 08 2023 11:46:53 GMT-0400 (Eastern Daylight Time)","556663","Untrustworthy,Trustworthy","","1345","","","","rating","","trustrating_stim/white_mw071.bmp","3","","","","","","","","","","",""
"image-keyboard-response","86","103511","0.0-6.0-2.40","631ce86c7a3ce20f628bae05","bdp_trlrn","Sat Apr 08 2023 11:46:53 GMT-0400 (Eastern Daylight Time)","556663","Untrustworthy,Trustworthy","","null","","","","ratingFB","","trustrating_stim/white_mw071.bmp","null","","","","","","","","","","",""
"image-keyboard-response","87","104958","0.0-6.0-1.41","631ce86c7a3ce20f628bae05","bdp_trlrn","Sat Apr 08 2023 11:46:53 GMT-0400 (Eastern Daylight Time)","556663","Untrustworthy,Trustworthy","","1345","","","","rating","","trustrating_stim/white_mw097.bmp","3","","","","","","","","","","",""
"image-keyboard-response","88","105159","0.0-6.0-2.41","631ce86c7a3ce20f628bae05","bdp_trlrn","Sat Apr 08 2023 11:46:53 GMT-0400 (Eastern Daylight Time)","556663","Untrustworthy,Trustworthy","","null","","","","ratingFB","","trustrating_stim/white_mw097.bmp","null","","","","","","","","","","",""
"image-keyboard-response","89","106606","0.0-6.0-1.42","631ce86c7a3ce20f628bae05","bdp_trlrn","Sat Apr 08 2023 11:46:53 GMT-0400 (Eastern Daylight Time)","556663","Untrustworthy,Trustworthy","","1345","","","","rating","","trustrating_stim/white_00223_940128_fb_edt.bmp","4","","","","","","","","","","",""
"image-keyboard-response","90","106808","0.0-6.0-2.42","631ce86c7a3ce20f628bae05","bdp_trlrn","Sat Apr 08 2023 11:46:53 GMT-0400 (Eastern Daylight Time)","556663","Untrustworthy,Trustworthy","","null","","","","ratingFB","","trustrating_stim/white_00223_940128_fb_edt.bmp","null","","","","","","","","","","",""
"image-keyboard-response","91","107934","0.0-6.0-1.43","631ce86c7a3ce20f628bae05","bdp_trlrn","Sat Apr 08 2023 11:46:53 GMT-0400 (Eastern Daylight Time)","556663","Untrustworthy,Trustworthy","","1025","","","","rating","","trustrating_stim/white_mw035.bmp","5","","","","","","","","","","",""
"image-keyboard-response","92","108136","0.0-6.0-2.43","631ce86c7a3ce20f628bae05","bdp_trlrn","Sat Apr 08 2023 11:46:53 GMT-0400 (Eastern Daylight Time)","556663","Untrustworthy,Trustworthy","","null","","","","ratingFB","","trustrating_stim/white_mw035.bmp","null","","","","","","","","","","",""
"image-keyboard-response","93","109598","0.0-6.0-1.44","631ce86c7a3ce20f628bae05","bdp_trlrn","Sat Apr 08 2023 11:46:53 GMT-0400 (Eastern Daylight Time)","556663","Untrustworthy,Trustworthy","","1360","","","","rating","","trustrating_stim/white_00602_940928_fb_edt.bmp","5","","","","","","","","","","",""
"image-keyboard-response","94","109799","0.0-6.0-2.44","631ce86c7a3ce20f628bae05","bdp_trlrn","Sat Apr 08 2023 11:46:53 GMT-0400 (Eastern Daylight Time)","556663","Untrustworthy,Trustworthy","","null","","","","ratingFB","","trustrating_stim/white_00602_940928_fb_edt.bmp","null","","","","","","","","","","",""
"image-keyboard-response","95","111183","0.0-6.0-1.45","631ce86c7a3ce20f628bae05","bdp_trlrn","Sat Apr 08 2023 11:46:53 GMT-0400 (Eastern Daylight Time)","556663","Untrustworthy,Trustworthy","","1282","","","","rating","","trustrating_stim/white_00761_941201_fb_edt.bmp","2","","","","","","","","","","",""
"image-keyboard-response","96","111385","0.0-6.0-2.45","631ce86c7a3ce20f628bae05","bdp_trlrn","Sat Apr 08 2023 11:46:53 GMT-0400 (Eastern Daylight Time)","556663","Untrustworthy,Trustworthy","","null","","","","ratingFB","","trustrating_stim/white_00761_941201_fb_edt.bmp","null","","","","","","","","","","",""
"image-keyboard-response","97","112942","0.0-6.0-1.46","631ce86c7a3ce20f628bae05","bdp_trlrn","Sat Apr 08 2023 11:46:53 GMT-0400 (Eastern Daylight Time)","556663","Untrustworthy,Trustworthy","","1456","","","","rating","","trustrating_stim/white_00807_941205_fb_edt.bmp","3","","","","","","","","","","",""
"image-keyboard-response","98","113144","0.0-6.0-2.46","631ce86c7a3ce20f628bae05","bdp_trlrn","Sat Apr 08 2023 11:46:53 GMT-0400 (Eastern Daylight Time)","556663","Untrustworthy,Trustworthy","","null","","","","ratingFB","","trustrating_stim/white_00807_941205_fb_edt.bmp","null","","","","","","","","","","",""
"image-keyboard-response","99","114782","0.0-6.0-1.47","631ce86c7a3ce20f628bae05","bdp_trlrn","Sat Apr 08 2023 11:46:53 GMT-0400 (Eastern Daylight Time)","556663","Untrustworthy,Trustworthy","","1536","","","","rating","","trustrating_stim/white_00129_931230_fb_edt.bmp","5","","","","","","","","","","",""
"image-keyboard-response","100","114984","0.0-6.0-2.47","631ce86c7a3ce20f628bae05","bdp_trlrn","Sat Apr 08 2023 11:46:53 GMT-0400 (Eastern Daylight Time)","556663","Untrustworthy,Trustworthy","","null","","","","ratingFB","","trustrating_stim/white_00129_931230_fb_edt.bmp","null","","","","","","","","","","",""
"image-keyboard-response","101","116302","0.0-6.0-1.48","631ce86c7a3ce20f628bae05","bdp_trlrn","Sat Apr 08 2023 11:46:53 GMT-0400 (Eastern Daylight Time)","556663","Untrustworthy,Trustworthy","","1217","","","","rating","","trustrating_stim/white_00659_941121_fa_edt.bmp","4","","","","","","","","","","",""
"image-keyboard-response","102","116504","0.0-6.0-2.48","631ce86c7a3ce20f628bae05","bdp_trlrn","Sat Apr 08 2023 11:46:53 GMT-0400 (Eastern Daylight Time)","556663","Untrustworthy,Trustworthy","","null","","","","ratingFB","","trustrating_stim/white_00659_941121_fa_edt.bmp","null","","","","","","","","","","",""
"image-keyboard-response","103","118655","0.0-6.0-1.49","631ce86c7a3ce20f628bae05","bdp_trlrn","Sat Apr 08 2023 11:46:53 GMT-0400 (Eastern Daylight Time)","556663","Untrustworthy,Trustworthy","","2050","","","","rating","","trustrating_stim/white_00577_940928_fa_edt.bmp","5","","","","","","","","","","",""
"image-keyboard-response","104","118858","0.0-6.0-2.49","631ce86c7a3ce20f628bae05","bdp_trlrn","Sat Apr 08 2023 11:46:53 GMT-0400 (Eastern Daylight Time)","556663","Untrustworthy,Trustworthy","","null","","","","ratingFB","","trustrating_stim/white_00577_940928_fa_edt.bmp","null","","","","","","","","","","",""
"image-keyboard-response","105","120511","0.0-6.0-1.50","631ce86c7a3ce20f628bae05","bdp_trlrn","Sat Apr 08 2023 11:46:53 GMT-0400 (Eastern Daylight Time)","556663","Untrustworthy,Trustworthy","","1551","","","","rating","","trustrating_stim/white_mw046.bmp","3","","","","","","","","","","",""
"image-keyboard-response","106","120712","0.0-6.0-2.50","631ce86c7a3ce20f628bae05","bdp_trlrn","Sat Apr 08 2023 11:46:53 GMT-0400 (Eastern Daylight Time)","556663","Untrustworthy,Trustworthy","","null","","","","ratingFB","","trustrating_stim/white_mw046.bmp","null","","","","","","","","","","",""
"image-keyboard-response","107","122271","0.0-6.0-1.51","631ce86c7a3ce20f628bae05","bdp_trlrn","Sat Apr 08 2023 11:46:53 GMT-0400 (Eastern Daylight Time)","556663","Untrustworthy,Trustworthy","","1456","","","","rating","","trustrating_stim/white_mw053.bmp","5","","","","","","","","","","",""
"image-keyboard-response","108","122472","0.0-6.0-2.51","631ce86c7a3ce20f628bae05","bdp_trlrn","Sat Apr 08 2023 11:46:53 GMT-0400 (Eastern Daylight Time)","556663","Untrustworthy,Trustworthy","","null","","","","ratingFB","","trustrating_stim/white_mw053.bmp","null","","","","","","","","","","",""
"image-keyboard-response","109","123790","0.0-6.0-1.52","631ce86c7a3ce20f628bae05","bdp_trlrn","Sat Apr 08 2023 11:46:53 GMT-0400 (Eastern Daylight Time)","556663","Untrustworthy,Trustworthy","","1216","","","","rating","","trustrating_stim/white_mw033.bmp","4","","","","","","","","","","",""
"image-keyboard-response","110","123992","0.0-6.0-2.52","631ce86c7a3ce20f628bae05","bdp_trlrn","Sat Apr 08 2023 11:46:53 GMT-0400 (Eastern Daylight Time)","556663","Untrustworthy,Trustworthy","","null","","","","ratingFB","","trustrating_stim/white_mw033.bmp","null","","","","","","","","","","",""
"image-keyboard-response","111","125246","0.0-6.0-1.53","631ce86c7a3ce20f628bae05","bdp_trlrn","Sat Apr 08 2023 11:46:53 GMT-0400 (Eastern Daylight Time)","556663","Untrustworthy,Trustworthy","","1151","","","","rating","","trustrating_stim/white_mw099.bmp","4","","","","","","","","","","",""
"image-keyboard-response","112","125448","0.0-6.0-2.53","631ce86c7a3ce20f628bae05","bdp_trlrn","Sat Apr 08 2023 11:46:53 GMT-0400 (Eastern Daylight Time)","556663","Untrustworthy,Trustworthy","","null","","","","ratingFB","","trustrating_stim/white_mw099.bmp","null","","","","","","","","","","",""
"image-keyboard-response","113","127054","0.0-6.0-1.54","631ce86c7a3ce20f628bae05","bdp_trlrn","Sat Apr 08 2023 11:46:53 GMT-0400 (Eastern Daylight Time)","556663","Untrustworthy,Trustworthy","","1504","","","","rating","","trustrating_stim/white_00785_941205_fb_edt.bmp","5","","","","","","","","","","",""
"image-keyboard-response","114","127255","0.0-6.0-2.54","631ce86c7a3ce20f628bae05","bdp_trlrn","Sat Apr 08 2023 11:46:53 GMT-0400 (Eastern Daylight Time)","556663","Untrustworthy,Trustworthy","","null","","","","ratingFB","","trustrating_stim/white_00785_941205_fb_edt.bmp","null","","","","","","","","","","",""
"image-keyboard-response","115","128784","0.0-6.0-1.55","631ce86c7a3ce20f628bae05","bdp_trlrn","Sat Apr 08 2023 11:46:53 GMT-0400 (Eastern Daylight Time)","556663","Untrustworthy,Trustworthy","","1427","","","","rating","","trustrating_stim/white_mw048.bmp","2","","","","","","","","","","",""
"image-keyboard-response","116","128986","0.0-6.0-2.55","631ce86c7a3ce20f628bae05","bdp_trlrn","Sat Apr 08 2023 11:46:53 GMT-0400 (Eastern Daylight Time)","556663","Untrustworthy,Trustworthy","","null","","","","ratingFB","","trustrating_stim/white_mw048.bmp","null","","","","","","","","","","",""
"image-keyboard-response","117","130817","0.0-6.0-1.56","631ce86c7a3ce20f628bae05","bdp_trlrn","Sat Apr 08 2023 11:46:53 GMT-0400 (Eastern Daylight Time)","556663","Untrustworthy,Trustworthy","","1728","","","","rating","","trustrating_stim/white_00898_960530_fa_edt.bmp","5","","","","","","","","","","",""
"image-keyboard-response","118","131018","0.0-6.0-2.56","631ce86c7a3ce20f628bae05","bdp_trlrn","Sat Apr 08 2023 11:46:53 GMT-0400 (Eastern Daylight Time)","556663","Untrustworthy,Trustworthy","","null","","","","ratingFB","","trustrating_stim/white_00898_960530_fa_edt.bmp","null","","","","","","","","","","",""
"image-keyboard-response","119","132799","0.0-6.0-1.57","631ce86c7a3ce20f628bae05","bdp_trlrn","Sat Apr 08 2023 11:46:53 GMT-0400 (Eastern Daylight Time)","556663","Untrustworthy,Trustworthy","","1678","","","","rating","","trustrating_stim/white_mw060.bmp","3","","","","","","","","","","",""
"image-keyboard-response","120","133001","0.0-6.0-2.57","631ce86c7a3ce20f628bae05","bdp_trlrn","Sat Apr 08 2023 11:46:53 GMT-0400 (Eastern Daylight Time)","556663","Untrustworthy,Trustworthy","","null","","","","ratingFB","","trustrating_stim/white_mw060.bmp","null","","","","","","","","","","",""
"image-keyboard-response","121","134255","0.0-6.0-1.58","631ce86c7a3ce20f628bae05","bdp_trlrn","Sat Apr 08 2023 11:46:53 GMT-0400 (Eastern Daylight Time)","556663","Untrustworthy,Trustworthy","","1153","","","","rating","","trustrating_stim/white_mw063.bmp","3","","","","","","","","","","",""
"image-keyboard-response","122","134456","0.0-6.0-2.58","631ce86c7a3ce20f628bae05","bdp_trlrn","Sat Apr 08 2023 11:46:53 GMT-0400 (Eastern Daylight Time)","556663","Untrustworthy,Trustworthy","","null","","","","ratingFB","","trustrating_stim/white_mw063.bmp","null","","","","","","","","","","",""
"image-keyboard-response","123","136143","0.0-6.0-1.59","631ce86c7a3ce20f628bae05","bdp_trlrn","Sat Apr 08 2023 11:46:53 GMT-0400 (Eastern Daylight Time)","556663","Untrustworthy,Trustworthy","","1584","","","","rating","","trustrating_stim/white_00299_940422_fa_edt.bmp","5","","","","","","","","","","",""
"image-keyboard-response","124","136344","0.0-6.0-2.59","631ce86c7a3ce20f628bae05","bdp_trlrn","Sat Apr 08 2023 11:46:53 GMT-0400 (Eastern Daylight Time)","556663","Untrustworthy,Trustworthy","","null","","","","ratingFB","","trustrating_stim/white_00299_940422_fa_edt.bmp","null","","","","","","","","","","",""
"instructions","125","137678","0.0-7.0","631ce86c7a3ce20f628bae05","bdp_trlrn","Sat Apr 08 2023 11:46:53 GMT-0400 (Eastern Daylight Time)","556663","Untrustworthy,Trustworthy","[{""page_index"":0,""viewing_time"":1232}]","1232","","","","","","","","","","","","","","","","","",""
"instructions","126","177422","0.0-8.0","631ce86c7a3ce20f628bae05","bdp_trlrn","Sat Apr 08 2023 11:46:53 GMT-0400 (Eastern Daylight Time)","556663","Untrustworthy,Trustworthy","[{""page_index"":0,""viewing_time"":5995},{""page_index"":1,""viewing_time"":5087},{""page_index"":2,""viewing_time"":5393},{""page_index"":3,""viewing_time"":6255},{""page_index"":4,""viewing_time"":2112},{""page_index"":5,""viewing_time"":1456},{""page_index"":6,""viewing_time"":10049},{""page_index"":7,""viewing_time"":3295}]","39642","","","","","","","","","","","","","","","","","",""
"html-keyboard-response","127","181646","0.0-9.0","631ce86c7a3ce20f628bae05","bdp_trlrn","Sat Apr 08 2023 11:46:53 GMT-0400 (Eastern Daylight Time)","556663","Untrustworthy,Trustworthy","","4223","","","","","","<div class='header' style='text-align:left; position: absolute; top: 5%; left: 5%;'><small>Task 3 of 5</small></div><div class='instruxDiv'><p><strong>1) What is the minimum number of points you can choose to send to your partner?</strong></p><p>a) 0</p><p>b) 1</p><p>c) 5</p>","B","","","","","","","","","","",""
"html-keyboard-response","128","182654","0.0-10.0","631ce86c7a3ce20f628bae05","bdp_trlrn","Sat Apr 08 2023 11:46:53 GMT-0400 (Eastern Daylight Time)","556663","Untrustworthy,Trustworthy","","906","","","","","","<div class='header' style='text-align:left; position: absolute; top: 5%; left: 5%;'><small>Task 3 of 5</small></div><div class='instruxDiv'><p><strong>1) What is the minimum number of points you can choose to send to your partner?</strong></p><p>a) 0</p><p style='color:#00FF00'>b) 1</p><p>c) 5</p><h3 style='color:#00FF00'>Correct!</h3><h3 class='center-content'>The correct response is b).</h3><h3 class='center-content'>The minimum number of points you can choose to send to your partner is 1 point.</h3><p><em>Press SPACEBAR to continue</em></p></div>"," ","","","","","","","","","","",""
"html-keyboard-response","129","185008","0.0-11.0","631ce86c7a3ce20f628bae05","bdp_trlrn","Sat Apr 08 2023 11:46:53 GMT-0400 (Eastern Daylight Time)","556663","Untrustworthy,Trustworthy","","2252","","","","","","<div class='header' style='text-align:left; position: absolute; top: 5%; left: 5%;'><small>Task 3 of 5</small></div><div class='instruxDiv'><p><strong>2) What is the maximum number of points you can choose to send to your partner?</strong></p><p>a) 8</p><p>b) 5</p><p>c) 3</p>","B","","","","","","","","","","",""
"html-keyboard-response","130","186638","0.0-12.0","631ce86c7a3ce20f628bae05","bdp_trlrn","Sat Apr 08 2023 11:46:53 GMT-0400 (Eastern Daylight Time)","556663","Untrustworthy,Trustworthy","","1529","","","","","","<div class='header' style='text-align:left; position: absolute; top: 5%; left: 5%;'><small>Task 3 of 5</small></div><div class='instruxDiv'><p><strong>2) What is the maximum number of points you can choose to send to your partner?</strong></p><p>a) 8</p><p style='color:#00FF00'>b) 5</p><p>c) 3</p><h3 style='color:#00FF00'>Correct!</h3><h3 class='center-content'>The correct response is b).</h3><h3 class='center-content'>The maximum number of points you can choose to send to your partner is 5 points.</h3><p><em>Press SPACEBAR to continue</em></p></div>"," ","","","","","","","","","","",""
"html-keyboard-response","131","191278","0.0-13.0","631ce86c7a3ce20f628bae05","bdp_trlrn","Sat Apr 08 2023 11:46:53 GMT-0400 (Eastern Daylight Time)","556663","Untrustworthy,Trustworthy","","4538","","","","","","<div class='header' style='text-align:left; position: absolute; top: 5%; left: 5%;'><small>Task 3 of 5</small></div><div class='instruxDiv'><p><strong>3) What happens to the amount of points you send to your partner?</strong></p><p>a) Nothing</p><p>b) It doubles</p><p>c) It quadruples</p>","C","","","","","","","","","","",""
"html-keyboard-response","132","192846","0.0-14.0","631ce86c7a3ce20f628bae05","bdp_trlrn","Sat Apr 08 2023 11:46:53 GMT-0400 (Eastern Daylight Time)","556663","Untrustworthy,Trustworthy","","1466","","","","","","<div class='header' style='text-align:left; position: absolute; top: 5%; left: 5%;'><small>Task 3 of 5</small></div><div class='instruxDiv'><p><strong>3) What happens to the amount of points you send to your partner?</strong></p><p>a) Nothing</p><p>b) It doubles</p><p style='color:#00FF00'>c) It quadruples</p><h3 style='color:#00FF00'>Correct!</h3><h3 class='center-content'>The correct response is c).</h3><h3 class='center-content'>The amount of points you send to your partner quadruples.</h3><p><em>Press SPACEBAR to continue</em></p></div>"," ","","","","","","","","","","",""
"html-keyboard-response","133","206192","0.0-15.0","631ce86c7a3ce20f628bae05","bdp_trlrn","Sat Apr 08 2023 11:46:53 GMT-0400 (Eastern Daylight Time)","556663","Untrustworthy,Trustworthy","","13244","","","","","","<div class='header' style='text-align:left; position: absolute; top: 5%; left: 5%;'><small>Task 3 of 5</small></div><div class='instruxDiv'><p><strong>4) If you decided to share 4 out of 5 points with your partner, and they decided to share half of the amount they received with you, how many points would you receive back from them on this round?</strong></p><p>a) 16</p><p>b) 0</p><p>c) 8</p>","C","","","","","","","","","","",""
"html-keyboard-response","134","207471","0.0-16.0","631ce86c7a3ce20f628bae05","bdp_trlrn","Sat Apr 08 2023 11:46:53 GMT-0400 (Eastern Daylight Time)","556663","Untrustworthy,Trustworthy","","1178","","","","","","<div class='header' style='text-align:left; position: absolute; top: 5%; left: 5%;'><small>Task 3 of 5</small></div><div class='instruxDiv'><p><strong>4) If you decided to share 4 out of 5 points with your partner, and they decided to share half of the amount they received with you, how many points would you receive back from them on this round?</strong></p><p>a) 16</p><p>b) 0</p><p style='color:#00FF00'>c) 8</p><h3 style='color:#00FF00'>Correct!</h3><h3 class='center-content'>The correct response is c).</h3><h3 class='center-content'>If you shared 4 out of 5 points with your partner and they decided to share half of the amount they received with you, you would receive 8 points back (i.e. (4 x 4)/2 = 8).</h3><p><em>Press SPACEBAR to continue</em></p></div>"," ","","","","","","","","","","",""
"html-keyboard-response","135","212574","0.0-17.0","631ce86c7a3ce20f628bae05","bdp_trlrn","Sat Apr 08 2023 11:46:53 GMT-0400 (Eastern Daylight Time)","556663","Untrustworthy,Trustworthy","","null","","","","","","<div class='header' style='text-align:left; position: absolute; top: 5%; left: 5%;'><small>Task 3 of 5</small></div><div class='instruxDiv'><p>Thank you for completing the quiz<p>These are the actual partners you will be interacting with in the next block:<p><div class='tc' align='center'><img class='introPic' src='trustrating_stim/white_mw048.bmp'><br><strong>David</strong></div><div class='bl' align='center'><img class='introPic' src='trustrating_stim/white_00223_940128_fb_edt.bmp'><br><strong>Alex</strong></div><div class='br' align='center'><img class='introPic' src='trustrating_stim/white_00120_931230_fa_edt.bmp'><br><strong>Jacob</strong></div></div><p>Across <strong>66 rounds</strong> you will interact with each partner <strong>22 times</strong> (in random order).<p style='align:center; color:white'><font <em>Press SPACEBAR to continue</em></p>","null","","","","","","","","","","",""
"instructions","136","216736","0.0-18.0","631ce86c7a3ce20f628bae05","bdp_trlrn","Sat Apr 08 2023 11:46:53 GMT-0400 (Eastern Daylight Time)","556663","Untrustworthy,Trustworthy","[{""page_index"":0,""viewing_time"":2337},{""page_index"":1,""viewing_time"":1825}]","4162","","","","","","","","","","","","","","","","","",""
"html-keyboard-response","137","220943","0.0-19.0-1.0","631ce86c7a3ce20f628bae05","bdp_trlrn","Sat Apr 08 2023 11:46:53 GMT-0400 (Eastern Daylight Time)","556663","Untrustworthy,Trustworthy","","4105","","","","decision","","<div class='trialDiv'><img src='trustrating_stim/white_00223_940128_fb_edt.bmp'><br><font class='baseline'><strong>Alex</strong><p>Choose number of points to send.</font><div class='respPicDiv'><img src='img/responseButtonOffersNo0L.png' class='respPic'></div></div>","3","1","Alex","6","Kept","0.65,0.35","9","0.65","trustrating_stim/white_00223_940128_fb_edt.bmp","4.5","5","1"
"html-keyboard-response","138","221195","0.0-19.0-2.0","631ce86c7a3ce20f628bae05","bdp_trlrn","Sat Apr 08 2023 11:46:53 GMT-0400 (Eastern Daylight Time)","556663","Untrustworthy,Trustworthy","","null","","","","decisionFB","","<div class='trialDiv'><img src='trustrating_stim/white_00223_940128_fb_edt.bmp'><br><font class='baseline'><strong>Alex</strong><p>Choose number of points to send.</font><div class='respPicDiv'><img src='img/responseButtonOffersNo0L3.png' class='respPic'></div></div>","null","1","Alex","6","Kept","0.65,0.35","9","0.65","trustrating_stim/white_00223_940128_fb_edt.bmp","4.5","2","1"
"html-keyboard-response","139","222196","0.0-19.0-3.0","631ce86c7a3ce20f628bae05","bdp_trlrn","Sat Apr 08 2023 11:46:53 GMT-0400 (Eastern Daylight Time)","556663","Untrustworthy,Trustworthy","","null","","","","feedback","","<div class='trialDiv'><img src='trustrating_stim/white_00223_940128_fb_edt.bmp'><br><font class='baseline'><strong>Alex</strong><p>Received: <strong>12</strong></font> &nbsp; &nbsp; &nbsp; &nbsp; &nbsp; &nbsp;<font class='negOutcome'>Shared back: <strong>0</strong></font></font><div class='respPicDiv'><img src='img/responseButtonOffersNo0_wht.png' class='respPic'></div></div>","null","1","Alex","6","Kept","0.65,0.35","9","0.65","trustrating_stim/white_00223_940128_fb_edt.bmp","4.5","2","1"
"html-keyboard-response","140","224079","0.0-19.0-1.1","631ce86c7a3ce20f628bae05","bdp_trlrn","Sat Apr 08 2023 11:46:53 GMT-0400 (Eastern Daylight Time)","556663","Untrustworthy,Trustworthy","","1882","","","","decision","","<div class='trialDiv'><img src='trustrating_stim/white_00120_931230_fa_edt.bmp'><br><font class='baseline'><strong>Jacob</strong><p>Choose number of points to send.</font><div class='respPicDiv'><img src='img/responseButtonOffersNo0L.png' class='respPic'></div></div>","3","1","Jacob","10","Kept","0.65,0.2","9","0.65","trustrating_stim/white_00120_931230_fa_edt.bmp","6.5","7","2"
"html-keyboard-response","141","224330","0.0-19.0-2.1","631ce86c7a3ce20f628bae05","bdp_trlrn","Sat Apr 08 2023 11:46:53 GMT-0400 (Eastern Daylight Time)","556663","Untrustworthy,Trustworthy","","null","","","","decisionFB","","<div class='trialDiv'><img src='trustrating_stim/white_00120_931230_fa_edt.bmp'><br><font class='baseline'><strong>Jacob</strong><p>Choose number of points to send.</font><div class='respPicDiv'><img src='img/responseButtonOffersNo0L3.png' class='respPic'></div></div>","null","1","Jacob","10","Kept","0.65,0.2","9","0.65","trustrating_stim/white_00120_931230_fa_edt.bmp","6.5","4","2"
"html-keyboard-response","142","225332","0.0-19.0-3.1","631ce86c7a3ce20f628bae05","bdp_trlrn","Sat Apr 08 2023 11:46:53 GMT-0400 (Eastern Daylight Time)","556663","Untrustworthy,Trustworthy","","null","","","","feedback","","<div class='trialDiv'><img src='trustrating_stim/white_00120_931230_fa_edt.bmp'><br><font class='baseline'><strong>Jacob</strong><p>Received: <strong>12</strong></font> &nbsp; &nbsp; &nbsp; &nbsp; &nbsp; &nbsp;<font class='negOutcome'>Shared back: <strong>0</strong></font></font><div class='respPicDiv'><img src='img/responseButtonOffersNo0_wht.png' class='respPic'></div></div>","null","1","Jacob","10","Kept","0.65,0.2","9","0.65","trustrating_stim/white_00120_931230_fa_edt.bmp","6.5","4","2"
"html-keyboard-response","143","227184","0.0-19.0-1.2","631ce86c7a3ce20f628bae05","bdp_trlrn","Sat Apr 08 2023 11:46:53 GMT-0400 (Eastern Daylight Time)","556663","Untrustworthy,Trustworthy","","1851","","","","decision","","<div class='trialDiv'><img src='trustrating_stim/white_mw048.bmp'><br><font class='baseline'><strong>David</strong><p>Choose number of points to send.</font><div class='respPicDiv'><img src='img/responseButtonOffersNo0L.png' class='respPic'></div></div>","1","1","David","0","Kept","0.35,0.8","10","0.35","trustrating_stim/white_mw048.bmp","2","9","3"
"html-keyboard-response","144","227436","0.0-19.0-2.2","631ce86c7a3ce20f628bae05","bdp_trlrn","Sat Apr 08 2023 11:46:53 GMT-0400 (Eastern Daylight Time)","556663","Untrustworthy,Trustworthy","","null","","","","decisionFB","","<div class='trialDiv'><img src='trustrating_stim/white_mw048.bmp'><br><font class='baseline'><strong>David</strong><p>Choose number of points to send.</font><div class='respPicDiv'><img src='img/responseButtonOffersNo0L1.png' class='respPic'></div></div>","null","1","David","0","Kept","0.35,0.8","10","0.35","trustrating_stim/white_mw048.bmp","2","8","3"
"html-keyboard-response","145","228438","0.0-19.0-3.2","631ce86c7a3ce20f628bae05","bdp_trlrn","Sat Apr 08 2023 11:46:53 GMT-0400 (Eastern Daylight Time)","556663","Untrustworthy,Trustworthy","","null","","","","feedback","","<div class='trialDiv'><img src='trustrating_stim/white_mw048.bmp'><br><font class='baseline'><strong>David</strong><p>Received: <strong>4</strong></font> &nbsp; &nbsp; &nbsp; &nbsp; &nbsp; &nbsp;<font class='negOutcome'>Shared back: <strong>0</strong></font></font><div class='respPicDiv'><img src='img/responseButtonOffersNo0_wht.png' class='respPic'></div></div>","null","1","David","0","Kept","0.35,0.8","10","0.35","trustrating_stim/white_mw048.bmp","2","8","3"
"html-keyboard-response","146","231071","0.0-19.0-1.3","631ce86c7a3ce20f628bae05","bdp_trlrn","Sat Apr 08 2023 11:46:53 GMT-0400 (Eastern Daylight Time)","556663","Untrustworthy,Trustworthy","","2632","","","","decision","","<div class='trialDiv'><img src='trustrating_stim/white_00223_940128_fb_edt.bmp'><br><font class='baseline'><strong>Alex</strong><p>Choose number of points to send.</font><div class='respPicDiv'><img src='img/responseButtonOffersNo0L.png' class='respPic'></div></div>","1","2","Alex","6","Kept","0.65,0.35","9","0.65","trustrating_stim/white_00223_940128_fb_edt.bmp","4.5","13","4"
"html-keyboard-response","147","231322","0.0-19.0-2.3","631ce86c7a3ce20f628bae05","bdp_trlrn","Sat Apr 08 2023 11:46:53 GMT-0400 (Eastern Daylight Time)","556663","Untrustworthy,Trustworthy","","null","","","","decisionFB","","<div class='trialDiv'><img src='trustrating_stim/white_00223_940128_fb_edt.bmp'><br><font class='baseline'><strong>Alex</strong><p>Choose number of points to send.</font><div class='respPicDiv'><img src='img/responseButtonOffersNo0L1.png' class='respPic'></div></div>","null","2","Alex","6","Kept","0.65,0.35","9","0.65","trustrating_stim/white_00223_940128_fb_edt.bmp","4.5","12","4"
"html-keyboard-response","148","232325","0.0-19.0-3.3","631ce86c7a3ce20f628bae05","bdp_trlrn","Sat Apr 08 2023 11:46:53 GMT-0400 (Eastern Daylight Time)","556663","Untrustworthy,Trustworthy","","null","","","","feedback","","<div class='trialDiv'><img src='trustrating_stim/white_00223_940128_fb_edt.bmp'><br><font class='baseline'><strong>Alex</strong><p>Received: <strong>4</strong></font> &nbsp; &nbsp; &nbsp; &nbsp; &nbsp; &nbsp;<font class='negOutcome'>Shared back: <strong>0</strong></font></font><div class='respPicDiv'><img src='img/responseButtonOffersNo0_wht.png' class='respPic'></div></div>","null","2","Alex","6","Kept","0.65,0.35","9","0.65","trustrating_stim/white_00223_940128_fb_edt.bmp","4.5","12","4"
"html-keyboard-response","149","234479","0.0-19.0-1.4","631ce86c7a3ce20f628bae05","bdp_trlrn","Sat Apr 08 2023 11:46:53 GMT-0400 (Eastern Daylight Time)","556663","Untrustworthy,Trustworthy","","2153","","","","decision","","<div class='trialDiv'><img src='trustrating_stim/white_mw048.bmp'><br><font class='baseline'><strong>David</strong><p>Choose number of points to send.</font><div class='respPicDiv'><img src='img/responseButtonOffersNo0L.png' class='respPic'></div></div>","2","2","David","0","Kept","0.35,0.8","10","0.35","trustrating_stim/white_mw048.bmp","2","17","5"
"html-keyboard-response","150","234731","0.0-19.0-2.4","631ce86c7a3ce20f628bae05","bdp_trlrn","Sat Apr 08 2023 11:46:53 GMT-0400 (Eastern Daylight Time)","556663","Untrustworthy,Trustworthy","","null","","","","decisionFB","","<div class='trialDiv'><img src='trustrating_stim/white_mw048.bmp'><br><font class='baseline'><strong>David</strong><p>Choose number of points to send.</font><div class='respPicDiv'><img src='img/responseButtonOffersNo0L2.png' class='respPic'></div></div>","null","2","David","0","Kept","0.35,0.8","10","0.35","trustrating_stim/white_mw048.bmp","2","15","5"
"html-keyboard-response","151","235733","0.0-19.0-3.4","631ce86c7a3ce20f628bae05","bdp_trlrn","Sat Apr 08 2023 11:46:53 GMT-0400 (Eastern Daylight Time)","556663","Untrustworthy,Trustworthy","","null","","","","feedback","","<div class='trialDiv'><img src='trustrating_stim/white_mw048.bmp'><br><font class='baseline'><strong>David</strong><p>Received: <strong>8</strong></font> &nbsp; &nbsp; &nbsp; &nbsp; &nbsp; &nbsp;<font class='negOutcome'>Shared back: <strong>0</strong></font></font><div class='respPicDiv'><img src='img/responseButtonOffersNo0_wht.png' class='respPic'></div></div>","null","2","David","0","Kept","0.35,0.8","10","0.35","trustrating_stim/white_mw048.bmp","2","15","5"
"html-keyboard-response","152","237216","0.0-19.0-1.5","631ce86c7a3ce20f628bae05","bdp_trlrn","Sat Apr 08 2023 11:46:53 GMT-0400 (Eastern Daylight Time)","556663","Untrustworthy,Trustworthy","","1482","","","","decision","","<div class='trialDiv'><img src='trustrating_stim/white_00120_931230_fa_edt.bmp'><br><font class='baseline'><strong>Jacob</strong><p>Choose number of points to send.</font><div class='respPicDiv'><img src='img/responseButtonOffersNo0L.png' class='respPic'></div></div>","2","2","Jacob","10","Shared","0.65,0.2","9","0.65","trustrating_stim/white_00120_931230_fa_edt.bmp","6.5","20","6"
"html-keyboard-response","153","237467","0.0-19.0-2.5","631ce86c7a3ce20f628bae05","bdp_trlrn","Sat Apr 08 2023 11:46:53 GMT-0400 (Eastern Daylight Time)","556663","Untrustworthy,Trustworthy","","null","","","","decisionFB","","<div class='trialDiv'><img src='trustrating_stim/white_00120_931230_fa_edt.bmp'><br><font class='baseline'><strong>Jacob</strong><p>Choose number of points to send.</font><div class='respPicDiv'><img src='img/responseButtonOffersNo0L2.png' class='respPic'></div></div>","null","2","Jacob","10","Shared","0.65,0.2","9","0.65","trustrating_stim/white_00120_931230_fa_edt.bmp","6.5","18","6"
"html-keyboard-response","154","238469","0.0-19.0-3.5","631ce86c7a3ce20f628bae05","bdp_trlrn","Sat Apr 08 2023 11:46:53 GMT-0400 (Eastern Daylight Time)","556663","Untrustworthy,Trustworthy","","null","","","","feedback","","<div class='trialDiv'><img src='trustrating_stim/white_00120_931230_fa_edt.bmp'><br><font class='baseline'><strong>Jacob</strong><p>Received: <strong>8</strong></font> &nbsp; &nbsp; &nbsp; &nbsp; &nbsp; &nbsp;<font class='posOutcome'>Shared back: <strong>4</strong></font></font><div class='respPicDiv'><img src='img/responseButtonOffersNo0_wht.png' class='respPic'></div></div>","null","2","Jacob","10","Shared","0.65,0.2","9","0.65","trustrating_stim/white_00120_931230_fa_edt.bmp","6.5","22","6"
"html-keyboard-response","155","239887","0.0-19.0-1.6","631ce86c7a3ce20f628bae05","bdp_trlrn","Sat Apr 08 2023 11:46:53 GMT-0400 (Eastern Daylight Time)","556663","Untrustworthy,Trustworthy","","1417","","","","decision","","<div class='trialDiv'><img src='trustrating_stim/white_00223_940128_fb_edt.bmp'><br><font class='baseline'><strong>Alex</strong><p>Choose number of points to send.</font><div class='respPicDiv'><img src='img/responseButtonOffersNo0L.png' class='respPic'></div></div>","1","3","Alex","6","Shared","0.65,0.35","9","0.65","trustrating_stim/white_00223_940128_fb_edt.bmp","4.5","27","7"
"html-keyboard-response","156","240139","0.0-19.0-2.6","631ce86c7a3ce20f628bae05","bdp_trlrn","Sat Apr 08 2023 11:46:53 GMT-0400 (Eastern Daylight Time)","556663","Untrustworthy,Trustworthy","","null","","","","decisionFB","","<div class='trialDiv'><img src='trustrating_stim/white_00223_940128_fb_edt.bmp'><br><font class='baseline'><strong>Alex</strong><p>Choose number of points to send.</font><div class='respPicDiv'><img src='img/responseButtonOffersNo0L1.png' class='respPic'></div></div>","null","3","Alex","6","Shared","0.65,0.35","9","0.65","trustrating_stim/white_00223_940128_fb_edt.bmp","4.5","26","7"
"html-keyboard-response","157","241140","0.0-19.0-3.6","631ce86c7a3ce20f628bae05","bdp_trlrn","Sat Apr 08 2023 11:46:53 GMT-0400 (Eastern Daylight Time)","556663","Untrustworthy,Trustworthy","","null","","","","feedback","","<div class='trialDiv'><img src='trustrating_stim/white_00223_940128_fb_edt.bmp'><br><font class='baseline'><strong>Alex</strong><p>Received: <strong>4</strong></font> &nbsp; &nbsp; &nbsp; &nbsp; &nbsp; &nbsp;<font class='posOutcome'>Shared back: <strong>2</strong></font></font><div class='respPicDiv'><img src='img/responseButtonOffersNo0_wht.png' class='respPic'></div></div>","null","3","Alex","6","Shared","0.65,0.35","9","0.65","trustrating_stim/white_00223_940128_fb_edt.bmp","4.5","28","7"
"html-keyboard-response","158","242415","0.0-19.0-1.7","631ce86c7a3ce20f628bae05","bdp_trlrn","Sat Apr 08 2023 11:46:53 GMT-0400 (Eastern Daylight Time)","556663","Untrustworthy,Trustworthy","","1274","","","","decision","","<div class='trialDiv'><img src='trustrating_stim/white_00120_931230_fa_edt.bmp'><br><font class='baseline'><strong>Jacob</strong><p>Choose number of points to send.</font><div class='respPicDiv'><img src='img/responseButtonOffersNo0L.png' class='respPic'></div></div>","3","3","Jacob","10","Kept","0.65,0.2","9","0.65","trustrating_stim/white_00120_931230_fa_edt.bmp","6.5","33","8"
"html-keyboard-response","159","242667","0.0-19.0-2.7","631ce86c7a3ce20f628bae05","bdp_trlrn","Sat Apr 08 2023 11:46:53 GMT-0400 (Eastern Daylight Time)","556663","Untrustworthy,Trustworthy","","null","","","","decisionFB","","<div class='trialDiv'><img src='trustrating_stim/white_00120_931230_fa_edt.bmp'><br><font class='baseline'><strong>Jacob</strong><p>Choose number of points to send.</font><div class='respPicDiv'><img src='img/responseButtonOffersNo0L3.png' class='respPic'></div></div>","null","3","Jacob","10","Kept","0.65,0.2","9","0.65","trustrating_stim/white_00120_931230_fa_edt.bmp","6.5","30","8"
"html-keyboard-response","160","243669","0.0-19.0-3.7","631ce86c7a3ce20f628bae05","bdp_trlrn","Sat Apr 08 2023 11:46:53 GMT-0400 (Eastern Daylight Time)","556663","Untrustworthy,Trustworthy","","null","","","","feedback","","<div class='trialDiv'><img src='trustrating_stim/white_00120_931230_fa_edt.bmp'><br><font class='baseline'><strong>Jacob</strong><p>Received: <strong>12</strong></font> &nbsp; &nbsp; &nbsp; &nbsp; &nbsp; &nbsp;<font class='negOutcome'>Shared back: <strong>0</strong></font></font><div class='respPicDiv'><img src='img/responseButtonOffersNo0_wht.png' class='respPic'></div></div>","null","3","Jacob","10","Kept","0.65,0.2","9","0.65","trustrating_stim/white_00120_931230_fa_edt.bmp","6.5","30","8"
"html-keyboard-response","161","244703","0.0-19.0-1.8","631ce86c7a3ce20f628bae05","bdp_trlrn","Sat Apr 08 2023 11:46:53 GMT-0400 (Eastern Daylight Time)","556663","Untrustworthy,Trustworthy","","1033","","","","decision","","<div class='trialDiv'><img src='trustrating_stim/white_mw048.bmp'><br><font class='baseline'><strong>David</strong><p>Choose number of points to send.</font><div class='respPicDiv'><img src='img/responseButtonOffersNo0L.png' class='respPic'></div></div>","1","3","David","0","Kept","0.35,0.8","10","0.35","trustrating_stim/white_mw048.bmp","2","35","9"
"html-keyboard-response","162","244954","0.0-19.0-2.8","631ce86c7a3ce20f628bae05","bdp_trlrn","Sat Apr 08 2023 11:46:53 GMT-0400 (Eastern Daylight Time)","556663","Untrustworthy,Trustworthy","","null","","","","decisionFB","","<div class='trialDiv'><img src='trustrating_stim/white_mw048.bmp'><br><font class='baseline'><strong>David</strong><p>Choose number of points to send.</font><div class='respPicDiv'><img src='img/responseButtonOffersNo0L1.png' class='respPic'></div></div>","null","3","David","0","Kept","0.35,0.8","10","0.35","trustrating_stim/white_mw048.bmp","2","34","9"
"html-keyboard-response","163","245956","0.0-19.0-3.8","631ce86c7a3ce20f628bae05","bdp_trlrn","Sat Apr 08 2023 11:46:53 GMT-0400 (Eastern Daylight Time)","556663","Untrustworthy,Trustworthy","","null","","","","feedback","","<div class='trialDiv'><img src='trustrating_stim/white_mw048.bmp'><br><font class='baseline'><strong>David</strong><p>Received: <strong>4</strong></font> &nbsp; &nbsp; &nbsp; &nbsp; &nbsp; &nbsp;<font class='negOutcome'>Shared back: <strong>0</strong></font></font><div class='respPicDiv'><img src='img/responseButtonOffersNo0_wht.png' class='respPic'></div></div>","null","3","David","0","Kept","0.35,0.8","10","0.35","trustrating_stim/white_mw048.bmp","2","34","9"
"html-keyboard-response","164","246975","0.0-19.0-1.9","631ce86c7a3ce20f628bae05","bdp_trlrn","Sat Apr 08 2023 11:46:53 GMT-0400 (Eastern Daylight Time)","556663","Untrustworthy,Trustworthy","","1018","","","","decision","","<div class='trialDiv'><img src='trustrating_stim/white_00223_940128_fb_edt.bmp'><br><font class='baseline'><strong>Alex</strong><p>Choose number of points to send.</font><div class='respPicDiv'><img src='img/responseButtonOffersNo0L.png' class='respPic'></div></div>","2","4","Alex","6","Shared","0.65,0.35","9","0.65","trustrating_stim/white_00223_940128_fb_edt.bmp","4.5","39","10"
"html-keyboard-response","165","247226","0.0-19.0-2.9","631ce86c7a3ce20f628bae05","bdp_trlrn","Sat Apr 08 2023 11:46:53 GMT-0400 (Eastern Daylight Time)","556663","Untrustworthy,Trustworthy","","null","","","","decisionFB","","<div class='trialDiv'><img src='trustrating_stim/white_00223_940128_fb_edt.bmp'><br><font class='baseline'><strong>Alex</strong><p>Choose number of points to send.</font><div class='respPicDiv'><img src='img/responseButtonOffersNo0L2.png' class='respPic'></div></div>","null","4","Alex","6","Shared","0.65,0.35","9","0.65","trustrating_stim/white_00223_940128_fb_edt.bmp","4.5","37","10"
"html-keyboard-response","166","248228","0.0-19.0-3.9","631ce86c7a3ce20f628bae05","bdp_trlrn","Sat Apr 08 2023 11:46:53 GMT-0400 (Eastern Daylight Time)","556663","Untrustworthy,Trustworthy","","null","","","","feedback","","<div class='trialDiv'><img src='trustrating_stim/white_00223_940128_fb_edt.bmp'><br><font class='baseline'><strong>Alex</strong><p>Received: <strong>8</strong></font> &nbsp; &nbsp; &nbsp; &nbsp; &nbsp; &nbsp;<font class='posOutcome'>Shared back: <strong>4</strong></font></font><div class='respPicDiv'><img src='img/responseButtonOffersNo0_wht.png' class='respPic'></div></div>","null","4","Alex","6","Shared","0.65,0.35","9","0.65","trustrating_stim/white_00223_940128_fb_edt.bmp","4.5","41","10"
"html-keyboard-response","167","249681","0.0-19.0-1.10","631ce86c7a3ce20f628bae05","bdp_trlrn","Sat Apr 08 2023 11:46:53 GMT-0400 (Eastern Daylight Time)","556663","Untrustworthy,Trustworthy","","1451","","","","decision","","<div class='trialDiv'><img src='trustrating_stim/white_00120_931230_fa_edt.bmp'><br><font class='baseline'><strong>Jacob</strong><p>Choose number of points to send.</font><div class='respPicDiv'><img src='img/responseButtonOffersNo0L.png' class='respPic'></div></div>","2","4","Jacob","10","Kept","0.65,0.2","9","0.65","trustrating_stim/white_00120_931230_fa_edt.bmp","6.5","46","11"
"html-keyboard-response","168","249932","0.0-19.0-2.10","631ce86c7a3ce20f628bae05","bdp_trlrn","Sat Apr 08 2023 11:46:53 GMT-0400 (Eastern Daylight Time)","556663","Untrustworthy,Trustworthy","","null","","","","decisionFB","","<div class='trialDiv'><img src='trustrating_stim/white_00120_931230_fa_edt.bmp'><br><font class='baseline'><strong>Jacob</strong><p>Choose number of points to send.</font><div class='respPicDiv'><img src='img/responseButtonOffersNo0L2.png' class='respPic'></div></div>","null","4","Jacob","10","Kept","0.65,0.2","9","0.65","trustrating_stim/white_00120_931230_fa_edt.bmp","6.5","44","11"
"html-keyboard-response","169","250934","0.0-19.0-3.10","631ce86c7a3ce20f628bae05","bdp_trlrn","Sat Apr 08 2023 11:46:53 GMT-0400 (Eastern Daylight Time)","556663","Untrustworthy,Trustworthy","","null","","","","feedback","","<div class='trialDiv'><img src='trustrating_stim/white_00120_931230_fa_edt.bmp'><br><font class='baseline'><strong>Jacob</strong><p>Received: <strong>8</strong></font> &nbsp; &nbsp; &nbsp; &nbsp; &nbsp; &nbsp;<font class='negOutcome'>Shared back: <strong>0</strong></font></font><div class='respPicDiv'><img src='img/responseButtonOffersNo0_wht.png' class='respPic'></div></div>","null","4","Jacob","10","Kept","0.65,0.2","9","0.65","trustrating_stim/white_00120_931230_fa_edt.bmp","6.5","44","11"
"html-keyboard-response","170","251919","0.0-19.0-1.11","631ce86c7a3ce20f628bae05","bdp_trlrn","Sat Apr 08 2023 11:46:53 GMT-0400 (Eastern Daylight Time)","556663","Untrustworthy,Trustworthy","","984","","","","decision","","<div class='trialDiv'><img src='trustrating_stim/white_mw048.bmp'><br><font class='baseline'><strong>David</strong><p>Choose number of points to send.</font><div class='respPicDiv'><img src='img/responseButtonOffersNo0L.png' class='respPic'></div></div>","1","4","David","0","Shared","0.35,0.8","10","0.35","trustrating_stim/white_mw048.bmp","2","49","12"
"html-keyboard-response","171","252172","0.0-19.0-2.11","631ce86c7a3ce20f628bae05","bdp_trlrn","Sat Apr 08 2023 11:46:53 GMT-0400 (Eastern Daylight Time)","556663","Untrustworthy,Trustworthy","","null","","","","decisionFB","","<div class='trialDiv'><img src='trustrating_stim/white_mw048.bmp'><br><font class='baseline'><strong>David</strong><p>Choose number of points to send.</font><div class='respPicDiv'><img src='img/responseButtonOffersNo0L1.png' class='respPic'></div></div>","null","4","David","0","Shared","0.35,0.8","10","0.35","trustrating_stim/white_mw048.bmp","2","48","12"
"html-keyboard-response","172","253173","0.0-19.0-3.11","631ce86c7a3ce20f628bae05","bdp_trlrn","Sat Apr 08 2023 11:46:53 GMT-0400 (Eastern Daylight Time)","556663","Untrustworthy,Trustworthy","","null","","","","feedback","","<div class='trialDiv'><img src='trustrating_stim/white_mw048.bmp'><br><font class='baseline'><strong>David</strong><p>Received: <strong>4</strong></font> &nbsp; &nbsp; &nbsp; &nbsp; &nbsp; &nbsp;<font class='posOutcome'>Shared back: <strong>2</strong></font></font><div class='respPicDiv'><img src='img/responseButtonOffersNo0_wht.png' class='respPic'></div></div>","null","4","David","0","Shared","0.35,0.8","10","0.35","trustrating_stim/white_mw048.bmp","2","50","12"
"html-keyboard-response","173","254335","0.0-19.0-1.12","631ce86c7a3ce20f628bae05","bdp_trlrn","Sat Apr 08 2023 11:46:53 GMT-0400 (Eastern Daylight Time)","556663","Untrustworthy,Trustworthy","","1162","","","","decision","","<div class='trialDiv'><img src='trustrating_stim/white_00120_931230_fa_edt.bmp'><br><font class='baseline'><strong>Jacob</strong><p>Choose number of points to send.</font><div class='respPicDiv'><img src='img/responseButtonOffersNo0L.png' class='respPic'></div></div>","3","5","Jacob","10","Shared","0.65,0.2","9","0.65","trustrating_stim/white_00120_931230_fa_edt.bmp","6.5","55","13"
"html-keyboard-response","174","254587","0.0-19.0-2.12","631ce86c7a3ce20f628bae05","bdp_trlrn","Sat Apr 08 2023 11:46:53 GMT-0400 (Eastern Daylight Time)","556663","Untrustworthy,Trustworthy","","null","","","","decisionFB","","<div class='trialDiv'><img src='trustrating_stim/white_00120_931230_fa_edt.bmp'><br><font class='baseline'><strong>Jacob</strong><p>Choose number of points to send.</font><div class='respPicDiv'><img src='img/responseButtonOffersNo0L3.png' class='respPic'></div></div>","null","5","Jacob","10","Shared","0.65,0.2","9","0.65","trustrating_stim/white_00120_931230_fa_edt.bmp","6.5","52","13"
"html-keyboard-response","175","255590","0.0-19.0-3.12","631ce86c7a3ce20f628bae05","bdp_trlrn","Sat Apr 08 2023 11:46:53 GMT-0400 (Eastern Daylight Time)","556663","Untrustworthy,Trustworthy","","null","","","","feedback","","<div class='trialDiv'><img src='trustrating_stim/white_00120_931230_fa_edt.bmp'><br><font class='baseline'><strong>Jacob</strong><p>Received: <strong>12</strong></font> &nbsp; &nbsp; &nbsp; &nbsp; &nbsp; &nbsp;<font class='posOutcome'>Shared back: <strong>6</strong></font></font><div class='respPicDiv'><img src='img/responseButtonOffersNo0_wht.png' class='respPic'></div></div>","null","5","Jacob","10","Shared","0.65,0.2","9","0.65","trustrating_stim/white_00120_931230_fa_edt.bmp","6.5","58","13"
"html-keyboard-response","176","257551","0.0-19.0-1.13","631ce86c7a3ce20f628bae05","bdp_trlrn","Sat Apr 08 2023 11:46:53 GMT-0400 (Eastern Daylight Time)","556663","Untrustworthy,Trustworthy","","1961","","","","decision","","<div class='trialDiv'><img src='trustrating_stim/white_mw048.bmp'><br><font class='baseline'><strong>David</strong><p>Choose number of points to send.</font><div class='respPicDiv'><img src='img/responseButtonOffersNo0L.png' class='respPic'></div></div>","2","5","David","0","Kept","0.35,0.8","10","0.35","trustrating_stim/white_mw048.bmp","2","63","14"
"html-keyboard-response","177","257803","0.0-19.0-2.13","631ce86c7a3ce20f628bae05","bdp_trlrn","Sat Apr 08 2023 11:46:53 GMT-0400 (Eastern Daylight Time)","556663","Untrustworthy,Trustworthy","","null","","","","decisionFB","","<div class='trialDiv'><img src='trustrating_stim/white_mw048.bmp'><br><font class='baseline'><strong>David</strong><p>Choose number of points to send.</font><div class='respPicDiv'><img src='img/responseButtonOffersNo0L2.png' class='respPic'></div></div>","null","5","David","0","Kept","0.35,0.8","10","0.35","trustrating_stim/white_mw048.bmp","2","61","14"
"html-keyboard-response","178","258804","0.0-19.0-3.13","631ce86c7a3ce20f628bae05","bdp_trlrn","Sat Apr 08 2023 11:46:53 GMT-0400 (Eastern Daylight Time)","556663","Untrustworthy,Trustworthy","","null","","","","feedback","","<div class='trialDiv'><img src='trustrating_stim/white_mw048.bmp'><br><font class='baseline'><strong>David</strong><p>Received: <strong>8</strong></font> &nbsp; &nbsp; &nbsp; &nbsp; &nbsp; &nbsp;<font class='negOutcome'>Shared back: <strong>0</strong></font></font><div class='respPicDiv'><img src='img/responseButtonOffersNo0_wht.png' class='respPic'></div></div>","null","5","David","0","Kept","0.35,0.8","10","0.35","trustrating_stim/white_mw048.bmp","2","61","14"
"html-keyboard-response","179","260112","0.0-19.0-1.14","631ce86c7a3ce20f628bae05","bdp_trlrn","Sat Apr 08 2023 11:46:53 GMT-0400 (Eastern Daylight Time)","556663","Untrustworthy,Trustworthy","","1307","","","","decision","","<div class='trialDiv'><img src='trustrating_stim/white_00223_940128_fb_edt.bmp'><br><font class='baseline'><strong>Alex</strong><p>Choose number of points to send.</font><div class='respPicDiv'><img src='img/responseButtonOffersNo0L.png' class='respPic'></div></div>","3","5","Alex","6","Kept","0.65,0.35","9","0.65","trustrating_stim/white_00223_940128_fb_edt.bmp","4.5","66","15"
"html-keyboard-response","180","260363","0.0-19.0-2.14","631ce86c7a3ce20f628bae05","bdp_trlrn","Sat Apr 08 2023 11:46:53 GMT-0400 (Eastern Daylight Time)","556663","Untrustworthy,Trustworthy","","null","","","","decisionFB","","<div class='trialDiv'><img src='trustrating_stim/white_00223_940128_fb_edt.bmp'><br><font class='baseline'><strong>Alex</strong><p>Choose number of points to send.</font><div class='respPicDiv'><img src='img/responseButtonOffersNo0L3.png' class='respPic'></div></div>","null","5","Alex","6","Kept","0.65,0.35","9","0.65","trustrating_stim/white_00223_940128_fb_edt.bmp","4.5","63","15"
"html-keyboard-response","181","261364","0.0-19.0-3.14","631ce86c7a3ce20f628bae05","bdp_trlrn","Sat Apr 08 2023 11:46:53 GMT-0400 (Eastern Daylight Time)","556663","Untrustworthy,Trustworthy","","null","","","","feedback","","<div class='trialDiv'><img src='trustrating_stim/white_00223_940128_fb_edt.bmp'><br><font class='baseline'><strong>Alex</strong><p>Received: <strong>12</strong></font> &nbsp; &nbsp; &nbsp; &nbsp; &nbsp; &nbsp;<font class='negOutcome'>Shared back: <strong>0</strong></font></font><div class='respPicDiv'><img src='img/responseButtonOffersNo0_wht.png' class='respPic'></div></div>","null","5","Alex","6","Kept","0.65,0.35","9","0.65","trustrating_stim/white_00223_940128_fb_edt.bmp","4.5","63","15"
"html-keyboard-response","182","262191","0.0-19.0-1.15","631ce86c7a3ce20f628bae05","bdp_trlrn","Sat Apr 08 2023 11:46:53 GMT-0400 (Eastern Daylight Time)","556663","Untrustworthy,Trustworthy","","826","","","","decision","","<div class='trialDiv'><img src='trustrating_stim/white_00120_931230_fa_edt.bmp'><br><font class='baseline'><strong>Jacob</strong><p>Choose number of points to send.</font><div class='respPicDiv'><img src='img/responseButtonOffersNo0L.png' class='respPic'></div></div>","3","6","Jacob","10","Shared","0.65,0.2","9","0.65","trustrating_stim/white_00120_931230_fa_edt.bmp","6.5","68","16"
"html-keyboard-response","183","262442","0.0-19.0-2.15","631ce86c7a3ce20f628bae05","bdp_trlrn","Sat Apr 08 2023 11:46:53 GMT-0400 (Eastern Daylight Time)","556663","Untrustworthy,Trustworthy","","null","","","","decisionFB","","<div class='trialDiv'><img src='trustrating_stim/white_00120_931230_fa_edt.bmp'><br><font class='baseline'><strong>Jacob</strong><p>Choose number of points to send.</font><div class='respPicDiv'><img src='img/responseButtonOffersNo0L3.png' class='respPic'></div></div>","null","6","Jacob","10","Shared","0.65,0.2","9","0.65","trustrating_stim/white_00120_931230_fa_edt.bmp","6.5","65","16"
"html-keyboard-response","184","263445","0.0-19.0-3.15","631ce86c7a3ce20f628bae05","bdp_trlrn","Sat Apr 08 2023 11:46:53 GMT-0400 (Eastern Daylight Time)","556663","Untrustworthy,Trustworthy","","null","","","","feedback","","<div class='trialDiv'><img src='trustrating_stim/white_00120_931230_fa_edt.bmp'><br><font class='baseline'><strong>Jacob</strong><p>Received: <strong>12</strong></font> &nbsp; &nbsp; &nbsp; &nbsp; &nbsp; &nbsp;<font class='posOutcome'>Shared back: <strong>6</strong></font></font><div class='respPicDiv'><img src='img/responseButtonOffersNo0_wht.png' class='respPic'></div></div>","null","6","Jacob","10","Shared","0.65,0.2","9","0.65","trustrating_stim/white_00120_931230_fa_edt.bmp","6.5","71","16"
"html-keyboard-response","185","265551","0.0-19.0-1.16","631ce86c7a3ce20f628bae05","bdp_trlrn","Sat Apr 08 2023 11:46:53 GMT-0400 (Eastern Daylight Time)","556663","Untrustworthy,Trustworthy","","2105","","","","decision","","<div class='trialDiv'><img src='trustrating_stim/white_mw048.bmp'><br><font class='baseline'><strong>David</strong><p>Choose number of points to send.</font><div class='respPicDiv'><img src='img/responseButtonOffersNo0L.png' class='respPic'></div></div>","3","6","David","0","Shared","0.35,0.8","10","0.35","trustrating_stim/white_mw048.bmp","2","76","17"
"html-keyboard-response","186","265802","0.0-19.0-2.16","631ce86c7a3ce20f628bae05","bdp_trlrn","Sat Apr 08 2023 11:46:53 GMT-0400 (Eastern Daylight Time)","556663","Untrustworthy,Trustworthy","","null","","","","decisionFB","","<div class='trialDiv'><img src='trustrating_stim/white_mw048.bmp'><br><font class='baseline'><strong>David</strong><p>Choose number of points to send.</font><div class='respPicDiv'><img src='img/responseButtonOffersNo0L3.png' class='respPic'></div></div>","null","6","David","0","Shared","0.35,0.8","10","0.35","trustrating_stim/white_mw048.bmp","2","73","17"
"html-keyboard-response","187","266804","0.0-19.0-3.16","631ce86c7a3ce20f628bae05","bdp_trlrn","Sat Apr 08 2023 11:46:53 GMT-0400 (Eastern Daylight Time)","556663","Untrustworthy,Trustworthy","","null","","","","feedback","","<div class='trialDiv'><img src='trustrating_stim/white_mw048.bmp'><br><font class='baseline'><strong>David</strong><p>Received: <strong>12</strong></font> &nbsp; &nbsp; &nbsp; &nbsp; &nbsp; &nbsp;<font class='posOutcome'>Shared back: <strong>6</strong></font></font><div class='respPicDiv'><img src='img/responseButtonOffersNo0_wht.png' class='respPic'></div></div>","null","6","David","0","Shared","0.35,0.8","10","0.35","trustrating_stim/white_mw048.bmp","2","79","17"
"html-keyboard-response","188","268559","0.0-19.0-1.17","631ce86c7a3ce20f628bae05","bdp_trlrn","Sat Apr 08 2023 11:46:53 GMT-0400 (Eastern Daylight Time)","556663","Untrustworthy,Trustworthy","","1754","","","","decision","","<div class='trialDiv'><img src='trustrating_stim/white_00223_940128_fb_edt.bmp'><br><font class='baseline'><strong>Alex</strong><p>Choose number of points to send.</font><div class='respPicDiv'><img src='img/responseButtonOffersNo0L.png' class='respPic'></div></div>","2","6","Alex","6","Shared","0.65,0.35","9","0.65","trustrating_stim/white_00223_940128_fb_edt.bmp","4.5","84","18"
"html-keyboard-response","189","268810","0.0-19.0-2.17","631ce86c7a3ce20f628bae05","bdp_trlrn","Sat Apr 08 2023 11:46:53 GMT-0400 (Eastern Daylight Time)","556663","Untrustworthy,Trustworthy","","null","","","","decisionFB","","<div class='trialDiv'><img src='trustrating_stim/white_00223_940128_fb_edt.bmp'><br><font class='baseline'><strong>Alex</strong><p>Choose number of points to send.</font><div class='respPicDiv'><img src='img/responseButtonOffersNo0L2.png' class='respPic'></div></div>","null","6","Alex","6","Shared","0.65,0.35","9","0.65","trustrating_stim/white_00223_940128_fb_edt.bmp","4.5","82","18"
"html-keyboard-response","190","269811","0.0-19.0-3.17","631ce86c7a3ce20f628bae05","bdp_trlrn","Sat Apr 08 2023 11:46:53 GMT-0400 (Eastern Daylight Time)","556663","Untrustworthy,Trustworthy","","null","","","","feedback","","<div class='trialDiv'><img src='trustrating_stim/white_00223_940128_fb_edt.bmp'><br><font class='baseline'><strong>Alex</strong><p>Received: <strong>8</strong></font> &nbsp; &nbsp; &nbsp; &nbsp; &nbsp; &nbsp;<font class='posOutcome'>Shared back: <strong>4</strong></font></font><div class='respPicDiv'><img src='img/responseButtonOffersNo0_wht.png' class='respPic'></div></div>","null","6","Alex","6","Shared","0.65,0.35","9","0.65","trustrating_stim/white_00223_940128_fb_edt.bmp","4.5","86","18"
"html-keyboard-response","191","270800","0.0-19.0-1.18","631ce86c7a3ce20f628bae05","bdp_trlrn","Sat Apr 08 2023 11:46:53 GMT-0400 (Eastern Daylight Time)","556663","Untrustworthy,Trustworthy","","988","","","","decision","","<div class='trialDiv'><img src='trustrating_stim/white_00120_931230_fa_edt.bmp'><br><font class='baseline'><strong>Jacob</strong><p>Choose number of points to send.</font><div class='respPicDiv'><img src='img/responseButtonOffersNo0L.png' class='respPic'></div></div>","3","7","Jacob","10","Shared","0.65,0.2","9","0.65","trustrating_stim/white_00120_931230_fa_edt.bmp","6.5","91","19"
"html-keyboard-response","192","271051","0.0-19.0-2.18","631ce86c7a3ce20f628bae05","bdp_trlrn","Sat Apr 08 2023 11:46:53 GMT-0400 (Eastern Daylight Time)","556663","Untrustworthy,Trustworthy","","null","","","","decisionFB","","<div class='trialDiv'><img src='trustrating_stim/white_00120_931230_fa_edt.bmp'><br><font class='baseline'><strong>Jacob</strong><p>Choose number of points to send.</font><div class='respPicDiv'><img src='img/responseButtonOffersNo0L3.png' class='respPic'></div></div>","null","7","Jacob","10","Shared","0.65,0.2","9","0.65","trustrating_stim/white_00120_931230_fa_edt.bmp","6.5","88","19"
"html-keyboard-response","193","272053","0.0-19.0-3.18","631ce86c7a3ce20f628bae05","bdp_trlrn","Sat Apr 08 2023 11:46:53 GMT-0400 (Eastern Daylight Time)","556663","Untrustworthy,Trustworthy","","null","","","","feedback","","<div class='trialDiv'><img src='trustrating_stim/white_00120_931230_fa_edt.bmp'><br><font class='baseline'><strong>Jacob</strong><p>Received: <strong>12</strong></font> &nbsp; &nbsp; &nbsp; &nbsp; &nbsp; &nbsp;<font class='posOutcome'>Shared back: <strong>6</strong></font></font><div class='respPicDiv'><img src='img/responseButtonOffersNo0_wht.png' class='respPic'></div></div>","null","7","Jacob","10","Shared","0.65,0.2","9","0.65","trustrating_stim/white_00120_931230_fa_edt.bmp","6.5","94","19"
"html-keyboard-response","194","274095","0.0-19.0-1.19","631ce86c7a3ce20f628bae05","bdp_trlrn","Sat Apr 08 2023 11:46:53 GMT-0400 (Eastern Daylight Time)","556663","Untrustworthy,Trustworthy","","2042","","","","decision","","<div class='trialDiv'><img src='trustrating_stim/white_mw048.bmp'><br><font class='baseline'><strong>David</strong><p>Choose number of points to send.</font><div class='respPicDiv'><img src='img/responseButtonOffersNo0L.png' class='respPic'></div></div>","3","7","David","0","Shared","0.35,0.8","10","0.35","trustrating_stim/white_mw048.bmp","2","99","20"
"html-keyboard-response","195","274346","0.0-19.0-2.19","631ce86c7a3ce20f628bae05","bdp_trlrn","Sat Apr 08 2023 11:46:53 GMT-0400 (Eastern Daylight Time)","556663","Untrustworthy,Trustworthy","","null","","","","decisionFB","","<div class='trialDiv'><img src='trustrating_stim/white_mw048.bmp'><br><font class='baseline'><strong>David</strong><p>Choose number of points to send.</font><div class='respPicDiv'><img src='img/responseButtonOffersNo0L3.png' class='respPic'></div></div>","null","7","David","0","Shared","0.35,0.8","10","0.35","trustrating_stim/white_mw048.bmp","2","96","20"
"html-keyboard-response","196","275348","0.0-19.0-3.19","631ce86c7a3ce20f628bae05","bdp_trlrn","Sat Apr 08 2023 11:46:53 GMT-0400 (Eastern Daylight Time)","556663","Untrustworthy,Trustworthy","","null","","","","feedback","","<div class='trialDiv'><img src='trustrating_stim/white_mw048.bmp'><br><font class='baseline'><strong>David</strong><p>Received: <strong>12</strong></font> &nbsp; &nbsp; &nbsp; &nbsp; &nbsp; &nbsp;<font class='posOutcome'>Shared back: <strong>6</strong></font></font><div class='respPicDiv'><img src='img/responseButtonOffersNo0_wht.png' class='respPic'></div></div>","null","7","David","0","Shared","0.35,0.8","10","0.35","trustrating_stim/white_mw048.bmp","2","102","20"
"html-keyboard-response","197","276255","0.0-19.0-1.20","631ce86c7a3ce20f628bae05","bdp_trlrn","Sat Apr 08 2023 11:46:53 GMT-0400 (Eastern Daylight Time)","556663","Untrustworthy,Trustworthy","","906","","","","decision","","<div class='trialDiv'><img src='trustrating_stim/white_00223_940128_fb_edt.bmp'><br><font class='baseline'><strong>Alex</strong><p>Choose number of points to send.</font><div class='respPicDiv'><img src='img/responseButtonOffersNo0L.png' class='respPic'></div></div>","3","7","Alex","6","Shared","0.65,0.35","9","0.65","trustrating_stim/white_00223_940128_fb_edt.bmp","4.5","107","21"
"html-keyboard-response","198","276507","0.0-19.0-2.20","631ce86c7a3ce20f628bae05","bdp_trlrn","Sat Apr 08 2023 11:46:53 GMT-0400 (Eastern Daylight Time)","556663","Untrustworthy,Trustworthy","","null","","","","decisionFB","","<div class='trialDiv'><img src='trustrating_stim/white_00223_940128_fb_edt.bmp'><br><font class='baseline'><strong>Alex</strong><p>Choose number of points to send.</font><div class='respPicDiv'><img src='img/responseButtonOffersNo0L3.png' class='respPic'></div></div>","null","7","Alex","6","Shared","0.65,0.35","9","0.65","trustrating_stim/white_00223_940128_fb_edt.bmp","4.5","104","21"
"html-keyboard-response","199","277508","0.0-19.0-3.20","631ce86c7a3ce20f628bae05","bdp_trlrn","Sat Apr 08 2023 11:46:53 GMT-0400 (Eastern Daylight Time)","556663","Untrustworthy,Trustworthy","","null","","","","feedback","","<div class='trialDiv'><img src='trustrating_stim/white_00223_940128_fb_edt.bmp'><br><font class='baseline'><strong>Alex</strong><p>Received: <strong>12</strong></font> &nbsp; &nbsp; &nbsp; &nbsp; &nbsp; &nbsp;<font class='posOutcome'>Shared back: <strong>6</strong></font></font><div class='respPicDiv'><img src='img/responseButtonOffersNo0_wht.png' class='respPic'></div></div>","null","7","Alex","6","Shared","0.65,0.35","9","0.65","trustrating_stim/white_00223_940128_fb_edt.bmp","4.5","110","21"
"html-keyboard-response","200","278095","0.0-19.0-1.21","631ce86c7a3ce20f628bae05","bdp_trlrn","Sat Apr 08 2023 11:46:53 GMT-0400 (Eastern Daylight Time)","556663","Untrustworthy,Trustworthy","","585","","","","decision","","<div class='trialDiv'><img src='trustrating_stim/white_00120_931230_fa_edt.bmp'><br><font class='baseline'><strong>Jacob</strong><p>Choose number of points to send.</font><div class='respPicDiv'><img src='img/responseButtonOffersNo0L.png' class='respPic'></div></div>","3","8","Jacob","10","Kept","0.65,0.2","9","0.65","trustrating_stim/white_00120_931230_fa_edt.bmp","6.5","115","22"
"html-keyboard-response","201","278347","0.0-19.0-2.21","631ce86c7a3ce20f628bae05","bdp_trlrn","Sat Apr 08 2023 11:46:53 GMT-0400 (Eastern Daylight Time)","556663","Untrustworthy,Trustworthy","","null","","","","decisionFB","","<div class='trialDiv'><img src='trustrating_stim/white_00120_931230_fa_edt.bmp'><br><font class='baseline'><strong>Jacob</strong><p>Choose number of points to send.</font><div class='respPicDiv'><img src='img/responseButtonOffersNo0L3.png' class='respPic'></div></div>","null","8","Jacob","10","Kept","0.65,0.2","9","0.65","trustrating_stim/white_00120_931230_fa_edt.bmp","6.5","112","22"
"html-keyboard-response","202","279348","0.0-19.0-3.21","631ce86c7a3ce20f628bae05","bdp_trlrn","Sat Apr 08 2023 11:46:53 GMT-0400 (Eastern Daylight Time)","556663","Untrustworthy,Trustworthy","","null","","","","feedback","","<div class='trialDiv'><img src='trustrating_stim/white_00120_931230_fa_edt.bmp'><br><font class='baseline'><strong>Jacob</strong><p>Received: <strong>12</strong></font> &nbsp; &nbsp; &nbsp; &nbsp; &nbsp; &nbsp;<font class='negOutcome'>Shared back: <strong>0</strong></font></font><div class='respPicDiv'><img src='img/responseButtonOffersNo0_wht.png' class='respPic'></div></div>","null","8","Jacob","10","Kept","0.65,0.2","9","0.65","trustrating_stim/white_00120_931230_fa_edt.bmp","6.5","112","22"
"html-keyboard-response","203","280111","0.0-19.0-1.22","631ce86c7a3ce20f628bae05","bdp_trlrn","Sat Apr 08 2023 11:46:53 GMT-0400 (Eastern Daylight Time)","556663","Untrustworthy,Trustworthy","","762","","","","decision","","<div class='trialDiv'><img src='trustrating_stim/white_mw048.bmp'><br><font class='baseline'><strong>David</strong><p>Choose number of points to send.</font><div class='respPicDiv'><img src='img/responseButtonOffersNo0L.png' class='respPic'></div></div>","4","8","David","0","Shared","0.35,0.8","10","0.35","trustrating_stim/white_mw048.bmp","2","117","23"
"html-keyboard-response","204","280367","0.0-19.0-2.22","631ce86c7a3ce20f628bae05","bdp_trlrn","Sat Apr 08 2023 11:46:53 GMT-0400 (Eastern Daylight Time)","556663","Untrustworthy,Trustworthy","","null","","","","decisionFB","","<div class='trialDiv'><img src='trustrating_stim/white_mw048.bmp'><br><font class='baseline'><strong>David</strong><p>Choose number of points to send.</font><div class='respPicDiv'><img src='img/responseButtonOffersNo0L4.png' class='respPic'></div></div>","null","8","David","0","Shared","0.35,0.8","10","0.35","trustrating_stim/white_mw048.bmp","2","113","23"
"html-keyboard-response","205","281369","0.0-19.0-3.22","631ce86c7a3ce20f628bae05","bdp_trlrn","Sat Apr 08 2023 11:46:53 GMT-0400 (Eastern Daylight Time)","556663","Untrustworthy,Trustworthy","","null","","","","feedback","","<div class='trialDiv'><img src='trustrating_stim/white_mw048.bmp'><br><font class='baseline'><strong>David</strong><p>Received: <strong>16</strong></font> &nbsp; &nbsp; &nbsp; &nbsp; &nbsp; &nbsp;<font class='posOutcome'>Shared back: <strong>8</strong></font></font><div class='respPicDiv'><img src='img/responseButtonOffersNo0_wht.png' class='respPic'></div></div>","null","8","David","0","Shared","0.35,0.8","10","0.35","trustrating_stim/white_mw048.bmp","2","121","23"
"html-keyboard-response","206","282128","0.0-19.0-1.23","631ce86c7a3ce20f628bae05","bdp_trlrn","Sat Apr 08 2023 11:46:53 GMT-0400 (Eastern Daylight Time)","556663","Untrustworthy,Trustworthy","","758","","","","decision","","<div class='trialDiv'><img src='trustrating_stim/white_00223_940128_fb_edt.bmp'><br><font class='baseline'><strong>Alex</strong><p>Choose number of points to send.</font><div class='respPicDiv'><img src='img/responseButtonOffersNo0L.png' class='respPic'></div></div>","4","8","Alex","6","Shared","0.65,0.35","9","0.65","trustrating_stim/white_00223_940128_fb_edt.bmp","4.5","126","24"
"html-keyboard-response","207","282380","0.0-19.0-2.23","631ce86c7a3ce20f628bae05","bdp_trlrn","Sat Apr 08 2023 11:46:53 GMT-0400 (Eastern Daylight Time)","556663","Untrustworthy,Trustworthy","","null","","","","decisionFB","","<div class='trialDiv'><img src='trustrating_stim/white_00223_940128_fb_edt.bmp'><br><font class='baseline'><strong>Alex</strong><p>Choose number of points to send.</font><div class='respPicDiv'><img src='img/responseButtonOffersNo0L4.png' class='respPic'></div></div>","null","8","Alex","6","Shared","0.65,0.35","9","0.65","trustrating_stim/white_00223_940128_fb_edt.bmp","4.5","122","24"
"html-keyboard-response","208","283381","0.0-19.0-3.23","631ce86c7a3ce20f628bae05","bdp_trlrn","Sat Apr 08 2023 11:46:53 GMT-0400 (Eastern Daylight Time)","556663","Untrustworthy,Trustworthy","","null","","","","feedback","","<div class='trialDiv'><img src='trustrating_stim/white_00223_940128_fb_edt.bmp'><br><font class='baseline'><strong>Alex</strong><p>Received: <strong>16</strong></font> &nbsp; &nbsp; &nbsp; &nbsp; &nbsp; &nbsp;<font class='posOutcome'>Shared back: <strong>8</strong></font></font><div class='respPicDiv'><img src='img/responseButtonOffersNo0_wht.png' class='respPic'></div></div>","null","8","Alex","6","Shared","0.65,0.35","9","0.65","trustrating_stim/white_00223_940128_fb_edt.bmp","4.5","130","24"
"html-keyboard-response","209","284271","0.0-19.0-1.24","631ce86c7a3ce20f628bae05","bdp_trlrn","Sat Apr 08 2023 11:46:53 GMT-0400 (Eastern Daylight Time)","556663","Untrustworthy,Trustworthy","","888","","","","decision","","<div class='trialDiv'><img src='trustrating_stim/white_mw048.bmp'><br><font class='baseline'><strong>David</strong><p>Choose number of points to send.</font><div class='respPicDiv'><img src='img/responseButtonOffersNo0L.png' class='respPic'></div></div>","4","9","David","0","Kept","0.35,0.8","10","0.35","trustrating_stim/white_mw048.bmp","2","135","25"
"html-keyboard-response","210","284522","0.0-19.0-2.24","631ce86c7a3ce20f628bae05","bdp_trlrn","Sat Apr 08 2023 11:46:53 GMT-0400 (Eastern Daylight Time)","556663","Untrustworthy,Trustworthy","","null","","","","decisionFB","","<div class='trialDiv'><img src='trustrating_stim/white_mw048.bmp'><br><font class='baseline'><strong>David</strong><p>Choose number of points to send.</font><div class='respPicDiv'><img src='img/responseButtonOffersNo0L4.png' class='respPic'></div></div>","null","9","David","0","Kept","0.35,0.8","10","0.35","trustrating_stim/white_mw048.bmp","2","131","25"
"html-keyboard-response","211","285523","0.0-19.0-3.24","631ce86c7a3ce20f628bae05","bdp_trlrn","Sat Apr 08 2023 11:46:53 GMT-0400 (Eastern Daylight Time)","556663","Untrustworthy,Trustworthy","","null","","","","feedback","","<div class='trialDiv'><img src='trustrating_stim/white_mw048.bmp'><br><font class='baseline'><strong>David</strong><p>Received: <strong>16</strong></font> &nbsp; &nbsp; &nbsp; &nbsp; &nbsp; &nbsp;<font class='negOutcome'>Shared back: <strong>0</strong></font></font><div class='respPicDiv'><img src='img/responseButtonOffersNo0_wht.png' class='respPic'></div></div>","null","9","David","0","Kept","0.35,0.8","10","0.35","trustrating_stim/white_mw048.bmp","2","131","25"
"html-keyboard-response","212","286735","0.0-19.0-1.25","631ce86c7a3ce20f628bae05","bdp_trlrn","Sat Apr 08 2023 11:46:53 GMT-0400 (Eastern Daylight Time)","556663","Untrustworthy,Trustworthy","","1211","","","","decision","","<div class='trialDiv'><img src='trustrating_stim/white_00120_931230_fa_edt.bmp'><br><font class='baseline'><strong>Jacob</strong><p>Choose number of points to send.</font><div class='respPicDiv'><img src='img/responseButtonOffersNo0L.png' class='respPic'></div></div>","4","9","Jacob","10","Shared","0.65,0.2","9","0.65","trustrating_stim/white_00120_931230_fa_edt.bmp","6.5","136","26"
"html-keyboard-response","213","286986","0.0-19.0-2.25","631ce86c7a3ce20f628bae05","bdp_trlrn","Sat Apr 08 2023 11:46:53 GMT-0400 (Eastern Daylight Time)","556663","Untrustworthy,Trustworthy","","null","","","","decisionFB","","<div class='trialDiv'><img src='trustrating_stim/white_00120_931230_fa_edt.bmp'><br><font class='baseline'><strong>Jacob</strong><p>Choose number of points to send.</font><div class='respPicDiv'><img src='img/responseButtonOffersNo0L4.png' class='respPic'></div></div>","null","9","Jacob","10","Shared","0.65,0.2","9","0.65","trustrating_stim/white_00120_931230_fa_edt.bmp","6.5","132","26"
"html-keyboard-response","214","287988","0.0-19.0-3.25","631ce86c7a3ce20f628bae05","bdp_trlrn","Sat Apr 08 2023 11:46:53 GMT-0400 (Eastern Daylight Time)","556663","Untrustworthy,Trustworthy","","null","","","","feedback","","<div class='trialDiv'><img src='trustrating_stim/white_00120_931230_fa_edt.bmp'><br><font class='baseline'><strong>Jacob</strong><p>Received: <strong>16</strong></font> &nbsp; &nbsp; &nbsp; &nbsp; &nbsp; &nbsp;<font class='posOutcome'>Shared back: <strong>8</strong></font></font><div class='respPicDiv'><img src='img/responseButtonOffersNo0_wht.png' class='respPic'></div></div>","null","9","Jacob","10","Shared","0.65,0.2","9","0.65","trustrating_stim/white_00120_931230_fa_edt.bmp","6.5","140","26"
"html-keyboard-response","215","288751","0.0-19.0-1.26","631ce86c7a3ce20f628bae05","bdp_trlrn","Sat Apr 08 2023 11:46:53 GMT-0400 (Eastern Daylight Time)","556663","Untrustworthy,Trustworthy","","761","","","","decision","","<div class='trialDiv'><img src='trustrating_stim/white_00223_940128_fb_edt.bmp'><br><font class='baseline'><strong>Alex</strong><p>Choose number of points to send.</font><div class='respPicDiv'><img src='img/responseButtonOffersNo0L.png' class='respPic'></div></div>","5","9","Alex","6","Shared","0.65,0.35","9","0.65","trustrating_stim/white_00223_940128_fb_edt.bmp","4.5","145","27"
"html-keyboard-response","216","289004","0.0-19.0-2.26","631ce86c7a3ce20f628bae05","bdp_trlrn","Sat Apr 08 2023 11:46:53 GMT-0400 (Eastern Daylight Time)","556663","Untrustworthy,Trustworthy","","null","","","","decisionFB","","<div class='trialDiv'><img src='trustrating_stim/white_00223_940128_fb_edt.bmp'><br><font class='baseline'><strong>Alex</strong><p>Choose number of points to send.</font><div class='respPicDiv'><img src='img/responseButtonOffersNo0L5.png' class='respPic'></div></div>","null","9","Alex","6","Shared","0.65,0.35","9","0.65","trustrating_stim/white_00223_940128_fb_edt.bmp","4.5","140","27"
"html-keyboard-response","217","290006","0.0-19.0-3.26","631ce86c7a3ce20f628bae05","bdp_trlrn","Sat Apr 08 2023 11:46:53 GMT-0400 (Eastern Daylight Time)","556663","Untrustworthy,Trustworthy","","null","","","","feedback","","<div class='trialDiv'><img src='trustrating_stim/white_00223_940128_fb_edt.bmp'><br><font class='baseline'><strong>Alex</strong><p>Received: <strong>20</strong></font> &nbsp; &nbsp; &nbsp; &nbsp; &nbsp; &nbsp;<font class='posOutcome'>Shared back: <strong>10</strong></font></font><div class='respPicDiv'><img src='img/responseButtonOffersNo0_wht.png' class='respPic'></div></div>","null","9","Alex","6","Shared","0.65,0.35","9","0.65","trustrating_stim/white_00223_940128_fb_edt.bmp","4.5","150","27"
"html-keyboard-response","218","290927","0.0-19.0-1.27","631ce86c7a3ce20f628bae05","bdp_trlrn","Sat Apr 08 2023 11:46:53 GMT-0400 (Eastern Daylight Time)","556663","Untrustworthy,Trustworthy","","920","","","","decision","","<div class='trialDiv'><img src='trustrating_stim/white_mw048.bmp'><br><font class='baseline'><strong>David</strong><p>Choose number of points to send.</font><div class='respPicDiv'><img src='img/responseButtonOffersNo0L.png' class='respPic'></div></div>","5","10","David","0","Kept","0.35,0.8","10","0.35","trustrating_stim/white_mw048.bmp","2","155","28"
"html-keyboard-response","219","291178","0.0-19.0-2.27","631ce86c7a3ce20f628bae05","bdp_trlrn","Sat Apr 08 2023 11:46:53 GMT-0400 (Eastern Daylight Time)","556663","Untrustworthy,Trustworthy","","null","","","","decisionFB","","<div class='trialDiv'><img src='trustrating_stim/white_mw048.bmp'><br><font class='baseline'><strong>David</strong><p>Choose number of points to send.</font><div class='respPicDiv'><img src='img/responseButtonOffersNo0L5.png' class='respPic'></div></div>","null","10","David","0","Kept","0.35,0.8","10","0.35","trustrating_stim/white_mw048.bmp","2","150","28"
"html-keyboard-response","220","292180","0.0-19.0-3.27","631ce86c7a3ce20f628bae05","bdp_trlrn","Sat Apr 08 2023 11:46:53 GMT-0400 (Eastern Daylight Time)","556663","Untrustworthy,Trustworthy","","null","","","","feedback","","<div class='trialDiv'><img src='trustrating_stim/white_mw048.bmp'><br><font class='baseline'><strong>David</strong><p>Received: <strong>20</strong></font> &nbsp; &nbsp; &nbsp; &nbsp; &nbsp; &nbsp;<font class='negOutcome'>Shared back: <strong>0</strong></font></font><div class='respPicDiv'><img src='img/responseButtonOffersNo0_wht.png' class='respPic'></div></div>","null","10","David","0","Kept","0.35,0.8","10","0.35","trustrating_stim/white_mw048.bmp","2","150","28"
