"event","trial","time","trialtype","subject_id","task","startTime","totalTime","labels","numBlurs","trial_type","trial_index","time_elapsed","internal_node_id","view_history","rt","success","stimulus","key_press","aground","name","faceID","outcome","agenttype","agentswpt","agentcurrpshare","face","avgRating","point_total","round"
"focus","0","0","focusevent","6400f1783058946c2b4780cd","bdp_trlrn","Wed Mar 15 2023 14:20:32 GMT-0500 (Central Daylight Time)","705886","Untrustworthy,Trustworthy","","","","","","","","","","","","","","","","","","","","",""
"blur","0","0","blurevent","6400f1783058946c2b4780cd","bdp_trlrn","Wed Mar 15 2023 14:20:32 GMT-0500 (Central Daylight Time)","705886","Untrustworthy,Trustworthy","1","","","","","","","","","","","","","","","","","","","",""
"focus","0","0","focusevent","6400f1783058946c2b4780cd","bdp_trlrn","Wed Mar 15 2023 14:20:32 GMT-0500 (Central Daylight Time)","705886","Untrustworthy,Trustworthy","","","","","","","","","","","","","","","","","","","","",""
"","","","","6400f1783058946c2b4780cd","bdp_trlrn","Wed Mar 15 2023 14:20:32 GMT-0500 (Central Daylight Time)","705886","Untrustworthy,Trustworthy","","pavlovia","0","3","0.0-0.0","","","","","","","","","","","","","","","",""
"","","","","6400f1783058946c2b4780cd","bdp_trlrn","Wed Mar 15 2023 14:20:32 GMT-0500 (Central Daylight Time)","705886","Untrustworthy,Trustworthy","","instructions","1","6522","0.0-1.0","[{""page_index"":0,""viewing_time"":6518}]","6518","","","","","","","","","","","","","",""
"fullscreenexit","2","10419","fullscreenexit","6400f1783058946c2b4780cd","bdp_trlrn","Wed Mar 15 2023 14:20:32 GMT-0500 (Central Daylight Time)","705886","Untrustworthy,Trustworthy","","","","","","","","","","","","","","","","","","","","",""
"","","","","6400f1783058946c2b4780cd","bdp_trlrn","Wed Mar 15 2023 14:20:32 GMT-0500 (Central Daylight Time)","705886","Untrustworthy,Trustworthy","","fullscreen","2","11202","0.0-2.0","","","true","","","","","","","","","","","","",""
"","","","fullscreenfail","6400f1783058946c2b4780cd","bdp_trlrn","Wed Mar 15 2023 14:20:32 GMT-0500 (Central Daylight Time)","705886","Untrustworthy,Trustworthy","","image-keyboard-response","3","15359","0.0-3.0-0.0","","4155","","","32","","","","","","","","","","",""
"","","","","6400f1783058946c2b4780cd","bdp_trlrn","Wed Mar 15 2023 14:20:32 GMT-0500 (Central Daylight Time)","705886","Untrustworthy,Trustworthy","","instructions","4","25608","0.0-4.0","[{""page_index"":0,""viewing_time"":6873},{""page_index"":1,""viewing_time"":3112}]","9985","","","","","","","","","","","","","",""
"","","","","6400f1783058946c2b4780cd","bdp_trlrn","Wed Mar 15 2023 14:20:32 GMT-0500 (Central Daylight Time)","705886","Untrustworthy,Trustworthy","","instructions","5","28258","0.0-5.0","[{""page_index"":0,""viewing_time"":2649}]","2649","","","","","","","","","","","","","",""
"","","","rating","6400f1783058946c2b4780cd","bdp_trlrn","Wed Mar 15 2023 14:20:32 GMT-0500 (Central Daylight Time)","705886","Untrustworthy,Trustworthy","","image-keyboard-response","6","33245","0.0-6.0-1.0","","4880","","trustrating_stim/white_mw056.bmp","3","","","","","","","","","","",""
"","","","ratingFB","6400f1783058946c2b4780cd","bdp_trlrn","Wed Mar 15 2023 14:20:32 GMT-0500 (Central Daylight Time)","705886","Untrustworthy,Trustworthy","","image-keyboard-response","7","33455","0.0-6.0-2.0","","null","","trustrating_stim/white_mw056.bmp","null","","","","","","","","","","",""
"","","","rating","6400f1783058946c2b4780cd","bdp_trlrn","Wed Mar 15 2023 14:20:32 GMT-0500 (Central Daylight Time)","705886","Untrustworthy,Trustworthy","","image-keyboard-response","8","35482","0.0-6.0-1.1","","1918","","trustrating_stim/white_00757_941201_fa_edt.bmp","3","","","","","","","","","","",""
"","","","ratingFB","6400f1783058946c2b4780cd","bdp_trlrn","Wed Mar 15 2023 14:20:32 GMT-0500 (Central Daylight Time)","705886","Untrustworthy,Trustworthy","","image-keyboard-response","9","35692","0.0-6.0-2.1","","null","","trustrating_stim/white_00757_941201_fa_edt.bmp","null","","","","","","","","","","",""
"","","","rating","6400f1783058946c2b4780cd","bdp_trlrn","Wed Mar 15 2023 14:20:32 GMT-0500 (Central Daylight Time)","705886","Untrustworthy,Trustworthy","","image-keyboard-response","10","37833","0.0-6.0-1.2","","2030","","trustrating_stim/white_00519_940519_fb_edt.bmp","6","","","","","","","","","","",""
"","","","ratingFB","6400f1783058946c2b4780cd","bdp_trlrn","Wed Mar 15 2023 14:20:32 GMT-0500 (Central Daylight Time)","705886","Untrustworthy,Trustworthy","","image-keyboard-response","11","38037","0.0-6.0-2.2","","null","","trustrating_stim/white_00519_940519_fb_edt.bmp","null","","","","","","","","","","",""
"","","","rating","6400f1783058946c2b4780cd","bdp_trlrn","Wed Mar 15 2023 14:20:32 GMT-0500 (Central Daylight Time)","705886","Untrustworthy,Trustworthy","","image-keyboard-response","12","39634","0.0-6.0-1.3","","1488","","trustrating_stim/white_00223_940128_fb_edt.bmp","2","","","","","","","","","","",""
"","","","ratingFB","6400f1783058946c2b4780cd","bdp_trlrn","Wed Mar 15 2023 14:20:32 GMT-0500 (Central Daylight Time)","705886","Untrustworthy,Trustworthy","","image-keyboard-response","13","39846","0.0-6.0-2.3","","null","","trustrating_stim/white_00223_940128_fb_edt.bmp","null","","","","","","","","","","",""
"","","","rating","6400f1783058946c2b4780cd","bdp_trlrn","Wed Mar 15 2023 14:20:32 GMT-0500 (Central Daylight Time)","705886","Untrustworthy,Trustworthy","","image-keyboard-response","14","41883","0.0-6.0-1.4","","1927","","trustrating_stim/white_mw097.bmp","3","","","","","","","","","","",""
"","","","ratingFB","6400f1783058946c2b4780cd","bdp_trlrn","Wed Mar 15 2023 14:20:32 GMT-0500 (Central Daylight Time)","705886","Untrustworthy,Trustworthy","","image-keyboard-response","15","42098","0.0-6.0-2.4","","null","","trustrating_stim/white_mw097.bmp","null","","","","","","","","","","",""
"","","","rating","6400f1783058946c2b4780cd","bdp_trlrn","Wed Mar 15 2023 14:20:32 GMT-0500 (Central Daylight Time)","705886","Untrustworthy,Trustworthy","","image-keyboard-response","16","44835","0.0-6.0-1.5","","2628","","trustrating_stim/white_mw066.bmp","8","","","","","","","","","","",""
"","","","ratingFB","6400f1783058946c2b4780cd","bdp_trlrn","Wed Mar 15 2023 14:20:32 GMT-0500 (Central Daylight Time)","705886","Untrustworthy,Trustworthy","","image-keyboard-response","17","45051","0.0-6.0-2.5","","null","","trustrating_stim/white_mw066.bmp","null","","","","","","","","","","",""
"","","","rating","6400f1783058946c2b4780cd","bdp_trlrn","Wed Mar 15 2023 14:20:32 GMT-0500 (Central Daylight Time)","705886","Untrustworthy,Trustworthy","","image-keyboard-response","18","47297","0.0-6.0-1.6","","2135","","trustrating_stim/white_00577_940928_fa_edt.bmp","3","","","","","","","","","","",""
"","","","ratingFB","6400f1783058946c2b4780cd","bdp_trlrn","Wed Mar 15 2023 14:20:32 GMT-0500 (Central Daylight Time)","705886","Untrustworthy,Trustworthy","","image-keyboard-response","19","47503","0.0-6.0-2.6","","null","","trustrating_stim/white_00577_940928_fa_edt.bmp","null","","","","","","","","","","",""
"","","","rating","6400f1783058946c2b4780cd","bdp_trlrn","Wed Mar 15 2023 14:20:32 GMT-0500 (Central Daylight Time)","705886","Untrustworthy,Trustworthy","","image-keyboard-response","20","49435","0.0-6.0-1.7","","1822","","trustrating_stim/white_00761_941201_fb_edt.bmp","4","","","","","","","","","","",""
"","","","ratingFB","6400f1783058946c2b4780cd","bdp_trlrn","Wed Mar 15 2023 14:20:32 GMT-0500 (Central Daylight Time)","705886","Untrustworthy,Trustworthy","","image-keyboard-response","21","49651","0.0-6.0-2.7","","null","","trustrating_stim/white_00761_941201_fb_edt.bmp","null","","","","","","","","","","",""
"","","","rating","6400f1783058946c2b4780cd","bdp_trlrn","Wed Mar 15 2023 14:20:32 GMT-0500 (Central Daylight Time)","705886","Untrustworthy,Trustworthy","","image-keyboard-response","22","52446","0.0-6.0-1.8","","2687","","trustrating_stim/white_00898_960530_fa_edt.bmp","8","","","","","","","","","","",""
"","","","ratingFB","6400f1783058946c2b4780cd","bdp_trlrn","Wed Mar 15 2023 14:20:32 GMT-0500 (Central Daylight Time)","705886","Untrustworthy,Trustworthy","","image-keyboard-response","23","52661","0.0-6.0-2.8","","null","","trustrating_stim/white_00898_960530_fa_edt.bmp","null","","","","","","","","","","",""
"","","","rating","6400f1783058946c2b4780cd","bdp_trlrn","Wed Mar 15 2023 14:20:32 GMT-0500 (Central Daylight Time)","705886","Untrustworthy,Trustworthy","","image-keyboard-response","24","54434","0.0-6.0-1.9","","1665","","trustrating_stim/white_00659_941121_fa_edt.bmp","3","","","","","","","","","","",""
"","","","ratingFB","6400f1783058946c2b4780cd","bdp_trlrn","Wed Mar 15 2023 14:20:32 GMT-0500 (Central Daylight Time)","705886","Untrustworthy,Trustworthy","","image-keyboard-response","25","54647","0.0-6.0-2.9","","null","","trustrating_stim/white_00659_941121_fa_edt.bmp","null","","","","","","","","","","",""
"","","","rating","6400f1783058946c2b4780cd","bdp_trlrn","Wed Mar 15 2023 14:20:32 GMT-0500 (Central Daylight Time)","705886","Untrustworthy,Trustworthy","","image-keyboard-response","26","57295","0.0-6.0-1.10","","2540","","trustrating_stim/white_mw060.bmp","2","","","","","","","","","","",""
"","","","ratingFB","6400f1783058946c2b4780cd","bdp_trlrn","Wed Mar 15 2023 14:20:32 GMT-0500 (Central Daylight Time)","705886","Untrustworthy,Trustworthy","","image-keyboard-response","27","57506","0.0-6.0-2.10","","null","","trustrating_stim/white_mw060.bmp","null","","","","","","","","","","",""
"","","","rating","6400f1783058946c2b4780cd","bdp_trlrn","Wed Mar 15 2023 14:20:32 GMT-0500 (Central Daylight Time)","705886","Untrustworthy,Trustworthy","","image-keyboard-response","28","59421","0.0-6.0-1.11","","1803","","trustrating_stim/white_mw071.bmp","7","","","","","","","","","","",""
"","","","ratingFB","6400f1783058946c2b4780cd","bdp_trlrn","Wed Mar 15 2023 14:20:32 GMT-0500 (Central Daylight Time)","705886","Untrustworthy,Trustworthy","","image-keyboard-response","29","59626","0.0-6.0-2.11","","null","","trustrating_stim/white_mw071.bmp","null","","","","","","","","","","",""
"","","","rating","6400f1783058946c2b4780cd","bdp_trlrn","Wed Mar 15 2023 14:20:32 GMT-0500 (Central Daylight Time)","705886","Untrustworthy,Trustworthy","","image-keyboard-response","30","60971","0.0-6.0-1.12","","1234","","trustrating_stim/white_mw035.bmp","7","","","","","","","","","","",""
"","","","ratingFB","6400f1783058946c2b4780cd","bdp_trlrn","Wed Mar 15 2023 14:20:32 GMT-0500 (Central Daylight Time)","705886","Untrustworthy,Trustworthy","","image-keyboard-response","31","61180","0.0-6.0-2.12","","null","","trustrating_stim/white_mw035.bmp","null","","","","","","","","","","",""
"","","","rating","6400f1783058946c2b4780cd","bdp_trlrn","Wed Mar 15 2023 14:20:32 GMT-0500 (Central Daylight Time)","705886","Untrustworthy,Trustworthy","","image-keyboard-response","32","62759","0.0-6.0-1.13","","1470","","trustrating_stim/white_mw049.bmp","8","","","","","","","","","","",""
"","","","ratingFB","6400f1783058946c2b4780cd","bdp_trlrn","Wed Mar 15 2023 14:20:32 GMT-0500 (Central Daylight Time)","705886","Untrustworthy,Trustworthy","","image-keyboard-response","33","62967","0.0-6.0-2.13","","null","","trustrating_stim/white_mw049.bmp","null","","","","","","","","","","",""
"","","","rating","6400f1783058946c2b4780cd","bdp_trlrn","Wed Mar 15 2023 14:20:32 GMT-0500 (Central Daylight Time)","705886","Untrustworthy,Trustworthy","","image-keyboard-response","34","64221","0.0-6.0-1.14","","1144","","trustrating_stim/white_mw053.bmp","8","","","","","","","","","","",""
"","","","ratingFB","6400f1783058946c2b4780cd","bdp_trlrn","Wed Mar 15 2023 14:20:32 GMT-0500 (Central Daylight Time)","705886","Untrustworthy,Trustworthy","","image-keyboard-response","35","64426","0.0-6.0-2.14","","null","","trustrating_stim/white_mw053.bmp","null","","","","","","","","","","",""
"","","","rating","6400f1783058946c2b4780cd","bdp_trlrn","Wed Mar 15 2023 14:20:32 GMT-0500 (Central Daylight Time)","705886","Untrustworthy,Trustworthy","","image-keyboard-response","36","67395","0.0-6.0-1.15","","2859","","trustrating_stim/white_00109_931230_fa_edt.bmp","6","","","","","","","","","","",""
"","","","ratingFB","6400f1783058946c2b4780cd","bdp_trlrn","Wed Mar 15 2023 14:20:32 GMT-0500 (Central Daylight Time)","705886","Untrustworthy,Trustworthy","","image-keyboard-response","37","67605","0.0-6.0-2.15","","null","","trustrating_stim/white_00109_931230_fa_edt.bmp","null","","","","","","","","","","",""
"","","","rating","6400f1783058946c2b4780cd","bdp_trlrn","Wed Mar 15 2023 14:20:32 GMT-0500 (Central Daylight Time)","705886","Untrustworthy,Trustworthy","","image-keyboard-response","38","69820","0.0-6.0-1.16","","2106","","trustrating_stim/white_mw099.bmp","4","","","","","","","","","","",""
"","","","ratingFB","6400f1783058946c2b4780cd","bdp_trlrn","Wed Mar 15 2023 14:20:32 GMT-0500 (Central Daylight Time)","705886","Untrustworthy,Trustworthy","","image-keyboard-response","39","70029","0.0-6.0-2.16","","null","","trustrating_stim/white_mw099.bmp","null","","","","","","","","","","",""
"","","","rating","6400f1783058946c2b4780cd","bdp_trlrn","Wed Mar 15 2023 14:20:32 GMT-0500 (Central Daylight Time)","705886","Untrustworthy,Trustworthy","","image-keyboard-response","40","72182","0.0-6.0-1.17","","2043","","trustrating_stim/white_00785_941205_fb_edt.bmp","4","","","","","","","","","","",""
"","","","ratingFB","6400f1783058946c2b4780cd","bdp_trlrn","Wed Mar 15 2023 14:20:32 GMT-0500 (Central Daylight Time)","705886","Untrustworthy,Trustworthy","","image-keyboard-response","41","72386","0.0-6.0-2.17","","null","","trustrating_stim/white_00785_941205_fb_edt.bmp","null","","","","","","","","","","",""
"","","","rating","6400f1783058946c2b4780cd","bdp_trlrn","Wed Mar 15 2023 14:20:32 GMT-0500 (Central Daylight Time)","705886","Untrustworthy,Trustworthy","","image-keyboard-response","42","73996","0.0-6.0-1.18","","1504","","trustrating_stim/white_mw063.bmp","2","","","","","","","","","","",""
"","","","ratingFB","6400f1783058946c2b4780cd","bdp_trlrn","Wed Mar 15 2023 14:20:32 GMT-0500 (Central Daylight Time)","705886","Untrustworthy,Trustworthy","","image-keyboard-response","43","74198","0.0-6.0-2.18","","null","","trustrating_stim/white_mw063.bmp","null","","","","","","","","","","",""
"","","","rating","6400f1783058946c2b4780cd","bdp_trlrn","Wed Mar 15 2023 14:20:32 GMT-0500 (Central Daylight Time)","705886","Untrustworthy,Trustworthy","","image-keyboard-response","44","76632","0.0-6.0-1.19","","2323","","trustrating_stim/white_00299_940422_fa_edt.bmp","3","","","","","","","","","","",""
"","","","ratingFB","6400f1783058946c2b4780cd","bdp_trlrn","Wed Mar 15 2023 14:20:32 GMT-0500 (Central Daylight Time)","705886","Untrustworthy,Trustworthy","","image-keyboard-response","45","76843","0.0-6.0-2.19","","null","","trustrating_stim/white_00299_940422_fa_edt.bmp","null","","","","","","","","","","",""
"","","","rating","6400f1783058946c2b4780cd","bdp_trlrn","Wed Mar 15 2023 14:20:32 GMT-0500 (Central Daylight Time)","705886","Untrustworthy,Trustworthy","","image-keyboard-response","46","78658","0.0-6.0-1.20","","1705","","trustrating_stim/white_00129_931230_fb_edt.bmp","3","","","","","","","","","","",""
"","","","ratingFB","6400f1783058946c2b4780cd","bdp_trlrn","Wed Mar 15 2023 14:20:32 GMT-0500 (Central Daylight Time)","705886","Untrustworthy,Trustworthy","","image-keyboard-response","47","78863","0.0-6.0-2.20","","null","","trustrating_stim/white_00129_931230_fb_edt.bmp","null","","","","","","","","","","",""
"","","","rating","6400f1783058946c2b4780cd","bdp_trlrn","Wed Mar 15 2023 14:20:32 GMT-0500 (Central Daylight Time)","705886","Untrustworthy,Trustworthy","","image-keyboard-response","48","81596","0.0-6.0-1.21","","2623","","trustrating_stim/white_00340_940422_fa_edt.bmp","3","","","","","","","","","","",""
"","","","ratingFB","6400f1783058946c2b4780cd","bdp_trlrn","Wed Mar 15 2023 14:20:32 GMT-0500 (Central Daylight Time)","705886","Untrustworthy,Trustworthy","","image-keyboard-response","49","81811","0.0-6.0-2.21","","null","","trustrating_stim/white_00340_940422_fa_edt.bmp","null","","","","","","","","","","",""
"","","","rating","6400f1783058946c2b4780cd","bdp_trlrn","Wed Mar 15 2023 14:20:32 GMT-0500 (Central Daylight Time)","705886","Untrustworthy,Trustworthy","","image-keyboard-response","50","83896","0.0-6.0-1.22","","1977","","trustrating_stim/white_00602_940928_fb_edt.bmp","8","","","","","","","","","","",""
"","","","ratingFB","6400f1783058946c2b4780cd","bdp_trlrn","Wed Mar 15 2023 14:20:32 GMT-0500 (Central Daylight Time)","705886","Untrustworthy,Trustworthy","","image-keyboard-response","51","84098","0.0-6.0-2.22","","null","","trustrating_stim/white_00602_940928_fb_edt.bmp","null","","","","","","","","","","",""
"","","","rating","6400f1783058946c2b4780cd","bdp_trlrn","Wed Mar 15 2023 14:20:32 GMT-0500 (Central Daylight Time)","705886","Untrustworthy,Trustworthy","","image-keyboard-response","52","86608","0.0-6.0-1.23","","2404","","trustrating_stim/white_mw084.bmp","2","","","","","","","","","","",""
"","","","ratingFB","6400f1783058946c2b4780cd","bdp_trlrn","Wed Mar 15 2023 14:20:32 GMT-0500 (Central Daylight Time)","705886","Untrustworthy,Trustworthy","","image-keyboard-response","53","86809","0.0-6.0-2.23","","null","","trustrating_stim/white_mw084.bmp","null","","","","","","","","","","",""
"","","","rating","6400f1783058946c2b4780cd","bdp_trlrn","Wed Mar 15 2023 14:20:32 GMT-0500 (Central Daylight Time)","705886","Untrustworthy,Trustworthy","","image-keyboard-response","54","88509","0.0-6.0-1.24","","1590","","trustrating_stim/white_00120_931230_fa_edt.bmp","3","","","","","","","","","","",""
"","","","ratingFB","6400f1783058946c2b4780cd","bdp_trlrn","Wed Mar 15 2023 14:20:32 GMT-0500 (Central Daylight Time)","705886","Untrustworthy,Trustworthy","","image-keyboard-response","55","88713","0.0-6.0-2.24","","null","","trustrating_stim/white_00120_931230_fa_edt.bmp","null","","","","","","","","","","",""
"","","","rating","6400f1783058946c2b4780cd","bdp_trlrn","Wed Mar 15 2023 14:20:32 GMT-0500 (Central Daylight Time)","705886","Untrustworthy,Trustworthy","","image-keyboard-response","56","91408","0.0-6.0-1.25","","2584","","trustrating_stim/white_mw089.bmp","3","","","","","","","","","","",""
"","","","ratingFB","6400f1783058946c2b4780cd","bdp_trlrn","Wed Mar 15 2023 14:20:32 GMT-0500 (Central Daylight Time)","705886","Untrustworthy,Trustworthy","","image-keyboard-response","57","91611","0.0-6.0-2.25","","null","","trustrating_stim/white_mw089.bmp","null","","","","","","","","","","",""
"","","","rating","6400f1783058946c2b4780cd","bdp_trlrn","Wed Mar 15 2023 14:20:32 GMT-0500 (Central Daylight Time)","705886","Untrustworthy,Trustworthy","","image-keyboard-response","58","93484","0.0-6.0-1.26","","1766","","trustrating_stim/white_00807_941205_fb_edt.bmp","4","","","","","","","","","","",""
"","","","ratingFB","6400f1783058946c2b4780cd","bdp_trlrn","Wed Mar 15 2023 14:20:32 GMT-0500 (Central Daylight Time)","705886","Untrustworthy,Trustworthy","","image-keyboard-response","59","93696","0.0-6.0-2.26","","null","","trustrating_stim/white_00807_941205_fb_edt.bmp","null","","","","","","","","","","",""
"","","","rating","6400f1783058946c2b4780cd","bdp_trlrn","Wed Mar 15 2023 14:20:32 GMT-0500 (Central Daylight Time)","705886","Untrustworthy,Trustworthy","","image-keyboard-response","60","96708","0.0-6.0-1.27","","2905","","trustrating_stim/white_mw033.bmp","4","","","","","","","","","","",""
"","","","ratingFB","6400f1783058946c2b4780cd","bdp_trlrn","Wed Mar 15 2023 14:20:32 GMT-0500 (Central Daylight Time)","705886","Untrustworthy,Trustworthy","","image-keyboard-response","61","96923","0.0-6.0-2.27","","null","","trustrating_stim/white_mw033.bmp","null","","","","","","","","","","",""
"","","","rating","6400f1783058946c2b4780cd","bdp_trlrn","Wed Mar 15 2023 14:20:32 GMT-0500 (Central Daylight Time)","705886","Untrustworthy,Trustworthy","","image-keyboard-response","62","98095","0.0-6.0-1.28","","1062","","trustrating_stim/white_mw046.bmp","3","","","","","","","","","","",""
"","","","ratingFB","6400f1783058946c2b4780cd","bdp_trlrn","Wed Mar 15 2023 14:20:32 GMT-0500 (Central Daylight Time)","705886","Untrustworthy,Trustworthy","","image-keyboard-response","63","98312","0.0-6.0-2.28","","null","","trustrating_stim/white_mw046.bmp","null","","","","","","","","","","",""
"","","","rating","6400f1783058946c2b4780cd","bdp_trlrn","Wed Mar 15 2023 14:20:32 GMT-0500 (Central Daylight Time)","705886","Untrustworthy,Trustworthy","","image-keyboard-response","64","100582","0.0-6.0-1.29","","2161","","trustrating_stim/white_mw048.bmp","6","","","","","","","","","","",""
"","","","ratingFB","6400f1783058946c2b4780cd","bdp_trlrn","Wed Mar 15 2023 14:20:32 GMT-0500 (Central Daylight Time)","705886","Untrustworthy,Trustworthy","","image-keyboard-response","65","100783","0.0-6.0-2.29","","null","","trustrating_stim/white_mw048.bmp","null","","","","","","","","","","",""
"","","","rating","6400f1783058946c2b4780cd","bdp_trlrn","Wed Mar 15 2023 14:20:32 GMT-0500 (Central Daylight Time)","705886","Untrustworthy,Trustworthy","","image-keyboard-response","66","103770","0.0-6.0-1.30","","2876","","trustrating_stim/white_00659_941121_fa_edt.bmp","3","","","","","","","","","","",""
"","","","ratingFB","6400f1783058946c2b4780cd","bdp_trlrn","Wed Mar 15 2023 14:20:32 GMT-0500 (Central Daylight Time)","705886","Untrustworthy,Trustworthy","","image-keyboard-response","67","103983","0.0-6.0-2.30","","null","","trustrating_stim/white_00659_941121_fa_edt.bmp","null","","","","","","","","","","",""
"","","","rating","6400f1783058946c2b4780cd","bdp_trlrn","Wed Mar 15 2023 14:20:32 GMT-0500 (Central Daylight Time)","705886","Untrustworthy,Trustworthy","","image-keyboard-response","68","106295","0.0-6.0-1.31","","2203","","trustrating_stim/white_mw056.bmp","3","","","","","","","","","","",""
"","","","ratingFB","6400f1783058946c2b4780cd","bdp_trlrn","Wed Mar 15 2023 14:20:32 GMT-0500 (Central Daylight Time)","705886","Untrustworthy,Trustworthy","","image-keyboard-response","69","106501","0.0-6.0-2.31","","null","","trustrating_stim/white_mw056.bmp","null","","","","","","","","","","",""
"","","","rating","6400f1783058946c2b4780cd","bdp_trlrn","Wed Mar 15 2023 14:20:32 GMT-0500 (Central Daylight Time)","705886","Untrustworthy,Trustworthy","","image-keyboard-response","70","109256","0.0-6.0-1.32","","2645","","trustrating_stim/white_mw035.bmp","4","","","","","","","","","","",""
"","","","ratingFB","6400f1783058946c2b4780cd","bdp_trlrn","Wed Mar 15 2023 14:20:32 GMT-0500 (Central Daylight Time)","705886","Untrustworthy,Trustworthy","","image-keyboard-response","71","109461","0.0-6.0-2.32","","null","","trustrating_stim/white_mw035.bmp","null","","","","","","","","","","",""
"","","","rating","6400f1783058946c2b4780cd","bdp_trlrn","Wed Mar 15 2023 14:20:32 GMT-0500 (Central Daylight Time)","705886","Untrustworthy,Trustworthy","","image-keyboard-response","72","111046","0.0-6.0-1.33","","1475","","trustrating_stim/white_00761_941201_fb_edt.bmp","6","","","","","","","","","","",""
"","","","ratingFB","6400f1783058946c2b4780cd","bdp_trlrn","Wed Mar 15 2023 14:20:32 GMT-0500 (Central Daylight Time)","705886","Untrustworthy,Trustworthy","","image-keyboard-response","73","111256","0.0-6.0-2.33","","null","","trustrating_stim/white_00761_941201_fb_edt.bmp","null","","","","","","","","","","",""
"","","","rating","6400f1783058946c2b4780cd","bdp_trlrn","Wed Mar 15 2023 14:20:32 GMT-0500 (Central Daylight Time)","705886","Untrustworthy,Trustworthy","","image-keyboard-response","74","112758","0.0-6.0-1.34","","1391","","trustrating_stim/white_mw046.bmp","4","","","","","","","","","","",""
"","","","ratingFB","6400f1783058946c2b4780cd","bdp_trlrn","Wed Mar 15 2023 14:20:32 GMT-0500 (Central Daylight Time)","705886","Untrustworthy,Trustworthy","","image-keyboard-response","75","112961","0.0-6.0-2.34","","null","","trustrating_stim/white_mw046.bmp","null","","","","","","","","","","",""
"","","","rating","6400f1783058946c2b4780cd","bdp_trlrn","Wed Mar 15 2023 14:20:32 GMT-0500 (Central Daylight Time)","705886","Untrustworthy,Trustworthy","","image-keyboard-response","76","114133","0.0-6.0-1.35","","1063","","trustrating_stim/white_00577_940928_fa_edt.bmp","3","","","","","","","","","","",""
"","","","ratingFB","6400f1783058946c2b4780cd","bdp_trlrn","Wed Mar 15 2023 14:20:32 GMT-0500 (Central Daylight Time)","705886","Untrustworthy,Trustworthy","","image-keyboard-response","77","114348","0.0-6.0-2.35","","null","","trustrating_stim/white_00577_940928_fa_edt.bmp","null","","","","","","","","","","",""
"","","","rating","6400f1783058946c2b4780cd","bdp_trlrn","Wed Mar 15 2023 14:20:32 GMT-0500 (Central Daylight Time)","705886","Untrustworthy,Trustworthy","","image-keyboard-response","78","115922","0.0-6.0-1.36","","1464","","trustrating_stim/white_mw071.bmp","4","","","","","","","","","","",""
"","","","ratingFB","6400f1783058946c2b4780cd","bdp_trlrn","Wed Mar 15 2023 14:20:32 GMT-0500 (Central Daylight Time)","705886","Untrustworthy,Trustworthy","","image-keyboard-response","79","116130","0.0-6.0-2.36","","null","","trustrating_stim/white_mw071.bmp","null","","","","","","","","","","",""
"","","","rating","6400f1783058946c2b4780cd","bdp_trlrn","Wed Mar 15 2023 14:20:32 GMT-0500 (Central Daylight Time)","705886","Untrustworthy,Trustworthy","","image-keyboard-response","80","117445","0.0-6.0-1.37","","1205","","trustrating_stim/white_00898_960530_fa_edt.bmp","8","","","","","","","","","","",""
"","","","ratingFB","6400f1783058946c2b4780cd","bdp_trlrn","Wed Mar 15 2023 14:20:32 GMT-0500 (Central Daylight Time)","705886","Untrustworthy,Trustworthy","","image-keyboard-response","81","117651","0.0-6.0-2.37","","null","","trustrating_stim/white_00898_960530_fa_edt.bmp","null","","","","","","","","","","",""
"","","","rating","6400f1783058946c2b4780cd","bdp_trlrn","Wed Mar 15 2023 14:20:32 GMT-0500 (Central Daylight Time)","705886","Untrustworthy,Trustworthy","","image-keyboard-response","82","119383","0.0-6.0-1.38","","1622","","trustrating_stim/white_mw048.bmp","4","","","","","","","","","","",""
"","","","ratingFB","6400f1783058946c2b4780cd","bdp_trlrn","Wed Mar 15 2023 14:20:32 GMT-0500 (Central Daylight Time)","705886","Untrustworthy,Trustworthy","","image-keyboard-response","83","119596","0.0-6.0-2.38","","null","","trustrating_stim/white_mw048.bmp","null","","","","","","","","","","",""
"","","","rating","6400f1783058946c2b4780cd","bdp_trlrn","Wed Mar 15 2023 14:20:32 GMT-0500 (Central Daylight Time)","705886","Untrustworthy,Trustworthy","","image-keyboard-response","84","121171","0.0-6.0-1.39","","1465","","trustrating_stim/white_00519_940519_fb_edt.bmp","8","","","","","","","","","","",""
"","","","ratingFB","6400f1783058946c2b4780cd","bdp_trlrn","Wed Mar 15 2023 14:20:32 GMT-0500 (Central Daylight Time)","705886","Untrustworthy,Trustworthy","","image-keyboard-response","85","121375","0.0-6.0-2.39","","null","","trustrating_stim/white_00519_940519_fb_edt.bmp","null","","","","","","","","","","",""
"","","","rating","6400f1783058946c2b4780cd","bdp_trlrn","Wed Mar 15 2023 14:20:32 GMT-0500 (Central Daylight Time)","705886","Untrustworthy,Trustworthy","","image-keyboard-response","86","123283","0.0-6.0-1.40","","1800","","trustrating_stim/white_mw084.bmp","3","","","","","","","","","","",""
"","","","ratingFB","6400f1783058946c2b4780cd","bdp_trlrn","Wed Mar 15 2023 14:20:32 GMT-0500 (Central Daylight Time)","705886","Untrustworthy,Trustworthy","","image-keyboard-response","87","123499","0.0-6.0-2.40","","null","","trustrating_stim/white_mw084.bmp","null","","","","","","","","","","",""
"","","","rating","6400f1783058946c2b4780cd","bdp_trlrn","Wed Mar 15 2023 14:20:32 GMT-0500 (Central Daylight Time)","705886","Untrustworthy,Trustworthy","","image-keyboard-response","88","125058","0.0-6.0-1.41","","1452","","trustrating_stim/white_mw063.bmp","2","","","","","","","","","","",""
"","","","ratingFB","6400f1783058946c2b4780cd","bdp_trlrn","Wed Mar 15 2023 14:20:32 GMT-0500 (Central Daylight Time)","705886","Untrustworthy,Trustworthy","","image-keyboard-response","89","125266","0.0-6.0-2.41","","null","","trustrating_stim/white_mw063.bmp","null","","","","","","","","","","",""
"","","","rating","6400f1783058946c2b4780cd","bdp_trlrn","Wed Mar 15 2023 14:20:32 GMT-0500 (Central Daylight Time)","705886","Untrustworthy,Trustworthy","","image-keyboard-response","90","126871","0.0-6.0-1.42","","1497","","trustrating_stim/white_mw033.bmp","4","","","","","","","","","","",""
"","","","ratingFB","6400f1783058946c2b4780cd","bdp_trlrn","Wed Mar 15 2023 14:20:32 GMT-0500 (Central Daylight Time)","705886","Untrustworthy,Trustworthy","","image-keyboard-response","91","127086","0.0-6.0-2.42","","null","","trustrating_stim/white_mw033.bmp","null","","","","","","","","","","",""
"","","","rating","6400f1783058946c2b4780cd","bdp_trlrn","Wed Mar 15 2023 14:20:32 GMT-0500 (Central Daylight Time)","705886","Untrustworthy,Trustworthy","","image-keyboard-response","92","128471","0.0-6.0-1.43","","1276","","trustrating_stim/white_mw049.bmp","8","","","","","","","","","","",""
"","","","ratingFB","6400f1783058946c2b4780cd","bdp_trlrn","Wed Mar 15 2023 14:20:32 GMT-0500 (Central Daylight Time)","705886","Untrustworthy,Trustworthy","","image-keyboard-response","93","128677","0.0-6.0-2.43","","null","","trustrating_stim/white_mw049.bmp","null","","","","","","","","","","",""
"","","","rating","6400f1783058946c2b4780cd","bdp_trlrn","Wed Mar 15 2023 14:20:32 GMT-0500 (Central Daylight Time)","705886","Untrustworthy,Trustworthy","","image-keyboard-response","94","130408","0.0-6.0-1.44","","1622","","trustrating_stim/white_00757_941201_fa_edt.bmp","4","","","","","","","","","","",""
"","","","ratingFB","6400f1783058946c2b4780cd","bdp_trlrn","Wed Mar 15 2023 14:20:32 GMT-0500 (Central Daylight Time)","705886","Untrustworthy,Trustworthy","","image-keyboard-response","95","130613","0.0-6.0-2.44","","null","","trustrating_stim/white_00757_941201_fa_edt.bmp","null","","","","","","","","","","",""
"","","","rating","6400f1783058946c2b4780cd","bdp_trlrn","Wed Mar 15 2023 14:20:32 GMT-0500 (Central Daylight Time)","705886","Untrustworthy,Trustworthy","","image-keyboard-response","96","131883","0.0-6.0-1.45","","1160","","trustrating_stim/white_mw053.bmp","8","","","","","","","","","","",""
"","","","ratingFB","6400f1783058946c2b4780cd","bdp_trlrn","Wed Mar 15 2023 14:20:32 GMT-0500 (Central Daylight Time)","705886","Untrustworthy,Trustworthy","","image-keyboard-response","97","132091","0.0-6.0-2.45","","null","","trustrating_stim/white_mw053.bmp","null","","","","","","","","","","",""
"","","","rating","6400f1783058946c2b4780cd","bdp_trlrn","Wed Mar 15 2023 14:20:32 GMT-0500 (Central Daylight Time)","705886","Untrustworthy,Trustworthy","","image-keyboard-response","98","133883","0.0-6.0-1.46","","1686","","trustrating_stim/white_00785_941205_fb_edt.bmp","6","","","","","","","","","","",""
"","","","ratingFB","6400f1783058946c2b4780cd","bdp_trlrn","Wed Mar 15 2023 14:20:32 GMT-0500 (Central Daylight Time)","705886","Untrustworthy,Trustworthy","","image-keyboard-response","99","134097","0.0-6.0-2.46","","null","","trustrating_stim/white_00785_941205_fb_edt.bmp","null","","","","","","","","","","",""
"","","","rating","6400f1783058946c2b4780cd","bdp_trlrn","Wed Mar 15 2023 14:20:32 GMT-0500 (Central Daylight Time)","705886","Untrustworthy,Trustworthy","","image-keyboard-response","100","135821","0.0-6.0-1.47","","1616","","trustrating_stim/white_00602_940928_fb_edt.bmp","8","","","","","","","","","","",""
"","","","ratingFB","6400f1783058946c2b4780cd","bdp_trlrn","Wed Mar 15 2023 14:20:32 GMT-0500 (Central Daylight Time)","705886","Untrustworthy,Trustworthy","","image-keyboard-response","101","136023","0.0-6.0-2.47","","null","","trustrating_stim/white_00602_940928_fb_edt.bmp","null","","","","","","","","","","",""
"","","","rating","6400f1783058946c2b4780cd","bdp_trlrn","Wed Mar 15 2023 14:20:32 GMT-0500 (Central Daylight Time)","705886","Untrustworthy,Trustworthy","","image-keyboard-response","102","138219","0.0-6.0-1.48","","2085","","trustrating_stim/white_mw066.bmp","8","","","","","","","","","","",""
"","","","ratingFB","6400f1783058946c2b4780cd","bdp_trlrn","Wed Mar 15 2023 14:20:32 GMT-0500 (Central Daylight Time)","705886","Untrustworthy,Trustworthy","","image-keyboard-response","103","138428","0.0-6.0-2.48","","null","","trustrating_stim/white_mw066.bmp","null","","","","","","","","","","",""
"","","","rating","6400f1783058946c2b4780cd","bdp_trlrn","Wed Mar 15 2023 14:20:32 GMT-0500 (Central Daylight Time)","705886","Untrustworthy,Trustworthy","","image-keyboard-response","104","139971","0.0-6.0-1.49","","1435","","trustrating_stim/white_00340_940422_fa_edt.bmp","4","","","","","","","","","","",""
"","","","ratingFB","6400f1783058946c2b4780cd","bdp_trlrn","Wed Mar 15 2023 14:20:32 GMT-0500 (Central Daylight Time)","705886","Untrustworthy,Trustworthy","","image-keyboard-response","105","140183","0.0-6.0-2.49","","null","","trustrating_stim/white_00340_940422_fa_edt.bmp","null","","","","","","","","","","",""
"","","","rating","6400f1783058946c2b4780cd","bdp_trlrn","Wed Mar 15 2023 14:20:32 GMT-0500 (Central Daylight Time)","705886","Untrustworthy,Trustworthy","","image-keyboard-response","106","144507","0.0-6.0-1.50","","4218","","trustrating_stim/white_mw060.bmp","4","","","","","","","","","","",""
"","","","ratingFB","6400f1783058946c2b4780cd","bdp_trlrn","Wed Mar 15 2023 14:20:32 GMT-0500 (Central Daylight Time)","705886","Untrustworthy,Trustworthy","","image-keyboard-response","107","144722","0.0-6.0-2.50","","null","","trustrating_stim/white_mw060.bmp","null","","","","","","","","","","",""
"","","","rating","6400f1783058946c2b4780cd","bdp_trlrn","Wed Mar 15 2023 14:20:32 GMT-0500 (Central Daylight Time)","705886","Untrustworthy,Trustworthy","","image-keyboard-response","108","146782","0.0-6.0-1.51","","1950","","trustrating_stim/white_mw097.bmp","6","","","","","","","","","","",""
"","","","ratingFB","6400f1783058946c2b4780cd","bdp_trlrn","Wed Mar 15 2023 14:20:32 GMT-0500 (Central Daylight Time)","705886","Untrustworthy,Trustworthy","","image-keyboard-response","109","146991","0.0-6.0-2.51","","null","","trustrating_stim/white_mw097.bmp","null","","","","","","","","","","",""
"","","","rating","6400f1783058946c2b4780cd","bdp_trlrn","Wed Mar 15 2023 14:20:32 GMT-0500 (Central Daylight Time)","705886","Untrustworthy,Trustworthy","","image-keyboard-response","110","148695","0.0-6.0-1.52","","1596","","trustrating_stim/white_mw089.bmp","3","","","","","","","","","","",""
"","","","ratingFB","6400f1783058946c2b4780cd","bdp_trlrn","Wed Mar 15 2023 14:20:32 GMT-0500 (Central Daylight Time)","705886","Untrustworthy,Trustworthy","","image-keyboard-response","111","148900","0.0-6.0-2.52","","null","","trustrating_stim/white_mw089.bmp","null","","","","","","","","","","",""
"","","","rating","6400f1783058946c2b4780cd","bdp_trlrn","Wed Mar 15 2023 14:20:32 GMT-0500 (Central Daylight Time)","705886","Untrustworthy,Trustworthy","","image-keyboard-response","112","150258","0.0-6.0-1.53","","1251","","trustrating_stim/white_00223_940128_fb_edt.bmp","2","","","","","","","","","","",""
"","","","ratingFB","6400f1783058946c2b4780cd","bdp_trlrn","Wed Mar 15 2023 14:20:32 GMT-0500 (Central Daylight Time)","705886","Untrustworthy,Trustworthy","","image-keyboard-response","113","150468","0.0-6.0-2.53","","null","","trustrating_stim/white_00223_940128_fb_edt.bmp","null","","","","","","","","","","",""
"","","","rating","6400f1783058946c2b4780cd","bdp_trlrn","Wed Mar 15 2023 14:20:32 GMT-0500 (Central Daylight Time)","705886","Untrustworthy,Trustworthy","","image-keyboard-response","114","151983","0.0-6.0-1.54","","1404","","trustrating_stim/white_00129_931230_fb_edt.bmp","8","","","","","","","","","","",""
"","","","ratingFB","6400f1783058946c2b4780cd","bdp_trlrn","Wed Mar 15 2023 14:20:32 GMT-0500 (Central Daylight Time)","705886","Untrustworthy,Trustworthy","","image-keyboard-response","115","152190","0.0-6.0-2.54","","null","","trustrating_stim/white_00129_931230_fb_edt.bmp","null","","","","","","","","","","",""
"","","","rating","6400f1783058946c2b4780cd","bdp_trlrn","Wed Mar 15 2023 14:20:32 GMT-0500 (Central Daylight Time)","705886","Untrustworthy,Trustworthy","","image-keyboard-response","116","153695","0.0-6.0-1.55","","1398","","trustrating_stim/white_00807_941205_fb_edt.bmp","6","","","","","","","","","","",""
"","","","ratingFB","6400f1783058946c2b4780cd","bdp_trlrn","Wed Mar 15 2023 14:20:32 GMT-0500 (Central Daylight Time)","705886","Untrustworthy,Trustworthy","","image-keyboard-response","117","153904","0.0-6.0-2.55","","null","","trustrating_stim/white_00807_941205_fb_edt.bmp","null","","","","","","","","","","",""
"","","","rating","6400f1783058946c2b4780cd","bdp_trlrn","Wed Mar 15 2023 14:20:32 GMT-0500 (Central Daylight Time)","705886","Untrustworthy,Trustworthy","","image-keyboard-response","118","155457","0.0-6.0-1.56","","1444","","trustrating_stim/white_00109_931230_fa_edt.bmp","8","","","","","","","","","","",""
"","","","ratingFB","6400f1783058946c2b4780cd","bdp_trlrn","Wed Mar 15 2023 14:20:32 GMT-0500 (Central Daylight Time)","705886","Untrustworthy,Trustworthy","","image-keyboard-response","119","155661","0.0-6.0-2.56","","null","","trustrating_stim/white_00109_931230_fa_edt.bmp","null","","","","","","","","","","",""
"","","","rating","6400f1783058946c2b4780cd","bdp_trlrn","Wed Mar 15 2023 14:20:32 GMT-0500 (Central Daylight Time)","705886","Untrustworthy,Trustworthy","","image-keyboard-response","120","157271","0.0-6.0-1.57","","1500","","trustrating_stim/white_mw099.bmp","2","","","","","","","","","","",""
"","","","ratingFB","6400f1783058946c2b4780cd","bdp_trlrn","Wed Mar 15 2023 14:20:32 GMT-0500 (Central Daylight Time)","705886","Untrustworthy,Trustworthy","","image-keyboard-response","121","157480","0.0-6.0-2.57","","null","","trustrating_stim/white_mw099.bmp","null","","","","","","","","","","",""
"","","","rating","6400f1783058946c2b4780cd","bdp_trlrn","Wed Mar 15 2023 14:20:32 GMT-0500 (Central Daylight Time)","705886","Untrustworthy,Trustworthy","","image-keyboard-response","122","159295","0.0-6.0-1.58","","1708","","trustrating_stim/white_00299_940422_fa_edt.bmp","4","","","","","","","","","","",""
"","","","ratingFB","6400f1783058946c2b4780cd","bdp_trlrn","Wed Mar 15 2023 14:20:32 GMT-0500 (Central Daylight Time)","705886","Untrustworthy,Trustworthy","","image-keyboard-response","123","159502","0.0-6.0-2.58","","null","","trustrating_stim/white_00299_940422_fa_edt.bmp","null","","","","","","","","","","",""
"","","","rating","6400f1783058946c2b4780cd","bdp_trlrn","Wed Mar 15 2023 14:20:32 GMT-0500 (Central Daylight Time)","705886","Untrustworthy,Trustworthy","","image-keyboard-response","124","161033","0.0-6.0-1.59","","1419","","trustrating_stim/white_00120_931230_fa_edt.bmp","4","","","","","","","","","","",""
"","","","ratingFB","6400f1783058946c2b4780cd","bdp_trlrn","Wed Mar 15 2023 14:20:32 GMT-0500 (Central Daylight Time)","705886","Untrustworthy,Trustworthy","","image-keyboard-response","125","161234","0.0-6.0-2.59","","null","","trustrating_stim/white_00120_931230_fa_edt.bmp","null","","","","","","","","","","",""
"","","","","6400f1783058946c2b4780cd","bdp_trlrn","Wed Mar 15 2023 14:20:32 GMT-0500 (Central Daylight Time)","705886","Untrustworthy,Trustworthy","","instructions","126","162771","0.0-7.0","[{""page_index"":0,""viewing_time"":1428}]","1428","","","","","","","","","","","","","",""
"","","","","6400f1783058946c2b4780cd","bdp_trlrn","Wed Mar 15 2023 14:20:32 GMT-0500 (Central Daylight Time)","705886","Untrustworthy,Trustworthy","","instructions","127","252844","0.0-8.0","[{""page_index"":0,""viewing_time"":20324},{""page_index"":1,""viewing_time"":10338},{""page_index"":2,""viewing_time"":8535},{""page_index"":3,""viewing_time"":5689},{""page_index"":4,""viewing_time"":7099},{""page_index"":5,""viewing_time"":8577},{""page_index"":6,""viewing_time"":24536},{""page_index"":7,""viewing_time"":4874}]","89973","","","","","","","","","","","","","",""
"","","","","6400f1783058946c2b4780cd","bdp_trlrn","Wed Mar 15 2023 14:20:32 GMT-0500 (Central Daylight Time)","705886","Untrustworthy,Trustworthy","","html-keyboard-response","128","263182","0.0-9.0","","10338","","<div class='header' style='text-align:left; position: absolute; top: 5%; left: 5%;'><small>Task 3 of 5</small></div><div class='instruxDiv'><p><strong>1) What is the minimum number of points you can choose to send to your partner?</strong></p><p>a) 0</p><p>b) 1</p><p>c) 5</p>","B","","","","","","","","","","",""
"","","","","6400f1783058946c2b4780cd","bdp_trlrn","Wed Mar 15 2023 14:20:32 GMT-0500 (Central Daylight Time)","705886","Untrustworthy,Trustworthy","","html-keyboard-response","129","265719","0.0-10.0","","2422","","<div class='header' style='text-align:left; position: absolute; top: 5%; left: 5%;'><small>Task 3 of 5</small></div><div class='instruxDiv'><p><strong>1) What is the minimum number of points you can choose to send to your partner?</strong></p><p>a) 0</p><p style='color:#00FF00'>b) 1</p><p>c) 5</p><h3 style='color:#00FF00'>Correct!</h3><h3 class='center-content'>The correct response is b).</h3><h3 class='center-content'>The minimum number of points you can choose to send to your partner is 1 point.</h3><p><em>Press SPACEBAR to continue</em></p></div>"," ","","","","","","","","","","",""
"","","","","6400f1783058946c2b4780cd","bdp_trlrn","Wed Mar 15 2023 14:20:32 GMT-0500 (Central Daylight Time)","705886","Untrustworthy,Trustworthy","","html-keyboard-response","130","271043","0.0-11.0","","5224","","<div class='header' style='text-align:left; position: absolute; top: 5%; left: 5%;'><small>Task 3 of 5</small></div><div class='instruxDiv'><p><strong>2) What is the maximum number of points you can choose to send to your partner?</strong></p><p>a) 8</p><p>b) 5</p><p>c) 3</p>","B","","","","","","","","","","",""
"","","","","6400f1783058946c2b4780cd","bdp_trlrn","Wed Mar 15 2023 14:20:32 GMT-0500 (Central Daylight Time)","705886","Untrustworthy,Trustworthy","","html-keyboard-response","131","275006","0.0-12.0","","3848","","<div class='header' style='text-align:left; position: absolute; top: 5%; left: 5%;'><small>Task 3 of 5</small></div><div class='instruxDiv'><p><strong>2) What is the maximum number of points you can choose to send to your partner?</strong></p><p>a) 8</p><p style='color:#00FF00'>b) 5</p><p>c) 3</p><h3 style='color:#00FF00'>Correct!</h3><h3 class='center-content'>The correct response is b).</h3><h3 class='center-content'>The maximum number of points you can choose to send to your partner is 5 points.</h3><p><em>Press SPACEBAR to continue</em></p></div>"," ","","","","","","","","","","",""
"","","","","6400f1783058946c2b4780cd","bdp_trlrn","Wed Mar 15 2023 14:20:32 GMT-0500 (Central Daylight Time)","705886","Untrustworthy,Trustworthy","","html-keyboard-response","132","279057","0.0-13.0","","3940","","<div class='header' style='text-align:left; position: absolute; top: 5%; left: 5%;'><small>Task 3 of 5</small></div><div class='instruxDiv'><p><strong>3) What happens to the amount of points you send to your partner?</strong></p><p>a) Nothing</p><p>b) It doubles</p><p>c) It quadruples</p>","C","","","","","","","","","","",""
"","","","","6400f1783058946c2b4780cd","bdp_trlrn","Wed Mar 15 2023 14:20:32 GMT-0500 (Central Daylight Time)","705886","Untrustworthy,Trustworthy","","html-keyboard-response","133","280432","0.0-14.0","","1262","","<div class='header' style='text-align:left; position: absolute; top: 5%; left: 5%;'><small>Task 3 of 5</small></div><div class='instruxDiv'><p><strong>3) What happens to the amount of points you send to your partner?</strong></p><p>a) Nothing</p><p>b) It doubles</p><p style='color:#00FF00'>c) It quadruples</p><h3 style='color:#00FF00'>Correct!</h3><h3 class='center-content'>The correct response is c).</h3><h3 class='center-content'>The amount of points you send to your partner quadruples.</h3><p><em>Press SPACEBAR to continue</em></p></div>"," ","","","","","","","","","","",""
"","","","","6400f1783058946c2b4780cd","bdp_trlrn","Wed Mar 15 2023 14:20:32 GMT-0500 (Central Daylight Time)","705886","Untrustworthy,Trustworthy","","html-keyboard-response","134","289595","0.0-15.0","","9060","","<div class='header' style='text-align:left; position: absolute; top: 5%; left: 5%;'><small>Task 3 of 5</small></div><div class='instruxDiv'><p><strong>4) If you decided to share 4 out of 5 points with your partner, and they decided to share half of the amount they received with you, how many points would you receive back from them on this round?</strong></p><p>a) 16</p><p>b) 0</p><p>c) 8</p>","C","","","","","","","","","","",""
"","","","","6400f1783058946c2b4780cd","bdp_trlrn","Wed Mar 15 2023 14:20:32 GMT-0500 (Central Daylight Time)","705886","Untrustworthy,Trustworthy","","html-keyboard-response","135","290807","0.0-16.0","","1102","","<div class='header' style='text-align:left; position: absolute; top: 5%; left: 5%;'><small>Task 3 of 5</small></div><div class='instruxDiv'><p><strong>4) If you decided to share 4 out of 5 points with your partner, and they decided to share half of the amount they received with you, how many points would you receive back from them on this round?</strong></p><p>a) 16</p><p>b) 0</p><p style='color:#00FF00'>c) 8</p><h3 style='color:#00FF00'>Correct!</h3><h3 class='center-content'>The correct response is c).</h3><h3 class='center-content'>If you shared 4 out of 5 points with your partner and they decided to share half of the amount they received with you, you would receive 8 points back (i.e. (4 x 4)/2 = 8).</h3><p><em>Press SPACEBAR to continue</em></p></div>"," ","","","","","","","","","","",""
"","","","","6400f1783058946c2b4780cd","bdp_trlrn","Wed Mar 15 2023 14:20:32 GMT-0500 (Central Daylight Time)","705886","Untrustworthy,Trustworthy","","html-keyboard-response","136","295918","0.0-17.0","","null","","<div class='header' style='text-align:left; position: absolute; top: 5%; left: 5%;'><small>Task 3 of 5</small></div><div class='instruxDiv'><p>Thank you for completing the quiz<p>These are the actual partners you will be interacting with in the next block:<p><div class='tc' align='center'><img class='introPic' src='trustrating_stim/white_00223_940128_fb_edt.bmp'><br><strong>Ryan</strong></div><div class='bl' align='center'><img class='introPic' src='trustrating_stim/white_mw048.bmp'><br><strong>Evan</strong></div><div class='br' align='center'><img class='introPic' src='trustrating_stim/white_00898_960530_fa_edt.bmp'><br><strong>Benjamin</strong></div></div><p>Across <strong>66 rounds</strong> you will interact with each partner <strong>22 times</strong> (in random order).<p style='align:center; color:white'><font <em>Press SPACEBAR to continue</em></p>","null","","","","","","","","","","",""
"","","","","6400f1783058946c2b4780cd","bdp_trlrn","Wed Mar 15 2023 14:20:32 GMT-0500 (Central Daylight Time)","705886","Untrustworthy,Trustworthy","","instructions","137","301594","0.0-18.0","[{""page_index"":0,""viewing_time"":2149},{""page_index"":1,""viewing_time"":3525}]","5674","","","","","","","","","","","","","",""
"","","","decision","6400f1783058946c2b4780cd","bdp_trlrn","Wed Mar 15 2023 14:20:32 GMT-0500 (Central Daylight Time)","705886","Untrustworthy,Trustworthy","","html-keyboard-response","138","308593","0.0-19.0-1.0","","6892","","<div class='trialDiv'><img src='trustrating_stim/white_00223_940128_fb_edt.bmp'><br><font class='baseline'><strong>Ryan</strong><p>Choose number of points to send.</font><div class='respPicDiv'><img src='img/responseButtonOffersNo0L.png' class='respPic'></div></div>","4","1","Ryan","0","Kept","0.35,0.65","9","0.35","trustrating_stim/white_00223_940128_fb_edt.bmp","2","5","1"
"","","","decisionFB","6400f1783058946c2b4780cd","bdp_trlrn","Wed Mar 15 2023 14:20:32 GMT-0500 (Central Daylight Time)","705886","Untrustworthy,Trustworthy","","html-keyboard-response","139","308847","0.0-19.0-2.0","","null","","<div class='trialDiv'><img src='trustrating_stim/white_00223_940128_fb_edt.bmp'><br><font class='baseline'><strong>Ryan</strong><p>Choose number of points to send.</font><div class='respPicDiv'><img src='img/responseButtonOffersNo0L4.png' class='respPic'></div></div>","null","1","Ryan","0","Kept","0.35,0.65","9","0.35","trustrating_stim/white_00223_940128_fb_edt.bmp","2","1","1"
"","","","feedback","6400f1783058946c2b4780cd","bdp_trlrn","Wed Mar 15 2023 14:20:32 GMT-0500 (Central Daylight Time)","705886","Untrustworthy,Trustworthy","","html-keyboard-response","140","309853","0.0-19.0-3.0","","null","","<div class='trialDiv'><img src='trustrating_stim/white_00223_940128_fb_edt.bmp'><br><font class='baseline'><strong>Ryan</strong><p>Received: <strong>16</strong></font> &nbsp; &nbsp; &nbsp; &nbsp; &nbsp; &nbsp;<font class='negOutcome'>Shared back: <strong>0</strong></font></font><div class='respPicDiv'><img src='img/responseButtonOffersNo0_wht.png' class='respPic'></div></div>","null","1","Ryan","0","Kept","0.35,0.65","9","0.35","trustrating_stim/white_00223_940128_fb_edt.bmp","2","1","1"
"","","","decision","6400f1783058946c2b4780cd","bdp_trlrn","Wed Mar 15 2023 14:20:32 GMT-0500 (Central Daylight Time)","705886","Untrustworthy,Trustworthy","","html-keyboard-response","141","311780","0.0-19.0-1.1","","1926","","<div class='trialDiv'><img src='trustrating_stim/white_00898_960530_fa_edt.bmp'><br><font class='baseline'><strong>Benjamin</strong><p>Choose number of points to send.</font><div class='respPicDiv'><img src='img/responseButtonOffersNo0L.png' class='respPic'></div></div>","5","1","Benjamin","11","Shared","0.8,0.35","12","0.8","trustrating_stim/white_00898_960530_fa_edt.bmp","8","6","2"
"","","","decisionFB","6400f1783058946c2b4780cd","bdp_trlrn","Wed Mar 15 2023 14:20:32 GMT-0500 (Central Daylight Time)","705886","Untrustworthy,Trustworthy","","html-keyboard-response","142","312035","0.0-19.0-2.1","","null","","<div class='trialDiv'><img src='trustrating_stim/white_00898_960530_fa_edt.bmp'><br><font class='baseline'><strong>Benjamin</strong><p>Choose number of points to send.</font><div class='respPicDiv'><img src='img/responseButtonOffersNo0L5.png' class='respPic'></div></div>","null","1","Benjamin","11","Shared","0.8,0.35","12","0.8","trustrating_stim/white_00898_960530_fa_edt.bmp","8","1","2"
"","","","feedback","6400f1783058946c2b4780cd","bdp_trlrn","Wed Mar 15 2023 14:20:32 GMT-0500 (Central Daylight Time)","705886","Untrustworthy,Trustworthy","","html-keyboard-response","143","313048","0.0-19.0-3.1","","null","","<div class='trialDiv'><img src='trustrating_stim/white_00898_960530_fa_edt.bmp'><br><font class='baseline'><strong>Benjamin</strong><p>Received: <strong>20</strong></font> &nbsp; &nbsp; &nbsp; &nbsp; &nbsp; &nbsp;<font class='posOutcome'>Shared back: <strong>10</strong></font></font><div class='respPicDiv'><img src='img/responseButtonOffersNo0_wht.png' class='respPic'></div></div>","null","1","Benjamin","11","Shared","0.8,0.35","12","0.8","trustrating_stim/white_00898_960530_fa_edt.bmp","8","11","2"
"","","","decision","6400f1783058946c2b4780cd","bdp_trlrn","Wed Mar 15 2023 14:20:32 GMT-0500 (Central Daylight Time)","705886","Untrustworthy,Trustworthy","","html-keyboard-response","144","315080","0.0-19.0-1.2","","2030","","<div class='trialDiv'><img src='trustrating_stim/white_mw048.bmp'><br><font class='baseline'><strong>Evan</strong><p>Choose number of points to send.</font><div class='respPicDiv'><img src='img/responseButtonOffersNo0L.png' class='respPic'></div></div>","3","1","Evan","7","Shared","0.2,0.65","14","0.2","trustrating_stim/white_mw048.bmp","5","16","3"
"","","","decisionFB","6400f1783058946c2b4780cd","bdp_trlrn","Wed Mar 15 2023 14:20:32 GMT-0500 (Central Daylight Time)","705886","Untrustworthy,Trustworthy","","html-keyboard-response","145","315345","0.0-19.0-2.2","","null","","<div class='trialDiv'><img src='trustrating_stim/white_mw048.bmp'><br><font class='baseline'><strong>Evan</strong><p>Choose number of points to send.</font><div class='respPicDiv'><img src='img/responseButtonOffersNo0L3.png' class='respPic'></div></div>","null","1","Evan","7","Shared","0.2,0.65","14","0.2","trustrating_stim/white_mw048.bmp","5","13","3"
"","","","feedback","6400f1783058946c2b4780cd","bdp_trlrn","Wed Mar 15 2023 14:20:32 GMT-0500 (Central Daylight Time)","705886","Untrustworthy,Trustworthy","","html-keyboard-response","146","316351","0.0-19.0-3.2","","null","","<div class='trialDiv'><img src='trustrating_stim/white_mw048.bmp'><br><font class='baseline'><strong>Evan</strong><p>Received: <strong>12</strong></font> &nbsp; &nbsp; &nbsp; &nbsp; &nbsp; &nbsp;<font class='posOutcome'>Shared back: <strong>6</strong></font></font><div class='respPicDiv'><img src='img/responseButtonOffersNo0_wht.png' class='respPic'></div></div>","null","1","Evan","7","Shared","0.2,0.65","14","0.2","trustrating_stim/white_mw048.bmp","5","19","3"
"","","","decision","6400f1783058946c2b4780cd","bdp_trlrn","Wed Mar 15 2023 14:20:32 GMT-0500 (Central Daylight Time)","705886","Untrustworthy,Trustworthy","","html-keyboard-response","147","319693","0.0-19.0-1.3","","3341","","<div class='trialDiv'><img src='trustrating_stim/white_00223_940128_fb_edt.bmp'><br><font class='baseline'><strong>Ryan</strong><p>Choose number of points to send.</font><div class='respPicDiv'><img src='img/responseButtonOffersNo0L.png' class='respPic'></div></div>","2","2","Ryan","0","Kept","0.35,0.65","9","0.35","trustrating_stim/white_00223_940128_fb_edt.bmp","2","24","4"
"","","","decisionFB","6400f1783058946c2b4780cd","bdp_trlrn","Wed Mar 15 2023 14:20:32 GMT-0500 (Central Daylight Time)","705886","Untrustworthy,Trustworthy","","html-keyboard-response","148","319955","0.0-19.0-2.3","","null","","<div class='trialDiv'><img src='trustrating_stim/white_00223_940128_fb_edt.bmp'><br><font class='baseline'><strong>Ryan</strong><p>Choose number of points to send.</font><div class='respPicDiv'><img src='img/responseButtonOffersNo0L2.png' class='respPic'></div></div>","null","2","Ryan","0","Kept","0.35,0.65","9","0.35","trustrating_stim/white_00223_940128_fb_edt.bmp","2","22","4"
"","","","feedback","6400f1783058946c2b4780cd","bdp_trlrn","Wed Mar 15 2023 14:20:32 GMT-0500 (Central Daylight Time)","705886","Untrustworthy,Trustworthy","","html-keyboard-response","149","320963","0.0-19.0-3.3","","null","","<div class='trialDiv'><img src='trustrating_stim/white_00223_940128_fb_edt.bmp'><br><font class='baseline'><strong>Ryan</strong><p>Received: <strong>8</strong></font> &nbsp; &nbsp; &nbsp; &nbsp; &nbsp; &nbsp;<font class='negOutcome'>Shared back: <strong>0</strong></font></font><div class='respPicDiv'><img src='img/responseButtonOffersNo0_wht.png' class='respPic'></div></div>","null","2","Ryan","0","Kept","0.35,0.65","9","0.35","trustrating_stim/white_00223_940128_fb_edt.bmp","2","22","4"
"","","","decision","6400f1783058946c2b4780cd","bdp_trlrn","Wed Mar 15 2023 14:20:32 GMT-0500 (Central Daylight Time)","705886","Untrustworthy,Trustworthy","","html-keyboard-response","150","323617","0.0-19.0-1.4","","2654","","<div class='trialDiv'><img src='trustrating_stim/white_mw048.bmp'><br><font class='baseline'><strong>Evan</strong><p>Choose number of points to send.</font><div class='respPicDiv'><img src='img/responseButtonOffersNo0L.png' class='respPic'></div></div>","5","2","Evan","7","Shared","0.2,0.65","14","0.2","trustrating_stim/white_mw048.bmp","5","27","5"
"","","","decisionFB","6400f1783058946c2b4780cd","bdp_trlrn","Wed Mar 15 2023 14:20:32 GMT-0500 (Central Daylight Time)","705886","Untrustworthy,Trustworthy","","html-keyboard-response","151","323876","0.0-19.0-2.4","","null","","<div class='trialDiv'><img src='trustrating_stim/white_mw048.bmp'><br><font class='baseline'><strong>Evan</strong><p>Choose number of points to send.</font><div class='respPicDiv'><img src='img/responseButtonOffersNo0L5.png' class='respPic'></div></div>","null","2","Evan","7","Shared","0.2,0.65","14","0.2","trustrating_stim/white_mw048.bmp","5","22","5"
"","","","feedback","6400f1783058946c2b4780cd","bdp_trlrn","Wed Mar 15 2023 14:20:32 GMT-0500 (Central Daylight Time)","705886","Untrustworthy,Trustworthy","","html-keyboard-response","152","324886","0.0-19.0-3.4","","null","","<div class='trialDiv'><img src='trustrating_stim/white_mw048.bmp'><br><font class='baseline'><strong>Evan</strong><p>Received: <strong>20</strong></font> &nbsp; &nbsp; &nbsp; &nbsp; &nbsp; &nbsp;<font class='posOutcome'>Shared back: <strong>10</strong></font></font><div class='respPicDiv'><img src='img/responseButtonOffersNo0_wht.png' class='respPic'></div></div>","null","2","Evan","7","Shared","0.2,0.65","14","0.2","trustrating_stim/white_mw048.bmp","5","32","5"
"","","","decision","6400f1783058946c2b4780cd","bdp_trlrn","Wed Mar 15 2023 14:20:32 GMT-0500 (Central Daylight Time)","705886","Untrustworthy,Trustworthy","","html-keyboard-response","153","325632","0.0-19.0-1.5","","744","","<div class='trialDiv'><img src='trustrating_stim/white_00898_960530_fa_edt.bmp'><br><font class='baseline'><strong>Benjamin</strong><p>Choose number of points to send.</font><div class='respPicDiv'><img src='img/responseButtonOffersNo0L.png' class='respPic'></div></div>","5","2","Benjamin","11","Shared","0.8,0.35","12","0.8","trustrating_stim/white_00898_960530_fa_edt.bmp","8","37","6"
"","","","decisionFB","6400f1783058946c2b4780cd","bdp_trlrn","Wed Mar 15 2023 14:20:32 GMT-0500 (Central Daylight Time)","705886","Untrustworthy,Trustworthy","","html-keyboard-response","154","325896","0.0-19.0-2.5","","null","","<div class='trialDiv'><img src='trustrating_stim/white_00898_960530_fa_edt.bmp'><br><font class='baseline'><strong>Benjamin</strong><p>Choose number of points to send.</font><div class='respPicDiv'><img src='img/responseButtonOffersNo0L5.png' class='respPic'></div></div>","null","2","Benjamin","11","Shared","0.8,0.35","12","0.8","trustrating_stim/white_00898_960530_fa_edt.bmp","8","32","6"
"","","","feedback","6400f1783058946c2b4780cd","bdp_trlrn","Wed Mar 15 2023 14:20:32 GMT-0500 (Central Daylight Time)","705886","Untrustworthy,Trustworthy","","html-keyboard-response","155","326906","0.0-19.0-3.5","","null","","<div class='trialDiv'><img src='trustrating_stim/white_00898_960530_fa_edt.bmp'><br><font class='baseline'><strong>Benjamin</strong><p>Received: <strong>20</strong></font> &nbsp; &nbsp; &nbsp; &nbsp; &nbsp; &nbsp;<font class='posOutcome'>Shared back: <strong>10</strong></font></font><div class='respPicDiv'><img src='img/responseButtonOffersNo0_wht.png' class='respPic'></div></div>","null","2","Benjamin","11","Shared","0.8,0.35","12","0.8","trustrating_stim/white_00898_960530_fa_edt.bmp","8","42","6"
"","","","decision","6400f1783058946c2b4780cd","bdp_trlrn","Wed Mar 15 2023 14:20:32 GMT-0500 (Central Daylight Time)","705886","Untrustworthy,Trustworthy","","html-keyboard-response","156","328168","0.0-19.0-1.6","","1261","","<div class='trialDiv'><img src='trustrating_stim/white_mw048.bmp'><br><font class='baseline'><strong>Evan</strong><p>Choose number of points to send.</font><div class='respPicDiv'><img src='img/responseButtonOffersNo0L.png' class='respPic'></div></div>","5","3","Evan","7","Kept","0.2,0.65","14","0.2","trustrating_stim/white_mw048.bmp","5","47","7"
"","","","decisionFB","6400f1783058946c2b4780cd","bdp_trlrn","Wed Mar 15 2023 14:20:32 GMT-0500 (Central Daylight Time)","705886","Untrustworthy,Trustworthy","","html-keyboard-response","157","328427","0.0-19.0-2.6","","null","","<div class='trialDiv'><img src='trustrating_stim/white_mw048.bmp'><br><font class='baseline'><strong>Evan</strong><p>Choose number of points to send.</font><div class='respPicDiv'><img src='img/responseButtonOffersNo0L5.png' class='respPic'></div></div>","null","3","Evan","7","Kept","0.2,0.65","14","0.2","trustrating_stim/white_mw048.bmp","5","42","7"
"","","","feedback","6400f1783058946c2b4780cd","bdp_trlrn","Wed Mar 15 2023 14:20:32 GMT-0500 (Central Daylight Time)","705886","Untrustworthy,Trustworthy","","html-keyboard-response","158","329437","0.0-19.0-3.6","","null","","<div class='trialDiv'><img src='trustrating_stim/white_mw048.bmp'><br><font class='baseline'><strong>Evan</strong><p>Received: <strong>20</strong></font> &nbsp; &nbsp; &nbsp; &nbsp; &nbsp; &nbsp;<font class='negOutcome'>Shared back: <strong>0</strong></font></font><div class='respPicDiv'><img src='img/responseButtonOffersNo0_wht.png' class='respPic'></div></div>","null","3","Evan","7","Kept","0.2,0.65","14","0.2","trustrating_stim/white_mw048.bmp","5","42","7"
"","","","decision","6400f1783058946c2b4780cd","bdp_trlrn","Wed Mar 15 2023 14:20:32 GMT-0500 (Central Daylight Time)","705886","Untrustworthy,Trustworthy","","html-keyboard-response","159","330195","0.0-19.0-1.7","","756","","<div class='trialDiv'><img src='trustrating_stim/white_00898_960530_fa_edt.bmp'><br><font class='baseline'><strong>Benjamin</strong><p>Choose number of points to send.</font><div class='respPicDiv'><img src='img/responseButtonOffersNo0L.png' class='respPic'></div></div>","5","3","Benjamin","11","Shared","0.8,0.35","12","0.8","trustrating_stim/white_00898_960530_fa_edt.bmp","8","47","8"
"","","","decisionFB","6400f1783058946c2b4780cd","bdp_trlrn","Wed Mar 15 2023 14:20:32 GMT-0500 (Central Daylight Time)","705886","Untrustworthy,Trustworthy","","html-keyboard-response","160","330450","0.0-19.0-2.7","","null","","<div class='trialDiv'><img src='trustrating_stim/white_00898_960530_fa_edt.bmp'><br><font class='baseline'><strong>Benjamin</strong><p>Choose number of points to send.</font><div class='respPicDiv'><img src='img/responseButtonOffersNo0L5.png' class='respPic'></div></div>","null","3","Benjamin","11","Shared","0.8,0.35","12","0.8","trustrating_stim/white_00898_960530_fa_edt.bmp","8","42","8"
"","","","feedback","6400f1783058946c2b4780cd","bdp_trlrn","Wed Mar 15 2023 14:20:32 GMT-0500 (Central Daylight Time)","705886","Untrustworthy,Trustworthy","","html-keyboard-response","161","331458","0.0-19.0-3.7","","null","","<div class='trialDiv'><img src='trustrating_stim/white_00898_960530_fa_edt.bmp'><br><font class='baseline'><strong>Benjamin</strong><p>Received: <strong>20</strong></font> &nbsp; &nbsp; &nbsp; &nbsp; &nbsp; &nbsp;<font class='posOutcome'>Shared back: <strong>10</strong></font></font><div class='respPicDiv'><img src='img/responseButtonOffersNo0_wht.png' class='respPic'></div></div>","null","3","Benjamin","11","Shared","0.8,0.35","12","0.8","trustrating_stim/white_00898_960530_fa_edt.bmp","8","52","8"
"","","","decision","6400f1783058946c2b4780cd","bdp_trlrn","Wed Mar 15 2023 14:20:32 GMT-0500 (Central Daylight Time)","705886","Untrustworthy,Trustworthy","","html-keyboard-response","162","333907","0.0-19.0-1.8","","2447","","<div class='trialDiv'><img src='trustrating_stim/white_00223_940128_fb_edt.bmp'><br><font class='baseline'><strong>Ryan</strong><p>Choose number of points to send.</font><div class='respPicDiv'><img src='img/responseButtonOffersNo0L.png' class='respPic'></div></div>","3","3","Ryan","0","Kept","0.35,0.65","9","0.35","trustrating_stim/white_00223_940128_fb_edt.bmp","2","57","9"
"","","","decisionFB","6400f1783058946c2b4780cd","bdp_trlrn","Wed Mar 15 2023 14:20:32 GMT-0500 (Central Daylight Time)","705886","Untrustworthy,Trustworthy","","html-keyboard-response","163","334163","0.0-19.0-2.8","","null","","<div class='trialDiv'><img src='trustrating_stim/white_00223_940128_fb_edt.bmp'><br><font class='baseline'><strong>Ryan</strong><p>Choose number of points to send.</font><div class='respPicDiv'><img src='img/responseButtonOffersNo0L3.png' class='respPic'></div></div>","null","3","Ryan","0","Kept","0.35,0.65","9","0.35","trustrating_stim/white_00223_940128_fb_edt.bmp","2","54","9"
"","","","feedback","6400f1783058946c2b4780cd","bdp_trlrn","Wed Mar 15 2023 14:20:32 GMT-0500 (Central Daylight Time)","705886","Untrustworthy,Trustworthy","","html-keyboard-response","164","335174","0.0-19.0-3.8","","null","","<div class='trialDiv'><img src='trustrating_stim/white_00223_940128_fb_edt.bmp'><br><font class='baseline'><strong>Ryan</strong><p>Received: <strong>12</strong></font> &nbsp; &nbsp; &nbsp; &nbsp; &nbsp; &nbsp;<font class='negOutcome'>Shared back: <strong>0</strong></font></font><div class='respPicDiv'><img src='img/responseButtonOffersNo0_wht.png' class='respPic'></div></div>","null","3","Ryan","0","Kept","0.35,0.65","9","0.35","trustrating_stim/white_00223_940128_fb_edt.bmp","2","54","9"
"","","","decision","6400f1783058946c2b4780cd","bdp_trlrn","Wed Mar 15 2023 14:20:32 GMT-0500 (Central Daylight Time)","705886","Untrustworthy,Trustworthy","","html-keyboard-response","165","336281","0.0-19.0-1.9","","1107","","<div class='trialDiv'><img src='trustrating_stim/white_00898_960530_fa_edt.bmp'><br><font class='baseline'><strong>Benjamin</strong><p>Choose number of points to send.</font><div class='respPicDiv'><img src='img/responseButtonOffersNo0L.png' class='respPic'></div></div>","5","4","Benjamin","11","Shared","0.8,0.35","12","0.8","trustrating_stim/white_00898_960530_fa_edt.bmp","8","59","10"
"","","","decisionFB","6400f1783058946c2b4780cd","bdp_trlrn","Wed Mar 15 2023 14:20:32 GMT-0500 (Central Daylight Time)","705886","Untrustworthy,Trustworthy","","html-keyboard-response","166","336544","0.0-19.0-2.9","","null","","<div class='trialDiv'><img src='trustrating_stim/white_00898_960530_fa_edt.bmp'><br><font class='baseline'><strong>Benjamin</strong><p>Choose number of points to send.</font><div class='respPicDiv'><img src='img/responseButtonOffersNo0L5.png' class='respPic'></div></div>","null","4","Benjamin","11","Shared","0.8,0.35","12","0.8","trustrating_stim/white_00898_960530_fa_edt.bmp","8","54","10"
"","","","feedback","6400f1783058946c2b4780cd","bdp_trlrn","Wed Mar 15 2023 14:20:32 GMT-0500 (Central Daylight Time)","705886","Untrustworthy,Trustworthy","","html-keyboard-response","167","337552","0.0-19.0-3.9","","null","","<div class='trialDiv'><img src='trustrating_stim/white_00898_960530_fa_edt.bmp'><br><font class='baseline'><strong>Benjamin</strong><p>Received: <strong>20</strong></font> &nbsp; &nbsp; &nbsp; &nbsp; &nbsp; &nbsp;<font class='posOutcome'>Shared back: <strong>10</strong></font></font><div class='respPicDiv'><img src='img/responseButtonOffersNo0_wht.png' class='respPic'></div></div>","null","4","Benjamin","11","Shared","0.8,0.35","12","0.8","trustrating_stim/white_00898_960530_fa_edt.bmp","8","64","10"
"","","","decision","6400f1783058946c2b4780cd","bdp_trlrn","Wed Mar 15 2023 14:20:32 GMT-0500 (Central Daylight Time)","705886","Untrustworthy,Trustworthy","","html-keyboard-response","168","339679","0.0-19.0-1.10","","2126","","<div class='trialDiv'><img src='trustrating_stim/white_00223_940128_fb_edt.bmp'><br><font class='baseline'><strong>Ryan</strong><p>Choose number of points to send.</font><div class='respPicDiv'><img src='img/responseButtonOffersNo0L.png' class='respPic'></div></div>","3","4","Ryan","0","Kept","0.35,0.65","9","0.35","trustrating_stim/white_00223_940128_fb_edt.bmp","2","69","11"
"","","","decisionFB","6400f1783058946c2b4780cd","bdp_trlrn","Wed Mar 15 2023 14:20:32 GMT-0500 (Central Daylight Time)","705886","Untrustworthy,Trustworthy","","html-keyboard-response","169","339936","0.0-19.0-2.10","","null","","<div class='trialDiv'><img src='trustrating_stim/white_00223_940128_fb_edt.bmp'><br><font class='baseline'><strong>Ryan</strong><p>Choose number of points to send.</font><div class='respPicDiv'><img src='img/responseButtonOffersNo0L3.png' class='respPic'></div></div>","null","4","Ryan","0","Kept","0.35,0.65","9","0.35","trustrating_stim/white_00223_940128_fb_edt.bmp","2","66","11"
"","","","feedback","6400f1783058946c2b4780cd","bdp_trlrn","Wed Mar 15 2023 14:20:32 GMT-0500 (Central Daylight Time)","705886","Untrustworthy,Trustworthy","","html-keyboard-response","170","340942","0.0-19.0-3.10","","null","","<div class='trialDiv'><img src='trustrating_stim/white_00223_940128_fb_edt.bmp'><br><font class='baseline'><strong>Ryan</strong><p>Received: <strong>12</strong></font> &nbsp; &nbsp; &nbsp; &nbsp; &nbsp; &nbsp;<font class='negOutcome'>Shared back: <strong>0</strong></font></font><div class='respPicDiv'><img src='img/responseButtonOffersNo0_wht.png' class='respPic'></div></div>","null","4","Ryan","0","Kept","0.35,0.65","9","0.35","trustrating_stim/white_00223_940128_fb_edt.bmp","2","66","11"
"","","","decision","6400f1783058946c2b4780cd","bdp_trlrn","Wed Mar 15 2023 14:20:32 GMT-0500 (Central Daylight Time)","705886","Untrustworthy,Trustworthy","","html-keyboard-response","171","342906","0.0-19.0-1.11","","1963","","<div class='trialDiv'><img src='trustrating_stim/white_mw048.bmp'><br><font class='baseline'><strong>Evan</strong><p>Choose number of points to send.</font><div class='respPicDiv'><img src='img/responseButtonOffersNo0L.png' class='respPic'></div></div>","4","4","Evan","7","Kept","0.2,0.65","14","0.2","trustrating_stim/white_mw048.bmp","5","71","12"
"","","","decisionFB","6400f1783058946c2b4780cd","bdp_trlrn","Wed Mar 15 2023 14:20:32 GMT-0500 (Central Daylight Time)","705886","Untrustworthy,Trustworthy","","html-keyboard-response","172","343156","0.0-19.0-2.11","","null","","<div class='trialDiv'><img src='trustrating_stim/white_mw048.bmp'><br><font class='baseline'><strong>Evan</strong><p>Choose number of points to send.</font><div class='respPicDiv'><img src='img/responseButtonOffersNo0L4.png' class='respPic'></div></div>","null","4","Evan","7","Kept","0.2,0.65","14","0.2","trustrating_stim/white_mw048.bmp","5","67","12"
"","","","feedback","6400f1783058946c2b4780cd","bdp_trlrn","Wed Mar 15 2023 14:20:32 GMT-0500 (Central Daylight Time)","705886","Untrustworthy,Trustworthy","","html-keyboard-response","173","344167","0.0-19.0-3.11","","null","","<div class='trialDiv'><img src='trustrating_stim/white_mw048.bmp'><br><font class='baseline'><strong>Evan</strong><p>Received: <strong>16</strong></font> &nbsp; &nbsp; &nbsp; &nbsp; &nbsp; &nbsp;<font class='negOutcome'>Shared back: <strong>0</strong></font></font><div class='respPicDiv'><img src='img/responseButtonOffersNo0_wht.png' class='respPic'></div></div>","null","4","Evan","7","Kept","0.2,0.65","14","0.2","trustrating_stim/white_mw048.bmp","5","67","12"
"","","","decision","6400f1783058946c2b4780cd","bdp_trlrn","Wed Mar 15 2023 14:20:32 GMT-0500 (Central Daylight Time)","705886","Untrustworthy,Trustworthy","","html-keyboard-response","174","346956","0.0-19.0-1.12","","2788","","<div class='trialDiv'><img src='trustrating_stim/white_00223_940128_fb_edt.bmp'><br><font class='baseline'><strong>Ryan</strong><p>Choose number of points to send.</font><div class='respPicDiv'><img src='img/responseButtonOffersNo0L.png' class='respPic'></div></div>","1","5","Ryan","0","Shared","0.35,0.65","9","0.35","trustrating_stim/white_00223_940128_fb_edt.bmp","2","72","13"
"","","","decisionFB","6400f1783058946c2b4780cd","bdp_trlrn","Wed Mar 15 2023 14:20:32 GMT-0500 (Central Daylight Time)","705886","Untrustworthy,Trustworthy","","html-keyboard-response","175","347219","0.0-19.0-2.12","","null","","<div class='trialDiv'><img src='trustrating_stim/white_00223_940128_fb_edt.bmp'><br><font class='baseline'><strong>Ryan</strong><p>Choose number of points to send.</font><div class='respPicDiv'><img src='img/responseButtonOffersNo0L1.png' class='respPic'></div></div>","null","5","Ryan","0","Shared","0.35,0.65","9","0.35","trustrating_stim/white_00223_940128_fb_edt.bmp","2","71","13"
"","","","feedback","6400f1783058946c2b4780cd","bdp_trlrn","Wed Mar 15 2023 14:20:32 GMT-0500 (Central Daylight Time)","705886","Untrustworthy,Trustworthy","","html-keyboard-response","176","348225","0.0-19.0-3.12","","null","","<div class='trialDiv'><img src='trustrating_stim/white_00223_940128_fb_edt.bmp'><br><font class='baseline'><strong>Ryan</strong><p>Received: <strong>4</strong></font> &nbsp; &nbsp; &nbsp; &nbsp; &nbsp; &nbsp;<font class='posOutcome'>Shared back: <strong>2</strong></font></font><div class='respPicDiv'><img src='img/responseButtonOffersNo0_wht.png' class='respPic'></div></div>","null","5","Ryan","0","Shared","0.35,0.65","9","0.35","trustrating_stim/white_00223_940128_fb_edt.bmp","2","73","13"
"","","","decision","6400f1783058946c2b4780cd","bdp_trlrn","Wed Mar 15 2023 14:20:32 GMT-0500 (Central Daylight Time)","705886","Untrustworthy,Trustworthy","","html-keyboard-response","177","349343","0.0-19.0-1.13","","1118","","<div class='trialDiv'><img src='trustrating_stim/white_00898_960530_fa_edt.bmp'><br><font class='baseline'><strong>Benjamin</strong><p>Choose number of points to send.</font><div class='respPicDiv'><img src='img/responseButtonOffersNo0L.png' class='respPic'></div></div>","5","5","Benjamin","11","Shared","0.8,0.35","12","0.8","trustrating_stim/white_00898_960530_fa_edt.bmp","8","78","14"
"","","","decisionFB","6400f1783058946c2b4780cd","bdp_trlrn","Wed Mar 15 2023 14:20:32 GMT-0500 (Central Daylight Time)","705886","Untrustworthy,Trustworthy","","html-keyboard-response","178","349596","0.0-19.0-2.13","","null","","<div class='trialDiv'><img src='trustrating_stim/white_00898_960530_fa_edt.bmp'><br><font class='baseline'><strong>Benjamin</strong><p>Choose number of points to send.</font><div class='respPicDiv'><img src='img/responseButtonOffersNo0L5.png' class='respPic'></div></div>","null","5","Benjamin","11","Shared","0.8,0.35","12","0.8","trustrating_stim/white_00898_960530_fa_edt.bmp","8","73","14"
"","","","feedback","6400f1783058946c2b4780cd","bdp_trlrn","Wed Mar 15 2023 14:20:32 GMT-0500 (Central Daylight Time)","705886","Untrustworthy,Trustworthy","","html-keyboard-response","179","350606","0.0-19.0-3.13","","null","","<div class='trialDiv'><img src='trustrating_stim/white_00898_960530_fa_edt.bmp'><br><font class='baseline'><strong>Benjamin</strong><p>Received: <strong>20</strong></font> &nbsp; &nbsp; &nbsp; &nbsp; &nbsp; &nbsp;<font class='posOutcome'>Shared back: <strong>10</strong></font></font><div class='respPicDiv'><img src='img/responseButtonOffersNo0_wht.png' class='respPic'></div></div>","null","5","Benjamin","11","Shared","0.8,0.35","12","0.8","trustrating_stim/white_00898_960530_fa_edt.bmp","8","83","14"
"","","","decision","6400f1783058946c2b4780cd","bdp_trlrn","Wed Mar 15 2023 14:20:32 GMT-0500 (Central Daylight Time)","705886","Untrustworthy,Trustworthy","","html-keyboard-response","180","356317","0.0-19.0-1.14","","5709","","<div class='trialDiv'><img src='trustrating_stim/white_mw048.bmp'><br><font class='baseline'><strong>Evan</strong><p>Choose number of points to send.</font><div class='respPicDiv'><img src='img/responseButtonOffersNo0L.png' class='respPic'></div></div>","5","5","Evan","7","Kept","0.2,0.65","14","0.2","trustrating_stim/white_mw048.bmp","5","88","15"
"","","","decisionFB","6400f1783058946c2b4780cd","bdp_trlrn","Wed Mar 15 2023 14:20:32 GMT-0500 (Central Daylight Time)","705886","Untrustworthy,Trustworthy","","html-keyboard-response","181","356572","0.0-19.0-2.14","","null","","<div class='trialDiv'><img src='trustrating_stim/white_mw048.bmp'><br><font class='baseline'><strong>Evan</strong><p>Choose number of points to send.</font><div class='respPicDiv'><img src='img/responseButtonOffersNo0L5.png' class='respPic'></div></div>","null","5","Evan","7","Kept","0.2,0.65","14","0.2","trustrating_stim/white_mw048.bmp","5","83","15"
"","","","feedback","6400f1783058946c2b4780cd","bdp_trlrn","Wed Mar 15 2023 14:20:32 GMT-0500 (Central Daylight Time)","705886","Untrustworthy,Trustworthy","","html-keyboard-response","182","357582","0.0-19.0-3.14","","null","","<div class='trialDiv'><img src='trustrating_stim/white_mw048.bmp'><br><font class='baseline'><strong>Evan</strong><p>Received: <strong>20</strong></font> &nbsp; &nbsp; &nbsp; &nbsp; &nbsp; &nbsp;<font class='negOutcome'>Shared back: <strong>0</strong></font></font><div class='respPicDiv'><img src='img/responseButtonOffersNo0_wht.png' class='respPic'></div></div>","null","5","Evan","7","Kept","0.2,0.65","14","0.2","trustrating_stim/white_mw048.bmp","5","83","15"
"","","","decision","6400f1783058946c2b4780cd","bdp_trlrn","Wed Mar 15 2023 14:20:32 GMT-0500 (Central Daylight Time)","705886","Untrustworthy,Trustworthy","","html-keyboard-response","183","360255","0.0-19.0-1.15","","2673","","<div class='trialDiv'><img src='trustrating_stim/white_00223_940128_fb_edt.bmp'><br><font class='baseline'><strong>Ryan</strong><p>Choose number of points to send.</font><div class='respPicDiv'><img src='img/responseButtonOffersNo0L.png' class='respPic'></div></div>","2","6","Ryan","0","Kept","0.35,0.65","9","0.35","trustrating_stim/white_00223_940128_fb_edt.bmp","2","88","16"
"","","","decisionFB","6400f1783058946c2b4780cd","bdp_trlrn","Wed Mar 15 2023 14:20:32 GMT-0500 (Central Daylight Time)","705886","Untrustworthy,Trustworthy","","html-keyboard-response","184","360518","0.0-19.0-2.15","","null","","<div class='trialDiv'><img src='trustrating_stim/white_00223_940128_fb_edt.bmp'><br><font class='baseline'><strong>Ryan</strong><p>Choose number of points to send.</font><div class='respPicDiv'><img src='img/responseButtonOffersNo0L2.png' class='respPic'></div></div>","null","6","Ryan","0","Kept","0.35,0.65","9","0.35","trustrating_stim/white_00223_940128_fb_edt.bmp","2","86","16"
"","","","feedback","6400f1783058946c2b4780cd","bdp_trlrn","Wed Mar 15 2023 14:20:32 GMT-0500 (Central Daylight Time)","705886","Untrustworthy,Trustworthy","","html-keyboard-response","185","361527","0.0-19.0-3.15","","null","","<div class='trialDiv'><img src='trustrating_stim/white_00223_940128_fb_edt.bmp'><br><font class='baseline'><strong>Ryan</strong><p>Received: <strong>8</strong></font> &nbsp; &nbsp; &nbsp; &nbsp; &nbsp; &nbsp;<font class='negOutcome'>Shared back: <strong>0</strong></font></font><div class='respPicDiv'><img src='img/responseButtonOffersNo0_wht.png' class='respPic'></div></div>","null","6","Ryan","0","Kept","0.35,0.65","9","0.35","trustrating_stim/white_00223_940128_fb_edt.bmp","2","86","16"
"","","","decision","6400f1783058946c2b4780cd","bdp_trlrn","Wed Mar 15 2023 14:20:32 GMT-0500 (Central Daylight Time)","705886","Untrustworthy,Trustworthy","","html-keyboard-response","186","362868","0.0-19.0-1.16","","1341","","<div class='trialDiv'><img src='trustrating_stim/white_mw048.bmp'><br><font class='baseline'><strong>Evan</strong><p>Choose number of points to send.</font><div class='respPicDiv'><img src='img/responseButtonOffersNo0L.png' class='respPic'></div></div>","2","6","Evan","7","Kept","0.2,0.65","14","0.2","trustrating_stim/white_mw048.bmp","5","91","17"
"","","","decisionFB","6400f1783058946c2b4780cd","bdp_trlrn","Wed Mar 15 2023 14:20:32 GMT-0500 (Central Daylight Time)","705886","Untrustworthy,Trustworthy","","html-keyboard-response","187","363131","0.0-19.0-2.16","","null","","<div class='trialDiv'><img src='trustrating_stim/white_mw048.bmp'><br><font class='baseline'><strong>Evan</strong><p>Choose number of points to send.</font><div class='respPicDiv'><img src='img/responseButtonOffersNo0L2.png' class='respPic'></div></div>","null","6","Evan","7","Kept","0.2,0.65","14","0.2","trustrating_stim/white_mw048.bmp","5","89","17"
"","","","feedback","6400f1783058946c2b4780cd","bdp_trlrn","Wed Mar 15 2023 14:20:32 GMT-0500 (Central Daylight Time)","705886","Untrustworthy,Trustworthy","","html-keyboard-response","188","364141","0.0-19.0-3.16","","null","","<div class='trialDiv'><img src='trustrating_stim/white_mw048.bmp'><br><font class='baseline'><strong>Evan</strong><p>Received: <strong>8</strong></font> &nbsp; &nbsp; &nbsp; &nbsp; &nbsp; &nbsp;<font class='negOutcome'>Shared back: <strong>0</strong></font></font><div class='respPicDiv'><img src='img/responseButtonOffersNo0_wht.png' class='respPic'></div></div>","null","6","Evan","7","Kept","0.2,0.65","14","0.2","trustrating_stim/white_mw048.bmp","5","89","17"
"","","","decision","6400f1783058946c2b4780cd","bdp_trlrn","Wed Mar 15 2023 14:20:32 GMT-0500 (Central Daylight Time)","705886","Untrustworthy,Trustworthy","","html-keyboard-response","189","365042","0.0-19.0-1.17","","901","","<div class='trialDiv'><img src='trustrating_stim/white_00898_960530_fa_edt.bmp'><br><font class='baseline'><strong>Benjamin</strong><p>Choose number of points to send.</font><div class='respPicDiv'><img src='img/responseButtonOffersNo0L.png' class='respPic'></div></div>","5","6","Benjamin","11","Shared","0.8,0.35","12","0.8","trustrating_stim/white_00898_960530_fa_edt.bmp","8","94","18"
"","","","decisionFB","6400f1783058946c2b4780cd","bdp_trlrn","Wed Mar 15 2023 14:20:32 GMT-0500 (Central Daylight Time)","705886","Untrustworthy,Trustworthy","","html-keyboard-response","190","365301","0.0-19.0-2.17","","null","","<div class='trialDiv'><img src='trustrating_stim/white_00898_960530_fa_edt.bmp'><br><font class='baseline'><strong>Benjamin</strong><p>Choose number of points to send.</font><div class='respPicDiv'><img src='img/responseButtonOffersNo0L5.png' class='respPic'></div></div>","null","6","Benjamin","11","Shared","0.8,0.35","12","0.8","trustrating_stim/white_00898_960530_fa_edt.bmp","8","89","18"
"","","","feedback","6400f1783058946c2b4780cd","bdp_trlrn","Wed Mar 15 2023 14:20:32 GMT-0500 (Central Daylight Time)","705886","Untrustworthy,Trustworthy","","html-keyboard-response","191","366316","0.0-19.0-3.17","","null","","<div class='trialDiv'><img src='trustrating_stim/white_00898_960530_fa_edt.bmp'><br><font class='baseline'><strong>Benjamin</strong><p>Received: <strong>20</strong></font> &nbsp; &nbsp; &nbsp; &nbsp; &nbsp; &nbsp;<font class='posOutcome'>Shared back: <strong>10</strong></font></font><div class='respPicDiv'><img src='img/responseButtonOffersNo0_wht.png' class='respPic'></div></div>","null","6","Benjamin","11","Shared","0.8,0.35","12","0.8","trustrating_stim/white_00898_960530_fa_edt.bmp","8","99","18"
"","","","decision","6400f1783058946c2b4780cd","bdp_trlrn","Wed Mar 15 2023 14:20:32 GMT-0500 (Central Daylight Time)","705886","Untrustworthy,Trustworthy","","html-keyboard-response","192","368006","0.0-19.0-1.18","","1689","","<div class='trialDiv'><img src='trustrating_stim/white_00223_940128_fb_edt.bmp'><br><font class='baseline'><strong>Ryan</strong><p>Choose number of points to send.</font><div class='respPicDiv'><img src='img/responseButtonOffersNo0L.png' class='respPic'></div></div>","1","7","Ryan","0","Shared","0.35,0.65","9","0.35","trustrating_stim/white_00223_940128_fb_edt.bmp","2","104","19"
"","","","decisionFB","6400f1783058946c2b4780cd","bdp_trlrn","Wed Mar 15 2023 14:20:32 GMT-0500 (Central Daylight Time)","705886","Untrustworthy,Trustworthy","","html-keyboard-response","193","368257","0.0-19.0-2.18","","null","","<div class='trialDiv'><img src='trustrating_stim/white_00223_940128_fb_edt.bmp'><br><font class='baseline'><strong>Ryan</strong><p>Choose number of points to send.</font><div class='respPicDiv'><img src='img/responseButtonOffersNo0L1.png' class='respPic'></div></div>","null","7","Ryan","0","Shared","0.35,0.65","9","0.35","trustrating_stim/white_00223_940128_fb_edt.bmp","2","103","19"
"","","","feedback","6400f1783058946c2b4780cd","bdp_trlrn","Wed Mar 15 2023 14:20:32 GMT-0500 (Central Daylight Time)","705886","Untrustworthy,Trustworthy","","html-keyboard-response","194","369263","0.0-19.0-3.18","","null","","<div class='trialDiv'><img src='trustrating_stim/white_00223_940128_fb_edt.bmp'><br><font class='baseline'><strong>Ryan</strong><p>Received: <strong>4</strong></font> &nbsp; &nbsp; &nbsp; &nbsp; &nbsp; &nbsp;<font class='posOutcome'>Shared back: <strong>2</strong></font></font><div class='respPicDiv'><img src='img/responseButtonOffersNo0_wht.png' class='respPic'></div></div>","null","7","Ryan","0","Shared","0.35,0.65","9","0.35","trustrating_stim/white_00223_940128_fb_edt.bmp","2","105","19"
"","","","decision","6400f1783058946c2b4780cd","bdp_trlrn","Wed Mar 15 2023 14:20:32 GMT-0500 (Central Daylight Time)","705886","Untrustworthy,Trustworthy","","html-keyboard-response","195","370293","0.0-19.0-1.19","","1030","","<div class='trialDiv'><img src='trustrating_stim/white_mw048.bmp'><br><font class='baseline'><strong>Evan</strong><p>Choose number of points to send.</font><div class='respPicDiv'><img src='img/responseButtonOffersNo0L.png' class='respPic'></div></div>","3","7","Evan","7","Kept","0.2,0.65","14","0.2","trustrating_stim/white_mw048.bmp","5","110","20"
"","","","decisionFB","6400f1783058946c2b4780cd","bdp_trlrn","Wed Mar 15 2023 14:20:32 GMT-0500 (Central Daylight Time)","705886","Untrustworthy,Trustworthy","","html-keyboard-response","196","370556","0.0-19.0-2.19","","null","","<div class='trialDiv'><img src='trustrating_stim/white_mw048.bmp'><br><font class='baseline'><strong>Evan</strong><p>Choose number of points to send.</font><div class='respPicDiv'><img src='img/responseButtonOffersNo0L3.png' class='respPic'></div></div>","null","7","Evan","7","Kept","0.2,0.65","14","0.2","trustrating_stim/white_mw048.bmp","5","107","20"
"","","","feedback","6400f1783058946c2b4780cd","bdp_trlrn","Wed Mar 15 2023 14:20:32 GMT-0500 (Central Daylight Time)","705886","Untrustworthy,Trustworthy","","html-keyboard-response","197","371565","0.0-19.0-3.19","","null","","<div class='trialDiv'><img src='trustrating_stim/white_mw048.bmp'><br><font class='baseline'><strong>Evan</strong><p>Received: <strong>12</strong></font> &nbsp; &nbsp; &nbsp; &nbsp; &nbsp; &nbsp;<font class='negOutcome'>Shared back: <strong>0</strong></font></font><div class='respPicDiv'><img src='img/responseButtonOffersNo0_wht.png' class='respPic'></div></div>","null","7","Evan","7","Kept","0.2,0.65","14","0.2","trustrating_stim/white_mw048.bmp","5","107","20"
"","","","decision","6400f1783058946c2b4780cd","bdp_trlrn","Wed Mar 15 2023 14:20:32 GMT-0500 (Central Daylight Time)","705886","Untrustworthy,Trustworthy","","html-keyboard-response","198","373279","0.0-19.0-1.20","","1714","","<div class='trialDiv'><img src='trustrating_stim/white_00898_960530_fa_edt.bmp'><br><font class='baseline'><strong>Benjamin</strong><p>Choose number of points to send.</font><div class='respPicDiv'><img src='img/responseButtonOffersNo0L.png' class='respPic'></div></div>","5","7","Benjamin","11","Shared","0.8,0.35","12","0.8","trustrating_stim/white_00898_960530_fa_edt.bmp","8","112","21"
"","","","decisionFB","6400f1783058946c2b4780cd","bdp_trlrn","Wed Mar 15 2023 14:20:32 GMT-0500 (Central Daylight Time)","705886","Untrustworthy,Trustworthy","","html-keyboard-response","199","373545","0.0-19.0-2.20","","null","","<div class='trialDiv'><img src='trustrating_stim/white_00898_960530_fa_edt.bmp'><br><font class='baseline'><strong>Benjamin</strong><p>Choose number of points to send.</font><div class='respPicDiv'><img src='img/responseButtonOffersNo0L5.png' class='respPic'></div></div>","null","7","Benjamin","11","Shared","0.8,0.35","12","0.8","trustrating_stim/white_00898_960530_fa_edt.bmp","8","107","21"
"","","","feedback","6400f1783058946c2b4780cd","bdp_trlrn","Wed Mar 15 2023 14:20:32 GMT-0500 (Central Daylight Time)","705886","Untrustworthy,Trustworthy","","html-keyboard-response","200","374556","0.0-19.0-3.20","","null","","<div class='trialDiv'><img src='trustrating_stim/white_00898_960530_fa_edt.bmp'><br><font class='baseline'><strong>Benjamin</strong><p>Received: <strong>20</strong></font> &nbsp; &nbsp; &nbsp; &nbsp; &nbsp; &nbsp;<font class='posOutcome'>Shared back: <strong>10</strong></font></font><div class='respPicDiv'><img src='img/responseButtonOffersNo0_wht.png' class='respPic'></div></div>","null","7","Benjamin","11","Shared","0.8,0.35","12","0.8","trustrating_stim/white_00898_960530_fa_edt.bmp","8","117","21"
"","","","decision","6400f1783058946c2b4780cd","bdp_trlrn","Wed Mar 15 2023 14:20:32 GMT-0500 (Central Daylight Time)","705886","Untrustworthy,Trustworthy","","html-keyboard-response","201","375655","0.0-19.0-1.21","","1099","","<div class='trialDiv'><img src='trustrating_stim/white_00223_940128_fb_edt.bmp'><br><font class='baseline'><strong>Ryan</strong><p>Choose number of points to send.</font><div class='respPicDiv'><img src='img/responseButtonOffersNo0L.png' class='respPic'></div></div>","1","8","Ryan","0","Kept","0.35,0.65","9","0.35","trustrating_stim/white_00223_940128_fb_edt.bmp","2","122","22"
"","","","decisionFB","6400f1783058946c2b4780cd","bdp_trlrn","Wed Mar 15 2023 14:20:32 GMT-0500 (Central Daylight Time)","705886","Untrustworthy,Trustworthy","","html-keyboard-response","202","375916","0.0-19.0-2.21","","null","","<div class='trialDiv'><img src='trustrating_stim/white_00223_940128_fb_edt.bmp'><br><font class='baseline'><strong>Ryan</strong><p>Choose number of points to send.</font><div class='respPicDiv'><img src='img/responseButtonOffersNo0L1.png' class='respPic'></div></div>","null","8","Ryan","0","Kept","0.35,0.65","9","0.35","trustrating_stim/white_00223_940128_fb_edt.bmp","2","121","22"
"","","","feedback","6400f1783058946c2b4780cd","bdp_trlrn","Wed Mar 15 2023 14:20:32 GMT-0500 (Central Daylight Time)","705886","Untrustworthy,Trustworthy","","html-keyboard-response","203","376926","0.0-19.0-3.21","","null","","<div class='trialDiv'><img src='trustrating_stim/white_00223_940128_fb_edt.bmp'><br><font class='baseline'><strong>Ryan</strong><p>Received: <strong>4</strong></font> &nbsp; &nbsp; &nbsp; &nbsp; &nbsp; &nbsp;<font class='negOutcome'>Shared back: <strong>0</strong></font></font><div class='respPicDiv'><img src='img/responseButtonOffersNo0_wht.png' class='respPic'></div></div>","null","8","Ryan","0","Kept","0.35,0.65","9","0.35","trustrating_stim/white_00223_940128_fb_edt.bmp","2","121","22"
"","","","decision","6400f1783058946c2b4780cd","bdp_trlrn","Wed Mar 15 2023 14:20:32 GMT-0500 (Central Daylight Time)","705886","Untrustworthy,Trustworthy","","html-keyboard-response","204","378129","0.0-19.0-1.22","","1202","","<div class='trialDiv'><img src='trustrating_stim/white_00898_960530_fa_edt.bmp'><br><font class='baseline'><strong>Benjamin</strong><p>Choose number of points to send.</font><div class='respPicDiv'><img src='img/responseButtonOffersNo0L.png' class='respPic'></div></div>","5","8","Benjamin","11","Shared","0.8,0.35","12","0.8","trustrating_stim/white_00898_960530_fa_edt.bmp","8","126","23"
"","","","decisionFB","6400f1783058946c2b4780cd","bdp_trlrn","Wed Mar 15 2023 14:20:32 GMT-0500 (Central Daylight Time)","705886","Untrustworthy,Trustworthy","","html-keyboard-response","205","378391","0.0-19.0-2.22","","null","","<div class='trialDiv'><img src='trustrating_stim/white_00898_960530_fa_edt.bmp'><br><font class='baseline'><strong>Benjamin</strong><p>Choose number of points to send.</font><div class='respPicDiv'><img src='img/responseButtonOffersNo0L5.png' class='respPic'></div></div>","null","8","Benjamin","11","Shared","0.8,0.35","12","0.8","trustrating_stim/white_00898_960530_fa_edt.bmp","8","121","23"
"","","","feedback","6400f1783058946c2b4780cd","bdp_trlrn","Wed Mar 15 2023 14:20:32 GMT-0500 (Central Daylight Time)","705886","Untrustworthy,Trustworthy","","html-keyboard-response","206","379396","0.0-19.0-3.22","","null","","<div class='trialDiv'><img src='trustrating_stim/white_00898_960530_fa_edt.bmp'><br><font class='baseline'><strong>Benjamin</strong><p>Received: <strong>20</strong></font> &nbsp; &nbsp; &nbsp; &nbsp; &nbsp; &nbsp;<font class='posOutcome'>Shared back: <strong>10</strong></font></font><div class='respPicDiv'><img src='img/responseButtonOffersNo0_wht.png' class='respPic'></div></div>","null","8","Benjamin","11","Shared","0.8,0.35","12","0.8","trustrating_stim/white_00898_960530_fa_edt.bmp","8","131","23"
"","","","decision","6400f1783058946c2b4780cd","bdp_trlrn","Wed Mar 15 2023 14:20:32 GMT-0500 (Central Daylight Time)","705886","Untrustworthy,Trustworthy","","html-keyboard-response","207","380579","0.0-19.0-1.23","","1181","","<div class='trialDiv'><img src='trustrating_stim/white_mw048.bmp'><br><font class='baseline'><strong>Evan</strong><p>Choose number of points to send.</font><div class='respPicDiv'><img src='img/responseButtonOffersNo0L.png' class='respPic'></div></div>","1","8","Evan","7","Kept","0.2,0.65","14","0.2","trustrating_stim/white_mw048.bmp","5","136","24"
"","","","decisionFB","6400f1783058946c2b4780cd","bdp_trlrn","Wed Mar 15 2023 14:20:32 GMT-0500 (Central Daylight Time)","705886","Untrustworthy,Trustworthy","","html-keyboard-response","208","380840","0.0-19.0-2.23","","null","","<div class='trialDiv'><img src='trustrating_stim/white_mw048.bmp'><br><font class='baseline'><strong>Evan</strong><p>Choose number of points to send.</font><div class='respPicDiv'><img src='img/responseButtonOffersNo0L1.png' class='respPic'></div></div>","null","8","Evan","7","Kept","0.2,0.65","14","0.2","trustrating_stim/white_mw048.bmp","5","135","24"
"","","","feedback","6400f1783058946c2b4780cd","bdp_trlrn","Wed Mar 15 2023 14:20:32 GMT-0500 (Central Daylight Time)","705886","Untrustworthy,Trustworthy","","html-keyboard-response","209","381849","0.0-19.0-3.23","","null","","<div class='trialDiv'><img src='trustrating_stim/white_mw048.bmp'><br><font class='baseline'><strong>Evan</strong><p>Received: <strong>4</strong></font> &nbsp; &nbsp; &nbsp; &nbsp; &nbsp; &nbsp;<font class='negOutcome'>Shared back: <strong>0</strong></font></font><div class='respPicDiv'><img src='img/responseButtonOffersNo0_wht.png' class='respPic'></div></div>","null","8","Evan","7","Kept","0.2,0.65","14","0.2","trustrating_stim/white_mw048.bmp","5","135","24"
"","","","decision","6400f1783058946c2b4780cd","bdp_trlrn","Wed Mar 15 2023 14:20:32 GMT-0500 (Central Daylight Time)","705886","Untrustworthy,Trustworthy","","html-keyboard-response","210","382705","0.0-19.0-1.24","","855","","<div class='trialDiv'><img src='trustrating_stim/white_00898_960530_fa_edt.bmp'><br><font class='baseline'><strong>Benjamin</strong><p>Choose number of points to send.</font><div class='respPicDiv'><img src='img/responseButtonOffersNo0L.png' class='respPic'></div></div>","5","9","Benjamin","11","Shared","0.8,0.35","12","0.8","trustrating_stim/white_00898_960530_fa_edt.bmp","8","140","25"
"","","","decisionFB","6400f1783058946c2b4780cd","bdp_trlrn","Wed Mar 15 2023 14:20:32 GMT-0500 (Central Daylight Time)","705886","Untrustworthy,Trustworthy","","html-keyboard-response","211","382957","0.0-19.0-2.24","","null","","<div class='trialDiv'><img src='trustrating_stim/white_00898_960530_fa_edt.bmp'><br><font class='baseline'><strong>Benjamin</strong><p>Choose number of points to send.</font><div class='respPicDiv'><img src='img/responseButtonOffersNo0L5.png' class='respPic'></div></div>","null","9","Benjamin","11","Shared","0.8,0.35","12","0.8","trustrating_stim/white_00898_960530_fa_edt.bmp","8","135","25"
"","","","feedback","6400f1783058946c2b4780cd","bdp_trlrn","Wed Mar 15 2023 14:20:32 GMT-0500 (Central Daylight Time)","705886","Untrustworthy,Trustworthy","","html-keyboard-response","212","383966","0.0-19.0-3.24","","null","","<div class='trialDiv'><img src='trustrating_stim/white_00898_960530_fa_edt.bmp'><br><font class='baseline'><strong>Benjamin</strong><p>Received: <strong>20</strong></font> &nbsp; &nbsp; &nbsp; &nbsp; &nbsp; &nbsp;<font class='posOutcome'>Shared back: <strong>10</strong></font></font><div class='respPicDiv'><img src='img/responseButtonOffersNo0_wht.png' class='respPic'></div></div>","null","9","Benjamin","11","Shared","0.8,0.35","12","0.8","trustrating_stim/white_00898_960530_fa_edt.bmp","8","145","25"
"","","","decision","6400f1783058946c2b4780cd","bdp_trlrn","Wed Mar 15 2023 14:20:32 GMT-0500 (Central Daylight Time)","705886","Untrustworthy,Trustworthy","","html-keyboard-response","213","386305","0.0-19.0-1.25","","2339","","<div class='trialDiv'><img src='trustrating_stim/white_00223_940128_fb_edt.bmp'><br><font class='baseline'><strong>Ryan</strong><p>Choose number of points to send.</font><div class='respPicDiv'><img src='img/responseButtonOffersNo0L.png' class='respPic'></div></div>","1","9","Ryan","0","Shared","0.35,0.65","9","0.35","trustrating_stim/white_00223_940128_fb_edt.bmp","2","150","26"
"","","","decisionFB","6400f1783058946c2b4780cd","bdp_trlrn","Wed Mar 15 2023 14:20:32 GMT-0500 (Central Daylight Time)","705886","Untrustworthy,Trustworthy","","html-keyboard-response","214","386557","0.0-19.0-2.25","","null","","<div class='trialDiv'><img src='trustrating_stim/white_00223_940128_fb_edt.bmp'><br><font class='baseline'><strong>Ryan</strong><p>Choose number of points to send.</font><div class='respPicDiv'><img src='img/responseButtonOffersNo0L1.png' class='respPic'></div></div>","null","9","Ryan","0","Shared","0.35,0.65","9","0.35","trustrating_stim/white_00223_940128_fb_edt.bmp","2","149","26"
"","","","feedback","6400f1783058946c2b4780cd","bdp_trlrn","Wed Mar 15 2023 14:20:32 GMT-0500 (Central Daylight Time)","705886","Untrustworthy,Trustworthy","","html-keyboard-response","215","387573","0.0-19.0-3.25","","null","","<div class='trialDiv'><img src='trustrating_stim/white_00223_940128_fb_edt.bmp'><br><font class='baseline'><strong>Ryan</strong><p>Received: <strong>4</strong></font> &nbsp; &nbsp; &nbsp; &nbsp; &nbsp; &nbsp;<font class='posOutcome'>Shared back: <strong>2</strong></font></font><div class='respPicDiv'><img src='img/responseButtonOffersNo0_wht.png' class='respPic'></div></div>","null","9","Ryan","0","Shared","0.35,0.65","9","0.35","trustrating_stim/white_00223_940128_fb_edt.bmp","2","151","26"
"","","","decision","6400f1783058946c2b4780cd","bdp_trlrn","Wed Mar 15 2023 14:20:32 GMT-0500 (Central Daylight Time)","705886","Untrustworthy,Trustworthy","","html-keyboard-response","216","388917","0.0-19.0-1.26","","1344","","<div class='trialDiv'><img src='trustrating_stim/white_mw048.bmp'><br><font class='baseline'><strong>Evan</strong><p>Choose number of points to send.</font><div class='respPicDiv'><img src='img/responseButtonOffersNo0L.png' class='respPic'></div></div>","2","9","Evan","7","Kept","0.2,0.65","14","0.2","trustrating_stim/white_mw048.bmp","5","156","27"
"","","","decisionFB","6400f1783058946c2b4780cd","bdp_trlrn","Wed Mar 15 2023 14:20:32 GMT-0500 (Central Daylight Time)","705886","Untrustworthy,Trustworthy","","html-keyboard-response","217","389168","0.0-19.0-2.26","","null","","<div class='trialDiv'><img src='trustrating_stim/white_mw048.bmp'><br><font class='baseline'><strong>Evan</strong><p>Choose number of points to send.</font><div class='respPicDiv'><img src='img/responseButtonOffersNo0L2.png' class='respPic'></div></div>","null","9","Evan","7","Kept","0.2,0.65","14","0.2","trustrating_stim/white_mw048.bmp","5","154","27"
"","","","feedback","6400f1783058946c2b4780cd","bdp_trlrn","Wed Mar 15 2023 14:20:32 GMT-0500 (Central Daylight Time)","705886","Untrustworthy,Trustworthy","","html-keyboard-response","218","390181","0.0-19.0-3.26","","null","","<div class='trialDiv'><img src='trustrating_stim/white_mw048.bmp'><br><font class='baseline'><strong>Evan</strong><p>Received: <strong>8</strong></font> &nbsp; &nbsp; &nbsp; &nbsp; &nbsp; &nbsp;<font class='negOutcome'>Shared back: <strong>0</strong></font></font><div class='respPicDiv'><img src='img/responseButtonOffersNo0_wht.png' class='respPic'></div></div>","null","9","Evan","7","Kept","0.2,0.65","14","0.2","trustrating_stim/white_mw048.bmp","5","154","27"
