"event","trial","time","trialtype","subject_id","task","startTime","totalTime","labels","trial_type","trial_index","time_elapsed","internal_node_id","view_history","rt","success","stimulus","key_press","aground","name","faceID","outcome","agenttype","agentswpt","agentcurrpshare","face","avgRating","point_total","round"
"focus","0","0","focusevent","631b428359f449b8159625f8","bdp_trlrn","Wed Mar 15 2023 15:30:13 GMT-0400 (Eastern Daylight Time)","782763","Untrustworthy,Trustworthy","","","","","","","","","","","","","","","","","","","",""
"","","","","631b428359f449b8159625f8","bdp_trlrn","Wed Mar 15 2023 15:30:13 GMT-0400 (Eastern Daylight Time)","782763","Untrustworthy,Trustworthy","pavlovia","0","10","0.0-0.0","","","","","","","","","","","","","","","",""
"","","","","631b428359f449b8159625f8","bdp_trlrn","Wed Mar 15 2023 15:30:13 GMT-0400 (Eastern Daylight Time)","782763","Untrustworthy,Trustworthy","instructions","1","9860","0.0-1.0","[{""page_index"":0,""viewing_time"":9843}]","9844","","","","","","","","","","","","","",""
"fullscreenexit","2","15911","fullscreenexit","631b428359f449b8159625f8","bdp_trlrn","Wed Mar 15 2023 15:30:13 GMT-0400 (Eastern Daylight Time)","782763","Untrustworthy,Trustworthy","","","","","","","","","","","","","","","","","","","",""
"","","","","631b428359f449b8159625f8","bdp_trlrn","Wed Mar 15 2023 15:30:13 GMT-0400 (Eastern Daylight Time)","782763","Untrustworthy,Trustworthy","fullscreen","2","16897","0.0-2.0","","","true","","","","","","","","","","","","",""
"","","","fullscreenfail","631b428359f449b8159625f8","bdp_trlrn","Wed Mar 15 2023 15:30:13 GMT-0400 (Eastern Daylight Time)","782763","Untrustworthy,Trustworthy","image-keyboard-response","3","25779","0.0-3.0-0.0","","8873","","","32","","","","","","","","","","",""
"","","","","631b428359f449b8159625f8","bdp_trlrn","Wed Mar 15 2023 15:30:13 GMT-0400 (Eastern Daylight Time)","782763","Untrustworthy,Trustworthy","instructions","4","48923","0.0-4.0","[{""page_index"":0,""viewing_time"":17075},{""page_index"":1,""viewing_time"":5817}]","22893","","","","","","","","","","","","","",""
"","","","","631b428359f449b8159625f8","bdp_trlrn","Wed Mar 15 2023 15:30:13 GMT-0400 (Eastern Daylight Time)","782763","Untrustworthy,Trustworthy","instructions","5","51464","0.0-5.0","[{""page_index"":0,""viewing_time"":2538}]","2538","","","","","","","","","","","","","",""
"","","","rating","631b428359f449b8159625f8","bdp_trlrn","Wed Mar 15 2023 15:30:13 GMT-0400 (Eastern Daylight Time)","782763","Untrustworthy,Trustworthy","image-keyboard-response","6","55699","0.0-6.0-1.0","","4117","","trustrating_stim/white_00340_940422_fa_edt.bmp","2","","","","","","","","","","",""
"","","","ratingFB","631b428359f449b8159625f8","bdp_trlrn","Wed Mar 15 2023 15:30:13 GMT-0400 (Eastern Daylight Time)","782763","Untrustworthy,Trustworthy","image-keyboard-response","7","55912","0.0-6.0-2.0","","null","","trustrating_stim/white_00340_940422_fa_edt.bmp","null","","","","","","","","","","",""
"","","","rating","631b428359f449b8159625f8","bdp_trlrn","Wed Mar 15 2023 15:30:13 GMT-0400 (Eastern Daylight Time)","782763","Untrustworthy,Trustworthy","image-keyboard-response","8","59038","0.0-6.0-1.1","","3004","","trustrating_stim/white_mw035.bmp","8","","","","","","","","","","",""
"","","","ratingFB","631b428359f449b8159625f8","bdp_trlrn","Wed Mar 15 2023 15:30:13 GMT-0400 (Eastern Daylight Time)","782763","Untrustworthy,Trustworthy","image-keyboard-response","9","59242","0.0-6.0-2.1","","null","","trustrating_stim/white_mw035.bmp","null","","","","","","","","","","",""
"","","","rating","631b428359f449b8159625f8","bdp_trlrn","Wed Mar 15 2023 15:30:13 GMT-0400 (Eastern Daylight Time)","782763","Untrustworthy,Trustworthy","image-keyboard-response","10","62126","0.0-6.0-1.2","","2765","","trustrating_stim/white_mw097.bmp","7","","","","","","","","","","",""
"","","","ratingFB","631b428359f449b8159625f8","bdp_trlrn","Wed Mar 15 2023 15:30:13 GMT-0400 (Eastern Daylight Time)","782763","Untrustworthy,Trustworthy","image-keyboard-response","11","62333","0.0-6.0-2.2","","null","","trustrating_stim/white_mw097.bmp","null","","","","","","","","","","",""
"","","","rating","631b428359f449b8159625f8","bdp_trlrn","Wed Mar 15 2023 15:30:13 GMT-0400 (Eastern Daylight Time)","782763","Untrustworthy,Trustworthy","image-keyboard-response","12","64158","0.0-6.0-1.3","","1703","","trustrating_stim/white_mw084.bmp","8","","","","","","","","","","",""
"","","","ratingFB","631b428359f449b8159625f8","bdp_trlrn","Wed Mar 15 2023 15:30:13 GMT-0400 (Eastern Daylight Time)","782763","Untrustworthy,Trustworthy","image-keyboard-response","13","64376","0.0-6.0-2.3","","null","","trustrating_stim/white_mw084.bmp","null","","","","","","","","","","",""
"","","","rating","631b428359f449b8159625f8","bdp_trlrn","Wed Mar 15 2023 15:30:13 GMT-0400 (Eastern Daylight Time)","782763","Untrustworthy,Trustworthy","image-keyboard-response","14","66633","0.0-6.0-1.4","","2153","","trustrating_stim/white_00761_941201_fb_edt.bmp","9","","","","","","","","","","",""
"","","","ratingFB","631b428359f449b8159625f8","bdp_trlrn","Wed Mar 15 2023 15:30:13 GMT-0400 (Eastern Daylight Time)","782763","Untrustworthy,Trustworthy","image-keyboard-response","15","66849","0.0-6.0-2.4","","null","","trustrating_stim/white_00761_941201_fb_edt.bmp","null","","","","","","","","","","",""
"","","","rating","631b428359f449b8159625f8","bdp_trlrn","Wed Mar 15 2023 15:30:13 GMT-0400 (Eastern Daylight Time)","782763","Untrustworthy,Trustworthy","image-keyboard-response","16","69070","0.0-6.0-1.5","","2099","","trustrating_stim/white_00577_940928_fa_edt.bmp","2","","","","","","","","","","",""
"","","","ratingFB","631b428359f449b8159625f8","bdp_trlrn","Wed Mar 15 2023 15:30:13 GMT-0400 (Eastern Daylight Time)","782763","Untrustworthy,Trustworthy","image-keyboard-response","17","69280","0.0-6.0-2.5","","null","","trustrating_stim/white_00577_940928_fa_edt.bmp","null","","","","","","","","","","",""
"","","","rating","631b428359f449b8159625f8","bdp_trlrn","Wed Mar 15 2023 15:30:13 GMT-0400 (Eastern Daylight Time)","782763","Untrustworthy,Trustworthy","image-keyboard-response","18","71048","0.0-6.0-1.6","","1651","","trustrating_stim/white_00785_941205_fb_edt.bmp","9","","","","","","","","","","",""
"","","","ratingFB","631b428359f449b8159625f8","bdp_trlrn","Wed Mar 15 2023 15:30:13 GMT-0400 (Eastern Daylight Time)","782763","Untrustworthy,Trustworthy","image-keyboard-response","19","71249","0.0-6.0-2.6","","null","","trustrating_stim/white_00785_941205_fb_edt.bmp","null","","","","","","","","","","",""
"","","","rating","631b428359f449b8159625f8","bdp_trlrn","Wed Mar 15 2023 15:30:13 GMT-0400 (Eastern Daylight Time)","782763","Untrustworthy,Trustworthy","image-keyboard-response","20","75390","0.0-6.0-1.7","","4023","","trustrating_stim/white_00898_960530_fa_edt.bmp","8","","","","","","","","","","",""
"","","","ratingFB","631b428359f449b8159625f8","bdp_trlrn","Wed Mar 15 2023 15:30:13 GMT-0400 (Eastern Daylight Time)","782763","Untrustworthy,Trustworthy","image-keyboard-response","21","75603","0.0-6.0-2.7","","null","","trustrating_stim/white_00898_960530_fa_edt.bmp","null","","","","","","","","","","",""
"","","","rating","631b428359f449b8159625f8","bdp_trlrn","Wed Mar 15 2023 15:30:13 GMT-0400 (Eastern Daylight Time)","782763","Untrustworthy,Trustworthy","image-keyboard-response","22","77962","0.0-6.0-1.8","","2244","","trustrating_stim/white_mw053.bmp","9","","","","","","","","","","",""
"","","","ratingFB","631b428359f449b8159625f8","bdp_trlrn","Wed Mar 15 2023 15:30:13 GMT-0400 (Eastern Daylight Time)","782763","Untrustworthy,Trustworthy","image-keyboard-response","23","78174","0.0-6.0-2.8","","null","","trustrating_stim/white_mw053.bmp","null","","","","","","","","","","",""
"","","","rating","631b428359f449b8159625f8","bdp_trlrn","Wed Mar 15 2023 15:30:13 GMT-0400 (Eastern Daylight Time)","782763","Untrustworthy,Trustworthy","image-keyboard-response","24","80838","0.0-6.0-1.9","","2546","","trustrating_stim/white_mw066.bmp","7","","","","","","","","","","",""
"","","","ratingFB","631b428359f449b8159625f8","bdp_trlrn","Wed Mar 15 2023 15:30:13 GMT-0400 (Eastern Daylight Time)","782763","Untrustworthy,Trustworthy","image-keyboard-response","25","81054","0.0-6.0-2.9","","null","","trustrating_stim/white_mw066.bmp","null","","","","","","","","","","",""
"","","","rating","631b428359f449b8159625f8","bdp_trlrn","Wed Mar 15 2023 15:30:13 GMT-0400 (Eastern Daylight Time)","782763","Untrustworthy,Trustworthy","image-keyboard-response","26","84022","0.0-6.0-1.10","","2852","","trustrating_stim/white_00120_931230_fa_edt.bmp","2","","","","","","","","","","",""
"","","","ratingFB","631b428359f449b8159625f8","bdp_trlrn","Wed Mar 15 2023 15:30:13 GMT-0400 (Eastern Daylight Time)","782763","Untrustworthy,Trustworthy","image-keyboard-response","27","84234","0.0-6.0-2.10","","null","","trustrating_stim/white_00120_931230_fa_edt.bmp","null","","","","","","","","","","",""
"","","","rating","631b428359f449b8159625f8","bdp_trlrn","Wed Mar 15 2023 15:30:13 GMT-0400 (Eastern Daylight Time)","782763","Untrustworthy,Trustworthy","image-keyboard-response","28","87646","0.0-6.0-1.11","","3294","","trustrating_stim/white_mw049.bmp","8","","","","","","","","","","",""
"","","","ratingFB","631b428359f449b8159625f8","bdp_trlrn","Wed Mar 15 2023 15:30:13 GMT-0400 (Eastern Daylight Time)","782763","Untrustworthy,Trustworthy","image-keyboard-response","29","87863","0.0-6.0-2.11","","null","","trustrating_stim/white_mw049.bmp","null","","","","","","","","","","",""
"","","","rating","631b428359f449b8159625f8","bdp_trlrn","Wed Mar 15 2023 15:30:13 GMT-0400 (Eastern Daylight Time)","782763","Untrustworthy,Trustworthy","image-keyboard-response","30","90733","0.0-6.0-1.12","","2753","","trustrating_stim/white_00602_940928_fb_edt.bmp","8","","","","","","","","","","",""
"","","","ratingFB","631b428359f449b8159625f8","bdp_trlrn","Wed Mar 15 2023 15:30:13 GMT-0400 (Eastern Daylight Time)","782763","Untrustworthy,Trustworthy","image-keyboard-response","31","90937","0.0-6.0-2.12","","null","","trustrating_stim/white_00602_940928_fb_edt.bmp","null","","","","","","","","","","",""
"","","","rating","631b428359f449b8159625f8","bdp_trlrn","Wed Mar 15 2023 15:30:13 GMT-0400 (Eastern Daylight Time)","782763","Untrustworthy,Trustworthy","image-keyboard-response","32","94400","0.0-6.0-1.13","","3340","","trustrating_stim/white_00109_931230_fa_edt.bmp","8","","","","","","","","","","",""
"","","","ratingFB","631b428359f449b8159625f8","bdp_trlrn","Wed Mar 15 2023 15:30:13 GMT-0400 (Eastern Daylight Time)","782763","Untrustworthy,Trustworthy","image-keyboard-response","33","94602","0.0-6.0-2.13","","null","","trustrating_stim/white_00109_931230_fa_edt.bmp","null","","","","","","","","","","",""
"","","","rating","631b428359f449b8159625f8","bdp_trlrn","Wed Mar 15 2023 15:30:13 GMT-0400 (Eastern Daylight Time)","782763","Untrustworthy,Trustworthy","image-keyboard-response","34","96722","0.0-6.0-1.14","","2002","","trustrating_stim/white_mw046.bmp","2","","","","","","","","","","",""
"","","","ratingFB","631b428359f449b8159625f8","bdp_trlrn","Wed Mar 15 2023 15:30:13 GMT-0400 (Eastern Daylight Time)","782763","Untrustworthy,Trustworthy","image-keyboard-response","35","96925","0.0-6.0-2.14","","null","","trustrating_stim/white_mw046.bmp","null","","","","","","","","","","",""
"","","","rating","631b428359f449b8159625f8","bdp_trlrn","Wed Mar 15 2023 15:30:13 GMT-0400 (Eastern Daylight Time)","782763","Untrustworthy,Trustworthy","image-keyboard-response","36","99933","0.0-6.0-1.15","","2891","","trustrating_stim/white_mw056.bmp","2","","","","","","","","","","",""
"","","","ratingFB","631b428359f449b8159625f8","bdp_trlrn","Wed Mar 15 2023 15:30:13 GMT-0400 (Eastern Daylight Time)","782763","Untrustworthy,Trustworthy","image-keyboard-response","37","100136","0.0-6.0-2.15","","null","","trustrating_stim/white_mw056.bmp","null","","","","","","","","","","",""
"","","","rating","631b428359f449b8159625f8","bdp_trlrn","Wed Mar 15 2023 15:30:13 GMT-0400 (Eastern Daylight Time)","782763","Untrustworthy,Trustworthy","image-keyboard-response","38","103771","0.0-6.0-1.16","","3515","","trustrating_stim/white_mw099.bmp","4","","","","","","","","","","",""
"","","","ratingFB","631b428359f449b8159625f8","bdp_trlrn","Wed Mar 15 2023 15:30:13 GMT-0400 (Eastern Daylight Time)","782763","Untrustworthy,Trustworthy","image-keyboard-response","39","103981","0.0-6.0-2.16","","null","","trustrating_stim/white_mw099.bmp","null","","","","","","","","","","",""
"","","","rating","631b428359f449b8159625f8","bdp_trlrn","Wed Mar 15 2023 15:30:13 GMT-0400 (Eastern Daylight Time)","782763","Untrustworthy,Trustworthy","image-keyboard-response","40","107734","0.0-6.0-1.17","","3630","","trustrating_stim/white_mw063.bmp","1","","","","","","","","","","",""
"","","","ratingFB","631b428359f449b8159625f8","bdp_trlrn","Wed Mar 15 2023 15:30:13 GMT-0400 (Eastern Daylight Time)","782763","Untrustworthy,Trustworthy","image-keyboard-response","41","107948","0.0-6.0-2.17","","null","","trustrating_stim/white_mw063.bmp","null","","","","","","","","","","",""
"","","","rating","631b428359f449b8159625f8","bdp_trlrn","Wed Mar 15 2023 15:30:13 GMT-0400 (Eastern Daylight Time)","782763","Untrustworthy,Trustworthy","image-keyboard-response","42","110123","0.0-6.0-1.18","","2057","","trustrating_stim/white_mw060.bmp","1","","","","","","","","","","",""
"","","","ratingFB","631b428359f449b8159625f8","bdp_trlrn","Wed Mar 15 2023 15:30:13 GMT-0400 (Eastern Daylight Time)","782763","Untrustworthy,Trustworthy","image-keyboard-response","43","110326","0.0-6.0-2.18","","null","","trustrating_stim/white_mw060.bmp","null","","","","","","","","","","",""
"","","","rating","631b428359f449b8159625f8","bdp_trlrn","Wed Mar 15 2023 15:30:13 GMT-0400 (Eastern Daylight Time)","782763","Untrustworthy,Trustworthy","image-keyboard-response","44","113160","0.0-6.0-1.19","","2716","","trustrating_stim/white_00223_940128_fb_edt.bmp","2","","","","","","","","","","",""
"","","","ratingFB","631b428359f449b8159625f8","bdp_trlrn","Wed Mar 15 2023 15:30:13 GMT-0400 (Eastern Daylight Time)","782763","Untrustworthy,Trustworthy","image-keyboard-response","45","113367","0.0-6.0-2.19","","null","","trustrating_stim/white_00223_940128_fb_edt.bmp","null","","","","","","","","","","",""
"","","","rating","631b428359f449b8159625f8","bdp_trlrn","Wed Mar 15 2023 15:30:13 GMT-0400 (Eastern Daylight Time)","782763","Untrustworthy,Trustworthy","image-keyboard-response","46","115635","0.0-6.0-1.20","","2150","","trustrating_stim/white_mw048.bmp","1","","","","","","","","","","",""
"","","","ratingFB","631b428359f449b8159625f8","bdp_trlrn","Wed Mar 15 2023 15:30:13 GMT-0400 (Eastern Daylight Time)","782763","Untrustworthy,Trustworthy","image-keyboard-response","47","115845","0.0-6.0-2.20","","null","","trustrating_stim/white_mw048.bmp","null","","","","","","","","","","",""
"","","","rating","631b428359f449b8159625f8","bdp_trlrn","Wed Mar 15 2023 15:30:13 GMT-0400 (Eastern Daylight Time)","782763","Untrustworthy,Trustworthy","image-keyboard-response","48","117914","0.0-6.0-1.21","","1952","","trustrating_stim/white_00299_940422_fa_edt.bmp","1","","","","","","","","","","",""
"","","","ratingFB","631b428359f449b8159625f8","bdp_trlrn","Wed Mar 15 2023 15:30:13 GMT-0400 (Eastern Daylight Time)","782763","Untrustworthy,Trustworthy","image-keyboard-response","49","118115","0.0-6.0-2.21","","null","","trustrating_stim/white_00299_940422_fa_edt.bmp","null","","","","","","","","","","",""
"","","","rating","631b428359f449b8159625f8","bdp_trlrn","Wed Mar 15 2023 15:30:13 GMT-0400 (Eastern Daylight Time)","782763","Untrustworthy,Trustworthy","image-keyboard-response","50","122925","0.0-6.0-1.22","","4692","","trustrating_stim/white_mw071.bmp","2","","","","","","","","","","",""
"","","","ratingFB","631b428359f449b8159625f8","bdp_trlrn","Wed Mar 15 2023 15:30:13 GMT-0400 (Eastern Daylight Time)","782763","Untrustworthy,Trustworthy","image-keyboard-response","51","123133","0.0-6.0-2.22","","null","","trustrating_stim/white_mw071.bmp","null","","","","","","","","","","",""
"","","","rating","631b428359f449b8159625f8","bdp_trlrn","Wed Mar 15 2023 15:30:13 GMT-0400 (Eastern Daylight Time)","782763","Untrustworthy,Trustworthy","image-keyboard-response","52","124874","0.0-6.0-1.23","","1625","","trustrating_stim/white_00519_940519_fb_edt.bmp","8","","","","","","","","","","",""
"","","","ratingFB","631b428359f449b8159625f8","bdp_trlrn","Wed Mar 15 2023 15:30:13 GMT-0400 (Eastern Daylight Time)","782763","Untrustworthy,Trustworthy","image-keyboard-response","53","125079","0.0-6.0-2.23","","null","","trustrating_stim/white_00519_940519_fb_edt.bmp","null","","","","","","","","","","",""
"","","","rating","631b428359f449b8159625f8","bdp_trlrn","Wed Mar 15 2023 15:30:13 GMT-0400 (Eastern Daylight Time)","782763","Untrustworthy,Trustworthy","image-keyboard-response","54","127581","0.0-6.0-1.24","","2386","","trustrating_stim/white_00807_941205_fb_edt.bmp","7","","","","","","","","","","",""
"","","","ratingFB","631b428359f449b8159625f8","bdp_trlrn","Wed Mar 15 2023 15:30:13 GMT-0400 (Eastern Daylight Time)","782763","Untrustworthy,Trustworthy","image-keyboard-response","55","127787","0.0-6.0-2.24","","null","","trustrating_stim/white_00807_941205_fb_edt.bmp","null","","","","","","","","","","",""
"","","","rating","631b428359f449b8159625f8","bdp_trlrn","Wed Mar 15 2023 15:30:13 GMT-0400 (Eastern Daylight Time)","782763","Untrustworthy,Trustworthy","image-keyboard-response","56","136233","0.0-6.0-1.25","","8328","","trustrating_stim/white_mw089.bmp","6","","","","","","","","","","",""
"","","","ratingFB","631b428359f449b8159625f8","bdp_trlrn","Wed Mar 15 2023 15:30:13 GMT-0400 (Eastern Daylight Time)","782763","Untrustworthy,Trustworthy","image-keyboard-response","57","136436","0.0-6.0-2.25","","null","","trustrating_stim/white_mw089.bmp","null","","","","","","","","","","",""
"","","","rating","631b428359f449b8159625f8","bdp_trlrn","Wed Mar 15 2023 15:30:13 GMT-0400 (Eastern Daylight Time)","782763","Untrustworthy,Trustworthy","image-keyboard-response","58","139725","0.0-6.0-1.26","","3172","","trustrating_stim/white_mw033.bmp","6","","","","","","","","","","",""
"","","","ratingFB","631b428359f449b8159625f8","bdp_trlrn","Wed Mar 15 2023 15:30:13 GMT-0400 (Eastern Daylight Time)","782763","Untrustworthy,Trustworthy","image-keyboard-response","59","139932","0.0-6.0-2.26","","null","","trustrating_stim/white_mw033.bmp","null","","","","","","","","","","",""
"","","","rating","631b428359f449b8159625f8","bdp_trlrn","Wed Mar 15 2023 15:30:13 GMT-0400 (Eastern Daylight Time)","782763","Untrustworthy,Trustworthy","image-keyboard-response","60","142728","0.0-6.0-1.27","","2679","","trustrating_stim/white_00757_941201_fa_edt.bmp","3","","","","","","","","","","",""
"","","","ratingFB","631b428359f449b8159625f8","bdp_trlrn","Wed Mar 15 2023 15:30:13 GMT-0400 (Eastern Daylight Time)","782763","Untrustworthy,Trustworthy","image-keyboard-response","61","142944","0.0-6.0-2.27","","null","","trustrating_stim/white_00757_941201_fa_edt.bmp","null","","","","","","","","","","",""
"","","","rating","631b428359f449b8159625f8","bdp_trlrn","Wed Mar 15 2023 15:30:13 GMT-0400 (Eastern Daylight Time)","782763","Untrustworthy,Trustworthy","image-keyboard-response","62","145261","0.0-6.0-1.28","","2202","","trustrating_stim/white_00659_941121_fa_edt.bmp","2","","","","","","","","","","",""
"","","","ratingFB","631b428359f449b8159625f8","bdp_trlrn","Wed Mar 15 2023 15:30:13 GMT-0400 (Eastern Daylight Time)","782763","Untrustworthy,Trustworthy","image-keyboard-response","63","145469","0.0-6.0-2.28","","null","","trustrating_stim/white_00659_941121_fa_edt.bmp","null","","","","","","","","","","",""
"","","","rating","631b428359f449b8159625f8","bdp_trlrn","Wed Mar 15 2023 15:30:13 GMT-0400 (Eastern Daylight Time)","782763","Untrustworthy,Trustworthy","image-keyboard-response","64","147710","0.0-6.0-1.29","","2124","","trustrating_stim/white_00129_931230_fb_edt.bmp","7","","","","","","","","","","",""
"","","","ratingFB","631b428359f449b8159625f8","bdp_trlrn","Wed Mar 15 2023 15:30:13 GMT-0400 (Eastern Daylight Time)","782763","Untrustworthy,Trustworthy","image-keyboard-response","65","147923","0.0-6.0-2.29","","null","","trustrating_stim/white_00129_931230_fb_edt.bmp","null","","","","","","","","","","",""
"","","","rating","631b428359f449b8159625f8","bdp_trlrn","Wed Mar 15 2023 15:30:13 GMT-0400 (Eastern Daylight Time)","782763","Untrustworthy,Trustworthy","image-keyboard-response","66","151419","0.0-6.0-1.30","","3379","","trustrating_stim/white_mw060.bmp","3","","","","","","","","","","",""
"","","","ratingFB","631b428359f449b8159625f8","bdp_trlrn","Wed Mar 15 2023 15:30:13 GMT-0400 (Eastern Daylight Time)","782763","Untrustworthy,Trustworthy","image-keyboard-response","67","151622","0.0-6.0-2.30","","null","","trustrating_stim/white_mw060.bmp","null","","","","","","","","","","",""
"","","","rating","631b428359f449b8159625f8","bdp_trlrn","Wed Mar 15 2023 15:30:13 GMT-0400 (Eastern Daylight Time)","782763","Untrustworthy,Trustworthy","image-keyboard-response","68","154007","0.0-6.0-1.31","","2268","","trustrating_stim/white_mw046.bmp","9","","","","","","","","","","",""
"","","","ratingFB","631b428359f449b8159625f8","bdp_trlrn","Wed Mar 15 2023 15:30:13 GMT-0400 (Eastern Daylight Time)","782763","Untrustworthy,Trustworthy","image-keyboard-response","69","154216","0.0-6.0-2.31","","null","","trustrating_stim/white_mw046.bmp","null","","","","","","","","","","",""
"","","","rating","631b428359f449b8159625f8","bdp_trlrn","Wed Mar 15 2023 15:30:13 GMT-0400 (Eastern Daylight Time)","782763","Untrustworthy,Trustworthy","image-keyboard-response","70","156961","0.0-6.0-1.32","","2618","","trustrating_stim/white_00519_940519_fb_edt.bmp","7","","","","","","","","","","",""
"","","","ratingFB","631b428359f449b8159625f8","bdp_trlrn","Wed Mar 15 2023 15:30:13 GMT-0400 (Eastern Daylight Time)","782763","Untrustworthy,Trustworthy","image-keyboard-response","71","157174","0.0-6.0-2.32","","null","","trustrating_stim/white_00519_940519_fb_edt.bmp","null","","","","","","","","","","",""
"","","","rating","631b428359f449b8159625f8","bdp_trlrn","Wed Mar 15 2023 15:30:13 GMT-0400 (Eastern Daylight Time)","782763","Untrustworthy,Trustworthy","image-keyboard-response","72","159109","0.0-6.0-1.33","","1812","","trustrating_stim/white_mw099.bmp","8","","","","","","","","","","",""
"","","","ratingFB","631b428359f449b8159625f8","bdp_trlrn","Wed Mar 15 2023 15:30:13 GMT-0400 (Eastern Daylight Time)","782763","Untrustworthy,Trustworthy","image-keyboard-response","73","159318","0.0-6.0-2.33","","null","","trustrating_stim/white_mw099.bmp","null","","","","","","","","","","",""
"","","","rating","631b428359f449b8159625f8","bdp_trlrn","Wed Mar 15 2023 15:30:13 GMT-0400 (Eastern Daylight Time)","782763","Untrustworthy,Trustworthy","image-keyboard-response","74","163259","0.0-6.0-1.34","","3823","","trustrating_stim/white_mw053.bmp","7","","","","","","","","","","",""
"","","","ratingFB","631b428359f449b8159625f8","bdp_trlrn","Wed Mar 15 2023 15:30:13 GMT-0400 (Eastern Daylight Time)","782763","Untrustworthy,Trustworthy","image-keyboard-response","75","163472","0.0-6.0-2.34","","null","","trustrating_stim/white_mw053.bmp","null","","","","","","","","","","",""
"","","","rating","631b428359f449b8159625f8","bdp_trlrn","Wed Mar 15 2023 15:30:13 GMT-0400 (Eastern Daylight Time)","782763","Untrustworthy,Trustworthy","image-keyboard-response","76","166311","0.0-6.0-1.35","","2730","","trustrating_stim/white_mw066.bmp","7","","","","","","","","","","",""
"","","","ratingFB","631b428359f449b8159625f8","bdp_trlrn","Wed Mar 15 2023 15:30:13 GMT-0400 (Eastern Daylight Time)","782763","Untrustworthy,Trustworthy","image-keyboard-response","77","166528","0.0-6.0-2.35","","null","","trustrating_stim/white_mw066.bmp","null","","","","","","","","","","",""
"","","","rating","631b428359f449b8159625f8","bdp_trlrn","Wed Mar 15 2023 15:30:13 GMT-0400 (Eastern Daylight Time)","782763","Untrustworthy,Trustworthy","image-keyboard-response","78","168942","0.0-6.0-1.36","","2296","","trustrating_stim/white_00129_931230_fb_edt.bmp","6","","","","","","","","","","",""
"","","","ratingFB","631b428359f449b8159625f8","bdp_trlrn","Wed Mar 15 2023 15:30:13 GMT-0400 (Eastern Daylight Time)","782763","Untrustworthy,Trustworthy","image-keyboard-response","79","169155","0.0-6.0-2.36","","null","","trustrating_stim/white_00129_931230_fb_edt.bmp","null","","","","","","","","","","",""
"","","","rating","631b428359f449b8159625f8","bdp_trlrn","Wed Mar 15 2023 15:30:13 GMT-0400 (Eastern Daylight Time)","782763","Untrustworthy,Trustworthy","image-keyboard-response","80","173152","0.0-6.0-1.37","","3881","","trustrating_stim/white_mw071.bmp","6","","","","","","","","","","",""
"","","","ratingFB","631b428359f449b8159625f8","bdp_trlrn","Wed Mar 15 2023 15:30:13 GMT-0400 (Eastern Daylight Time)","782763","Untrustworthy,Trustworthy","image-keyboard-response","81","173354","0.0-6.0-2.37","","null","","trustrating_stim/white_mw071.bmp","null","","","","","","","","","","",""
"","","","rating","631b428359f449b8159625f8","bdp_trlrn","Wed Mar 15 2023 15:30:13 GMT-0400 (Eastern Daylight Time)","782763","Untrustworthy,Trustworthy","image-keyboard-response","82","177126","0.0-6.0-1.38","","3655","","trustrating_stim/white_mw033.bmp","6","","","","","","","","","","",""
"","","","ratingFB","631b428359f449b8159625f8","bdp_trlrn","Wed Mar 15 2023 15:30:13 GMT-0400 (Eastern Daylight Time)","782763","Untrustworthy,Trustworthy","image-keyboard-response","83","177333","0.0-6.0-2.38","","null","","trustrating_stim/white_mw033.bmp","null","","","","","","","","","","",""
"","","","rating","631b428359f449b8159625f8","bdp_trlrn","Wed Mar 15 2023 15:30:13 GMT-0400 (Eastern Daylight Time)","782763","Untrustworthy,Trustworthy","image-keyboard-response","84","179669","0.0-6.0-1.39","","2227","","trustrating_stim/white_00340_940422_fa_edt.bmp","3","","","","","","","","","","",""
"","","","ratingFB","631b428359f449b8159625f8","bdp_trlrn","Wed Mar 15 2023 15:30:13 GMT-0400 (Eastern Daylight Time)","782763","Untrustworthy,Trustworthy","image-keyboard-response","85","179877","0.0-6.0-2.39","","null","","trustrating_stim/white_00340_940422_fa_edt.bmp","null","","","","","","","","","","",""
"","","","rating","631b428359f449b8159625f8","bdp_trlrn","Wed Mar 15 2023 15:30:13 GMT-0400 (Eastern Daylight Time)","782763","Untrustworthy,Trustworthy","image-keyboard-response","86","183667","0.0-6.0-1.40","","3676","","trustrating_stim/white_mw097.bmp","2","","","","","","","","","","",""
"","","","ratingFB","631b428359f449b8159625f8","bdp_trlrn","Wed Mar 15 2023 15:30:13 GMT-0400 (Eastern Daylight Time)","782763","Untrustworthy,Trustworthy","image-keyboard-response","87","183870","0.0-6.0-2.40","","null","","trustrating_stim/white_mw097.bmp","null","","","","","","","","","","",""
"","","","rating","631b428359f449b8159625f8","bdp_trlrn","Wed Mar 15 2023 15:30:13 GMT-0400 (Eastern Daylight Time)","782763","Untrustworthy,Trustworthy","image-keyboard-response","88","187121","0.0-6.0-1.41","","3143","","trustrating_stim/white_00898_960530_fa_edt.bmp","7","","","","","","","","","","",""
"","","","ratingFB","631b428359f449b8159625f8","bdp_trlrn","Wed Mar 15 2023 15:30:13 GMT-0400 (Eastern Daylight Time)","782763","Untrustworthy,Trustworthy","image-keyboard-response","89","187336","0.0-6.0-2.41","","null","","trustrating_stim/white_00898_960530_fa_edt.bmp","null","","","","","","","","","","",""
"","","","rating","631b428359f449b8159625f8","bdp_trlrn","Wed Mar 15 2023 15:30:13 GMT-0400 (Eastern Daylight Time)","782763","Untrustworthy,Trustworthy","image-keyboard-response","90","191908","0.0-6.0-1.42","","4465","","trustrating_stim/white_00577_940928_fa_edt.bmp","1","","","","","","","","","","",""
"","","","ratingFB","631b428359f449b8159625f8","bdp_trlrn","Wed Mar 15 2023 15:30:13 GMT-0400 (Eastern Daylight Time)","782763","Untrustworthy,Trustworthy","image-keyboard-response","91","192110","0.0-6.0-2.42","","null","","trustrating_stim/white_00577_940928_fa_edt.bmp","null","","","","","","","","","","",""
"","","","rating","631b428359f449b8159625f8","bdp_trlrn","Wed Mar 15 2023 15:30:13 GMT-0400 (Eastern Daylight Time)","782763","Untrustworthy,Trustworthy","image-keyboard-response","92","194339","0.0-6.0-1.43","","2114","","trustrating_stim/white_00757_941201_fa_edt.bmp","2","","","","","","","","","","",""
"","","","ratingFB","631b428359f449b8159625f8","bdp_trlrn","Wed Mar 15 2023 15:30:13 GMT-0400 (Eastern Daylight Time)","782763","Untrustworthy,Trustworthy","image-keyboard-response","93","194543","0.0-6.0-2.43","","null","","trustrating_stim/white_00757_941201_fa_edt.bmp","null","","","","","","","","","","",""
"","","","rating","631b428359f449b8159625f8","bdp_trlrn","Wed Mar 15 2023 15:30:13 GMT-0400 (Eastern Daylight Time)","782763","Untrustworthy,Trustworthy","image-keyboard-response","94","197489","0.0-6.0-1.44","","2832","","trustrating_stim/white_mw035.bmp","5","","","","","","","","","","",""
"","","","ratingFB","631b428359f449b8159625f8","bdp_trlrn","Wed Mar 15 2023 15:30:13 GMT-0400 (Eastern Daylight Time)","782763","Untrustworthy,Trustworthy","image-keyboard-response","95","197700","0.0-6.0-2.44","","null","","trustrating_stim/white_mw035.bmp","null","","","","","","","","","","",""
"","","","rating","631b428359f449b8159625f8","bdp_trlrn","Wed Mar 15 2023 15:30:13 GMT-0400 (Eastern Daylight Time)","782763","Untrustworthy,Trustworthy","image-keyboard-response","96","200811","0.0-6.0-1.45","","3001","","trustrating_stim/white_00785_941205_fb_edt.bmp","5","","","","","","","","","","",""
"","","","ratingFB","631b428359f449b8159625f8","bdp_trlrn","Wed Mar 15 2023 15:30:13 GMT-0400 (Eastern Daylight Time)","782763","Untrustworthy,Trustworthy","image-keyboard-response","97","201022","0.0-6.0-2.45","","null","","trustrating_stim/white_00785_941205_fb_edt.bmp","null","","","","","","","","","","",""
"","","","rating","631b428359f449b8159625f8","bdp_trlrn","Wed Mar 15 2023 15:30:13 GMT-0400 (Eastern Daylight Time)","782763","Untrustworthy,Trustworthy","image-keyboard-response","98","203093","0.0-6.0-1.46","","1962","","trustrating_stim/white_mw049.bmp","6","","","","","","","","","","",""
"","","","ratingFB","631b428359f449b8159625f8","bdp_trlrn","Wed Mar 15 2023 15:30:13 GMT-0400 (Eastern Daylight Time)","782763","Untrustworthy,Trustworthy","image-keyboard-response","99","203298","0.0-6.0-2.46","","null","","trustrating_stim/white_mw049.bmp","null","","","","","","","","","","",""
"","","","rating","631b428359f449b8159625f8","bdp_trlrn","Wed Mar 15 2023 15:30:13 GMT-0400 (Eastern Daylight Time)","782763","Untrustworthy,Trustworthy","image-keyboard-response","100","207584","0.0-6.0-1.47","","4177","","trustrating_stim/white_mw056.bmp","7","","","","","","","","","","",""
"","","","ratingFB","631b428359f449b8159625f8","bdp_trlrn","Wed Mar 15 2023 15:30:13 GMT-0400 (Eastern Daylight Time)","782763","Untrustworthy,Trustworthy","image-keyboard-response","101","207794","0.0-6.0-2.47","","null","","trustrating_stim/white_mw056.bmp","null","","","","","","","","","","",""
"","","","rating","631b428359f449b8159625f8","bdp_trlrn","Wed Mar 15 2023 15:30:13 GMT-0400 (Eastern Daylight Time)","782763","Untrustworthy,Trustworthy","image-keyboard-response","102","209630","0.0-6.0-1.48","","1719","","trustrating_stim/white_00659_941121_fa_edt.bmp","2","","","","","","","","","","",""
"","","","ratingFB","631b428359f449b8159625f8","bdp_trlrn","Wed Mar 15 2023 15:30:13 GMT-0400 (Eastern Daylight Time)","782763","Untrustworthy,Trustworthy","image-keyboard-response","103","209834","0.0-6.0-2.48","","null","","trustrating_stim/white_00659_941121_fa_edt.bmp","null","","","","","","","","","","",""
"","","","rating","631b428359f449b8159625f8","bdp_trlrn","Wed Mar 15 2023 15:30:13 GMT-0400 (Eastern Daylight Time)","782763","Untrustworthy,Trustworthy","image-keyboard-response","104","212763","0.0-6.0-1.49","","2807","","trustrating_stim/white_00602_940928_fb_edt.bmp","5","","","","","","","","","","",""
"","","","ratingFB","631b428359f449b8159625f8","bdp_trlrn","Wed Mar 15 2023 15:30:13 GMT-0400 (Eastern Daylight Time)","782763","Untrustworthy,Trustworthy","image-keyboard-response","105","212967","0.0-6.0-2.49","","null","","trustrating_stim/white_00602_940928_fb_edt.bmp","null","","","","","","","","","","",""
"","","","rating","631b428359f449b8159625f8","bdp_trlrn","Wed Mar 15 2023 15:30:13 GMT-0400 (Eastern Daylight Time)","782763","Untrustworthy,Trustworthy","image-keyboard-response","106","215537","0.0-6.0-1.50","","2452","","trustrating_stim/white_00299_940422_fa_edt.bmp","3","","","","","","","","","","",""
"","","","ratingFB","631b428359f449b8159625f8","bdp_trlrn","Wed Mar 15 2023 15:30:13 GMT-0400 (Eastern Daylight Time)","782763","Untrustworthy,Trustworthy","image-keyboard-response","107","215740","0.0-6.0-2.50","","null","","trustrating_stim/white_00299_940422_fa_edt.bmp","null","","","","","","","","","","",""
"","","","rating","631b428359f449b8159625f8","bdp_trlrn","Wed Mar 15 2023 15:30:13 GMT-0400 (Eastern Daylight Time)","782763","Untrustworthy,Trustworthy","image-keyboard-response","108","218979","0.0-6.0-1.51","","3122","","trustrating_stim/white_00109_931230_fa_edt.bmp","4","","","","","","","","","","",""
"","","","ratingFB","631b428359f449b8159625f8","bdp_trlrn","Wed Mar 15 2023 15:30:13 GMT-0400 (Eastern Daylight Time)","782763","Untrustworthy,Trustworthy","image-keyboard-response","109","219190","0.0-6.0-2.51","","null","","trustrating_stim/white_00109_931230_fa_edt.bmp","null","","","","","","","","","","",""
"","","","rating","631b428359f449b8159625f8","bdp_trlrn","Wed Mar 15 2023 15:30:13 GMT-0400 (Eastern Daylight Time)","782763","Untrustworthy,Trustworthy","image-keyboard-response","110","221860","0.0-6.0-1.52","","2554","","trustrating_stim/white_00120_931230_fa_edt.bmp","2","","","","","","","","","","",""
"","","","ratingFB","631b428359f449b8159625f8","bdp_trlrn","Wed Mar 15 2023 15:30:13 GMT-0400 (Eastern Daylight Time)","782763","Untrustworthy,Trustworthy","image-keyboard-response","111","222063","0.0-6.0-2.52","","null","","trustrating_stim/white_00120_931230_fa_edt.bmp","null","","","","","","","","","","",""
"","","","rating","631b428359f449b8159625f8","bdp_trlrn","Wed Mar 15 2023 15:30:13 GMT-0400 (Eastern Daylight Time)","782763","Untrustworthy,Trustworthy","image-keyboard-response","112","224851","0.0-6.0-1.53","","2670","","trustrating_stim/white_00761_941201_fb_edt.bmp","7","","","","","","","","","","",""
"","","","ratingFB","631b428359f449b8159625f8","bdp_trlrn","Wed Mar 15 2023 15:30:13 GMT-0400 (Eastern Daylight Time)","782763","Untrustworthy,Trustworthy","image-keyboard-response","113","225059","0.0-6.0-2.53","","null","","trustrating_stim/white_00761_941201_fb_edt.bmp","null","","","","","","","","","","",""
"","","","rating","631b428359f449b8159625f8","bdp_trlrn","Wed Mar 15 2023 15:30:13 GMT-0400 (Eastern Daylight Time)","782763","Untrustworthy,Trustworthy","image-keyboard-response","114","229423","0.0-6.0-1.54","","4247","","trustrating_stim/white_mw089.bmp","3","","","","","","","","","","",""
"","","","ratingFB","631b428359f449b8159625f8","bdp_trlrn","Wed Mar 15 2023 15:30:13 GMT-0400 (Eastern Daylight Time)","782763","Untrustworthy,Trustworthy","image-keyboard-response","115","229631","0.0-6.0-2.54","","null","","trustrating_stim/white_mw089.bmp","null","","","","","","","","","","",""
"","","","rating","631b428359f449b8159625f8","bdp_trlrn","Wed Mar 15 2023 15:30:13 GMT-0400 (Eastern Daylight Time)","782763","Untrustworthy,Trustworthy","image-keyboard-response","116","232674","0.0-6.0-1.55","","2928","","trustrating_stim/white_00223_940128_fb_edt.bmp","3","","","","","","","","","","",""
"","","","ratingFB","631b428359f449b8159625f8","bdp_trlrn","Wed Mar 15 2023 15:30:13 GMT-0400 (Eastern Daylight Time)","782763","Untrustworthy,Trustworthy","image-keyboard-response","117","232887","0.0-6.0-2.55","","null","","trustrating_stim/white_00223_940128_fb_edt.bmp","null","","","","","","","","","","",""
"","","","rating","631b428359f449b8159625f8","bdp_trlrn","Wed Mar 15 2023 15:30:13 GMT-0400 (Eastern Daylight Time)","782763","Untrustworthy,Trustworthy","image-keyboard-response","118","235015","0.0-6.0-1.56","","2011","","trustrating_stim/white_mw048.bmp","1","","","","","","","","","","",""
"","","","ratingFB","631b428359f449b8159625f8","bdp_trlrn","Wed Mar 15 2023 15:30:13 GMT-0400 (Eastern Daylight Time)","782763","Untrustworthy,Trustworthy","image-keyboard-response","119","235228","0.0-6.0-2.56","","null","","trustrating_stim/white_mw048.bmp","null","","","","","","","","","","",""
"","","","rating","631b428359f449b8159625f8","bdp_trlrn","Wed Mar 15 2023 15:30:13 GMT-0400 (Eastern Daylight Time)","782763","Untrustworthy,Trustworthy","image-keyboard-response","120","237923","0.0-6.0-1.57","","2571","","trustrating_stim/white_mw063.bmp","2","","","","","","","","","","",""
"","","","ratingFB","631b428359f449b8159625f8","bdp_trlrn","Wed Mar 15 2023 15:30:13 GMT-0400 (Eastern Daylight Time)","782763","Untrustworthy,Trustworthy","image-keyboard-response","121","238138","0.0-6.0-2.57","","null","","trustrating_stim/white_mw063.bmp","null","","","","","","","","","","",""
"","","","rating","631b428359f449b8159625f8","bdp_trlrn","Wed Mar 15 2023 15:30:13 GMT-0400 (Eastern Daylight Time)","782763","Untrustworthy,Trustworthy","image-keyboard-response","122","240001","0.0-6.0-1.58","","1738","","trustrating_stim/white_00807_941205_fb_edt.bmp","7","","","","","","","","","","",""
"","","","ratingFB","631b428359f449b8159625f8","bdp_trlrn","Wed Mar 15 2023 15:30:13 GMT-0400 (Eastern Daylight Time)","782763","Untrustworthy,Trustworthy","image-keyboard-response","123","240216","0.0-6.0-2.58","","null","","trustrating_stim/white_00807_941205_fb_edt.bmp","null","","","","","","","","","","",""
"","","","rating","631b428359f449b8159625f8","bdp_trlrn","Wed Mar 15 2023 15:30:13 GMT-0400 (Eastern Daylight Time)","782763","Untrustworthy,Trustworthy","image-keyboard-response","124","244236","0.0-6.0-1.59","","3904","","trustrating_stim/white_mw084.bmp","2","","","","","","","","","","",""
"","","","ratingFB","631b428359f449b8159625f8","bdp_trlrn","Wed Mar 15 2023 15:30:13 GMT-0400 (Eastern Daylight Time)","782763","Untrustworthy,Trustworthy","image-keyboard-response","125","244447","0.0-6.0-2.59","","null","","trustrating_stim/white_mw084.bmp","null","","","","","","","","","","",""
"","","","","631b428359f449b8159625f8","bdp_trlrn","Wed Mar 15 2023 15:30:13 GMT-0400 (Eastern Daylight Time)","782763","Untrustworthy,Trustworthy","instructions","126","247228","0.0-7.0","[{""page_index"":0,""viewing_time"":2665}]","2665","","","","","","","","","","","","","",""
"","","","","631b428359f449b8159625f8","bdp_trlrn","Wed Mar 15 2023 15:30:13 GMT-0400 (Eastern Daylight Time)","782763","Untrustworthy,Trustworthy","instructions","127","386832","0.0-8.0","[{""page_index"":0,""viewing_time"":10069},{""page_index"":1,""viewing_time"":35730},{""page_index"":2,""viewing_time"":11014},{""page_index"":3,""viewing_time"":20308},{""page_index"":4,""viewing_time"":11331},{""page_index"":5,""viewing_time"":17572},{""page_index"":6,""viewing_time"":29352},{""page_index"":7,""viewing_time"":4114}]","139491","","","","","","","","","","","","","",""
"","","","","631b428359f449b8159625f8","bdp_trlrn","Wed Mar 15 2023 15:30:13 GMT-0400 (Eastern Daylight Time)","782763","Untrustworthy,Trustworthy","html-keyboard-response","128","393505","0.0-9.0","","6671","","<div class='header' style='text-align:left; position: absolute; top: 5%; left: 5%;'><small>Task 3 of 5</small></div><div class='instruxDiv'><p><strong>1) What is the minimum number of points you can choose to send to your partner?</strong></p><p>a) 0</p><p>b) 1</p><p>c) 5</p>","A","","","","","","","","","","",""
"","","","","631b428359f449b8159625f8","bdp_trlrn","Wed Mar 15 2023 15:30:13 GMT-0400 (Eastern Daylight Time)","782763","Untrustworthy,Trustworthy","html-keyboard-response","129","398778","0.0-10.0","","5163","","<div class='header' style='text-align:left; position: absolute; top: 5%; left: 5%;'><small>Task 3 of 5</small></div><div class='instruxDiv'><p><strong>1) What is the minimum number of points you can choose to send to your partner?</strong></p><p style='color:#FF0000'>a) 0</p><p>b) 1</p><p>c) 5</p><h3 style='color:#FF0000'>Incorrect!</h3><h3 class='center-content'>The correct response is b).</h3><h3 class='center-content'>The minimum number of points you can choose to send to your partner is 1 point.</h3><p><em>Press SPACEBAR to continue</em></p></div>"," ","","","","","","","","","","",""
"","","","","631b428359f449b8159625f8","bdp_trlrn","Wed Mar 15 2023 15:30:13 GMT-0400 (Eastern Daylight Time)","782763","Untrustworthy,Trustworthy","html-keyboard-response","130","404066","0.0-11.0","","5179","","<div class='header' style='text-align:left; position: absolute; top: 5%; left: 5%;'><small>Task 3 of 5</small></div><div class='instruxDiv'><p><strong>2) What is the maximum number of points you can choose to send to your partner?</strong></p><p>a) 8</p><p>b) 5</p><p>c) 3</p>","B","","","","","","","","","","",""
"","","","","631b428359f449b8159625f8","bdp_trlrn","Wed Mar 15 2023 15:30:13 GMT-0400 (Eastern Daylight Time)","782763","Untrustworthy,Trustworthy","html-keyboard-response","131","406812","0.0-12.0","","2637","","<div class='header' style='text-align:left; position: absolute; top: 5%; left: 5%;'><small>Task 3 of 5</small></div><div class='instruxDiv'><p><strong>2) What is the maximum number of points you can choose to send to your partner?</strong></p><p>a) 8</p><p style='color:#00FF00'>b) 5</p><p>c) 3</p><h3 style='color:#00FF00'>Correct!</h3><h3 class='center-content'>The correct response is b).</h3><h3 class='center-content'>The maximum number of points you can choose to send to your partner is 5 points.</h3><p><em>Press SPACEBAR to continue</em></p></div>"," ","","","","","","","","","","",""
"","","","","631b428359f449b8159625f8","bdp_trlrn","Wed Mar 15 2023 15:30:13 GMT-0400 (Eastern Daylight Time)","782763","Untrustworthy,Trustworthy","html-keyboard-response","132","412118","0.0-13.0","","5201","","<div class='header' style='text-align:left; position: absolute; top: 5%; left: 5%;'><small>Task 3 of 5</small></div><div class='instruxDiv'><p><strong>3) What happens to the amount of points you send to your partner?</strong></p><p>a) Nothing</p><p>b) It doubles</p><p>c) It quadruples</p>","C","","","","","","","","","","",""
"","","","","631b428359f449b8159625f8","bdp_trlrn","Wed Mar 15 2023 15:30:13 GMT-0400 (Eastern Daylight Time)","782763","Untrustworthy,Trustworthy","html-keyboard-response","133","413842","0.0-14.0","","1623","","<div class='header' style='text-align:left; position: absolute; top: 5%; left: 5%;'><small>Task 3 of 5</small></div><div class='instruxDiv'><p><strong>3) What happens to the amount of points you send to your partner?</strong></p><p>a) Nothing</p><p>b) It doubles</p><p style='color:#00FF00'>c) It quadruples</p><h3 style='color:#00FF00'>Correct!</h3><h3 class='center-content'>The correct response is c).</h3><h3 class='center-content'>The amount of points you send to your partner quadruples.</h3><p><em>Press SPACEBAR to continue</em></p></div>"," ","","","","","","","","","","",""
"","","","","631b428359f449b8159625f8","bdp_trlrn","Wed Mar 15 2023 15:30:13 GMT-0400 (Eastern Daylight Time)","782763","Untrustworthy,Trustworthy","html-keyboard-response","134","431997","0.0-15.0","","18041","","<div class='header' style='text-align:left; position: absolute; top: 5%; left: 5%;'><small>Task 3 of 5</small></div><div class='instruxDiv'><p><strong>4) If you decided to share 4 out of 5 points with your partner, and they decided to share half of the amount they received with you, how many points would you receive back from them on this round?</strong></p><p>a) 16</p><p>b) 0</p><p>c) 8</p>","C","","","","","","","","","","",""
"","","","","631b428359f449b8159625f8","bdp_trlrn","Wed Mar 15 2023 15:30:13 GMT-0400 (Eastern Daylight Time)","782763","Untrustworthy,Trustworthy","html-keyboard-response","135","433225","0.0-16.0","","1117","","<div class='header' style='text-align:left; position: absolute; top: 5%; left: 5%;'><small>Task 3 of 5</small></div><div class='instruxDiv'><p><strong>4) If you decided to share 4 out of 5 points with your partner, and they decided to share half of the amount they received with you, how many points would you receive back from them on this round?</strong></p><p>a) 16</p><p>b) 0</p><p style='color:#00FF00'>c) 8</p><h3 style='color:#00FF00'>Correct!</h3><h3 class='center-content'>The correct response is c).</h3><h3 class='center-content'>If you shared 4 out of 5 points with your partner and they decided to share half of the amount they received with you, you would receive 8 points back (i.e. (4 x 4)/2 = 8).</h3><p><em>Press SPACEBAR to continue</em></p></div>"," ","","","","","","","","","","",""
"","","","","631b428359f449b8159625f8","bdp_trlrn","Wed Mar 15 2023 15:30:13 GMT-0400 (Eastern Daylight Time)","782763","Untrustworthy,Trustworthy","html-keyboard-response","136","438329","0.0-17.0","","null","","<div class='header' style='text-align:left; position: absolute; top: 5%; left: 5%;'><small>Task 3 of 5</small></div><div class='instruxDiv'><p>Thank you for completing the quiz<p>These are the actual partners you will be interacting with in the next block:<p><div class='tc' align='center'><img class='introPic' src='trustrating_stim/white_00577_940928_fa_edt.bmp'><br><strong>Matthew</strong></div><div class='bl' align='center'><img class='introPic' src='trustrating_stim/white_mw089.bmp'><br><strong>Richard</strong></div><div class='br' align='center'><img class='introPic' src='trustrating_stim/white_00761_941201_fb_edt.bmp'><br><strong>Jacob</strong></div></div><p>Across <strong>66 rounds</strong> you will interact with each partner <strong>22 times</strong> (in random order).<p style='align:center; color:white'><font <em>Press SPACEBAR to continue</em></p>","null","","","","","","","","","","",""
"","","","","631b428359f449b8159625f8","bdp_trlrn","Wed Mar 15 2023 15:30:13 GMT-0400 (Eastern Daylight Time)","782763","Untrustworthy,Trustworthy","instructions","137","450216","0.0-18.0","[{""page_index"":0,""viewing_time"":8680},{""page_index"":1,""viewing_time"":3206}]","11886","","","","","","","","","","","","","",""
"","","","decision","631b428359f449b8159625f8","bdp_trlrn","Wed Mar 15 2023 15:30:13 GMT-0400 (Eastern Daylight Time)","782763","Untrustworthy,Trustworthy","html-keyboard-response","138","452514","0.0-19.0-1.0","","2192","","<div class='trialDiv'><img src='trustrating_stim/white_mw089.bmp'><br><font class='baseline'><strong>Richard</strong><p>Choose number of points to send.</font><div class='respPicDiv'><img src='img/responseButtonOffersNo0L.png' class='respPic'></div></div>","5","1","Richard","4","Shared","0.8,0.35","11","0.8","trustrating_stim/white_mw089.bmp","4.5","5","1"
"","","","decisionFB","631b428359f449b8159625f8","bdp_trlrn","Wed Mar 15 2023 15:30:13 GMT-0400 (Eastern Daylight Time)","782763","Untrustworthy,Trustworthy","html-keyboard-response","139","452782","0.0-19.0-2.0","","null","","<div class='trialDiv'><img src='trustrating_stim/white_mw089.bmp'><br><font class='baseline'><strong>Richard</strong><p>Choose number of points to send.</font><div class='respPicDiv'><img src='img/responseButtonOffersNo0L5.png' class='respPic'></div></div>","null","1","Richard","4","Shared","0.8,0.35","11","0.8","trustrating_stim/white_mw089.bmp","4.5","0","1"
"","","","feedback","631b428359f449b8159625f8","bdp_trlrn","Wed Mar 15 2023 15:30:13 GMT-0400 (Eastern Daylight Time)","782763","Untrustworthy,Trustworthy","html-keyboard-response","140","453787","0.0-19.0-3.0","","null","","<div class='trialDiv'><img src='trustrating_stim/white_mw089.bmp'><br><font class='baseline'><strong>Richard</strong><p>Received: <strong>20</strong></font> &nbsp; &nbsp; &nbsp; &nbsp; &nbsp; &nbsp;<font class='posOutcome'>Shared back: <strong>10</strong></font></font><div class='respPicDiv'><img src='img/responseButtonOffersNo0_wht.png' class='respPic'></div></div>","null","1","Richard","4","Shared","0.8,0.35","11","0.8","trustrating_stim/white_mw089.bmp","4.5","10","1"
"","","","decision","631b428359f449b8159625f8","bdp_trlrn","Wed Mar 15 2023 15:30:13 GMT-0400 (Eastern Daylight Time)","782763","Untrustworthy,Trustworthy","html-keyboard-response","141","455993","0.0-19.0-1.1","","2204","","<div class='trialDiv'><img src='trustrating_stim/white_00577_940928_fa_edt.bmp'><br><font class='baseline'><strong>Matthew</strong><p>Choose number of points to send.</font><div class='respPicDiv'><img src='img/responseButtonOffersNo0L.png' class='respPic'></div></div>","5","1","Matthew","2","Shared","0.8,0.2","13","0.8","trustrating_stim/white_00577_940928_fa_edt.bmp","1.5","15","2"
"","","","decisionFB","631b428359f449b8159625f8","bdp_trlrn","Wed Mar 15 2023 15:30:13 GMT-0400 (Eastern Daylight Time)","782763","Untrustworthy,Trustworthy","html-keyboard-response","142","456265","0.0-19.0-2.1","","null","","<div class='trialDiv'><img src='trustrating_stim/white_00577_940928_fa_edt.bmp'><br><font class='baseline'><strong>Matthew</strong><p>Choose number of points to send.</font><div class='respPicDiv'><img src='img/responseButtonOffersNo0L5.png' class='respPic'></div></div>","null","1","Matthew","2","Shared","0.8,0.2","13","0.8","trustrating_stim/white_00577_940928_fa_edt.bmp","1.5","10","2"
"","","","feedback","631b428359f449b8159625f8","bdp_trlrn","Wed Mar 15 2023 15:30:13 GMT-0400 (Eastern Daylight Time)","782763","Untrustworthy,Trustworthy","html-keyboard-response","143","457269","0.0-19.0-3.1","","null","","<div class='trialDiv'><img src='trustrating_stim/white_00577_940928_fa_edt.bmp'><br><font class='baseline'><strong>Matthew</strong><p>Received: <strong>20</strong></font> &nbsp; &nbsp; &nbsp; &nbsp; &nbsp; &nbsp;<font class='posOutcome'>Shared back: <strong>10</strong></font></font><div class='respPicDiv'><img src='img/responseButtonOffersNo0_wht.png' class='respPic'></div></div>","null","1","Matthew","2","Shared","0.8,0.2","13","0.8","trustrating_stim/white_00577_940928_fa_edt.bmp","1.5","20","2"
"","","","decision","631b428359f449b8159625f8","bdp_trlrn","Wed Mar 15 2023 15:30:13 GMT-0400 (Eastern Daylight Time)","782763","Untrustworthy,Trustworthy","html-keyboard-response","144","458699","0.0-19.0-1.2","","1428","","<div class='trialDiv'><img src='trustrating_stim/white_00761_941201_fb_edt.bmp'><br><font class='baseline'><strong>Jacob</strong><p>Choose number of points to send.</font><div class='respPicDiv'><img src='img/responseButtonOffersNo0L.png' class='respPic'></div></div>","5","1","Jacob","11","Kept","0.2,0.65","10","0.2","trustrating_stim/white_00761_941201_fb_edt.bmp","8","25","3"
"","","","decisionFB","631b428359f449b8159625f8","bdp_trlrn","Wed Mar 15 2023 15:30:13 GMT-0400 (Eastern Daylight Time)","782763","Untrustworthy,Trustworthy","html-keyboard-response","145","458953","0.0-19.0-2.2","","null","","<div class='trialDiv'><img src='trustrating_stim/white_00761_941201_fb_edt.bmp'><br><font class='baseline'><strong>Jacob</strong><p>Choose number of points to send.</font><div class='respPicDiv'><img src='img/responseButtonOffersNo0L5.png' class='respPic'></div></div>","null","1","Jacob","11","Kept","0.2,0.65","10","0.2","trustrating_stim/white_00761_941201_fb_edt.bmp","8","20","3"
"","","","feedback","631b428359f449b8159625f8","bdp_trlrn","Wed Mar 15 2023 15:30:13 GMT-0400 (Eastern Daylight Time)","782763","Untrustworthy,Trustworthy","html-keyboard-response","146","459955","0.0-19.0-3.2","","null","","<div class='trialDiv'><img src='trustrating_stim/white_00761_941201_fb_edt.bmp'><br><font class='baseline'><strong>Jacob</strong><p>Received: <strong>20</strong></font> &nbsp; &nbsp; &nbsp; &nbsp; &nbsp; &nbsp;<font class='negOutcome'>Shared back: <strong>0</strong></font></font><div class='respPicDiv'><img src='img/responseButtonOffersNo0_wht.png' class='respPic'></div></div>","null","1","Jacob","11","Kept","0.2,0.65","10","0.2","trustrating_stim/white_00761_941201_fb_edt.bmp","8","20","3"
"","","","decision","631b428359f449b8159625f8","bdp_trlrn","Wed Mar 15 2023 15:30:13 GMT-0400 (Eastern Daylight Time)","782763","Untrustworthy,Trustworthy","html-keyboard-response","147","461080","0.0-19.0-1.3","","1123","","<div class='trialDiv'><img src='trustrating_stim/white_mw089.bmp'><br><font class='baseline'><strong>Richard</strong><p>Choose number of points to send.</font><div class='respPicDiv'><img src='img/responseButtonOffersNo0L.png' class='respPic'></div></div>","5","2","Richard","4","Shared","0.8,0.35","11","0.8","trustrating_stim/white_mw089.bmp","4.5","25","4"
"","","","decisionFB","631b428359f449b8159625f8","bdp_trlrn","Wed Mar 15 2023 15:30:13 GMT-0400 (Eastern Daylight Time)","782763","Untrustworthy,Trustworthy","html-keyboard-response","148","461345","0.0-19.0-2.3","","null","","<div class='trialDiv'><img src='trustrating_stim/white_mw089.bmp'><br><font class='baseline'><strong>Richard</strong><p>Choose number of points to send.</font><div class='respPicDiv'><img src='img/responseButtonOffersNo0L5.png' class='respPic'></div></div>","null","2","Richard","4","Shared","0.8,0.35","11","0.8","trustrating_stim/white_mw089.bmp","4.5","20","4"
"","","","feedback","631b428359f449b8159625f8","bdp_trlrn","Wed Mar 15 2023 15:30:13 GMT-0400 (Eastern Daylight Time)","782763","Untrustworthy,Trustworthy","html-keyboard-response","149","462348","0.0-19.0-3.3","","null","","<div class='trialDiv'><img src='trustrating_stim/white_mw089.bmp'><br><font class='baseline'><strong>Richard</strong><p>Received: <strong>20</strong></font> &nbsp; &nbsp; &nbsp; &nbsp; &nbsp; &nbsp;<font class='posOutcome'>Shared back: <strong>10</strong></font></font><div class='respPicDiv'><img src='img/responseButtonOffersNo0_wht.png' class='respPic'></div></div>","null","2","Richard","4","Shared","0.8,0.35","11","0.8","trustrating_stim/white_mw089.bmp","4.5","30","4"
"","","","decision","631b428359f449b8159625f8","bdp_trlrn","Wed Mar 15 2023 15:30:13 GMT-0400 (Eastern Daylight Time)","782763","Untrustworthy,Trustworthy","html-keyboard-response","150","463205","0.0-19.0-1.4","","854","","<div class='trialDiv'><img src='trustrating_stim/white_00577_940928_fa_edt.bmp'><br><font class='baseline'><strong>Matthew</strong><p>Choose number of points to send.</font><div class='respPicDiv'><img src='img/responseButtonOffersNo0L.png' class='respPic'></div></div>","5","2","Matthew","2","Shared","0.8,0.2","13","0.8","trustrating_stim/white_00577_940928_fa_edt.bmp","1.5","35","5"
"","","","decisionFB","631b428359f449b8159625f8","bdp_trlrn","Wed Mar 15 2023 15:30:13 GMT-0400 (Eastern Daylight Time)","782763","Untrustworthy,Trustworthy","html-keyboard-response","151","463468","0.0-19.0-2.4","","null","","<div class='trialDiv'><img src='trustrating_stim/white_00577_940928_fa_edt.bmp'><br><font class='baseline'><strong>Matthew</strong><p>Choose number of points to send.</font><div class='respPicDiv'><img src='img/responseButtonOffersNo0L5.png' class='respPic'></div></div>","null","2","Matthew","2","Shared","0.8,0.2","13","0.8","trustrating_stim/white_00577_940928_fa_edt.bmp","1.5","30","5"
"","","","feedback","631b428359f449b8159625f8","bdp_trlrn","Wed Mar 15 2023 15:30:13 GMT-0400 (Eastern Daylight Time)","782763","Untrustworthy,Trustworthy","html-keyboard-response","152","464472","0.0-19.0-3.4","","null","","<div class='trialDiv'><img src='trustrating_stim/white_00577_940928_fa_edt.bmp'><br><font class='baseline'><strong>Matthew</strong><p>Received: <strong>20</strong></font> &nbsp; &nbsp; &nbsp; &nbsp; &nbsp; &nbsp;<font class='posOutcome'>Shared back: <strong>10</strong></font></font><div class='respPicDiv'><img src='img/responseButtonOffersNo0_wht.png' class='respPic'></div></div>","null","2","Matthew","2","Shared","0.8,0.2","13","0.8","trustrating_stim/white_00577_940928_fa_edt.bmp","1.5","40","5"
"","","","decision","631b428359f449b8159625f8","bdp_trlrn","Wed Mar 15 2023 15:30:13 GMT-0400 (Eastern Daylight Time)","782763","Untrustworthy,Trustworthy","html-keyboard-response","153","465017","0.0-19.0-1.5","","544","","<div class='trialDiv'><img src='trustrating_stim/white_00761_941201_fb_edt.bmp'><br><font class='baseline'><strong>Jacob</strong><p>Choose number of points to send.</font><div class='respPicDiv'><img src='img/responseButtonOffersNo0L.png' class='respPic'></div></div>","5","2","Jacob","11","Kept","0.2,0.65","10","0.2","trustrating_stim/white_00761_941201_fb_edt.bmp","8","45","6"
"","","","decisionFB","631b428359f449b8159625f8","bdp_trlrn","Wed Mar 15 2023 15:30:13 GMT-0400 (Eastern Daylight Time)","782763","Untrustworthy,Trustworthy","html-keyboard-response","154","465274","0.0-19.0-2.5","","null","","<div class='trialDiv'><img src='trustrating_stim/white_00761_941201_fb_edt.bmp'><br><font class='baseline'><strong>Jacob</strong><p>Choose number of points to send.</font><div class='respPicDiv'><img src='img/responseButtonOffersNo0L5.png' class='respPic'></div></div>","null","2","Jacob","11","Kept","0.2,0.65","10","0.2","trustrating_stim/white_00761_941201_fb_edt.bmp","8","40","6"
"","","","feedback","631b428359f449b8159625f8","bdp_trlrn","Wed Mar 15 2023 15:30:13 GMT-0400 (Eastern Daylight Time)","782763","Untrustworthy,Trustworthy","html-keyboard-response","155","466279","0.0-19.0-3.5","","null","","<div class='trialDiv'><img src='trustrating_stim/white_00761_941201_fb_edt.bmp'><br><font class='baseline'><strong>Jacob</strong><p>Received: <strong>20</strong></font> &nbsp; &nbsp; &nbsp; &nbsp; &nbsp; &nbsp;<font class='negOutcome'>Shared back: <strong>0</strong></font></font><div class='respPicDiv'><img src='img/responseButtonOffersNo0_wht.png' class='respPic'></div></div>","null","2","Jacob","11","Kept","0.2,0.65","10","0.2","trustrating_stim/white_00761_941201_fb_edt.bmp","8","40","6"
"","","","decision","631b428359f449b8159625f8","bdp_trlrn","Wed Mar 15 2023 15:30:13 GMT-0400 (Eastern Daylight Time)","782763","Untrustworthy,Trustworthy","html-keyboard-response","156","467239","0.0-19.0-1.6","","960","","<div class='trialDiv'><img src='trustrating_stim/white_00577_940928_fa_edt.bmp'><br><font class='baseline'><strong>Matthew</strong><p>Choose number of points to send.</font><div class='respPicDiv'><img src='img/responseButtonOffersNo0L.png' class='respPic'></div></div>","5","3","Matthew","2","Kept","0.8,0.2","13","0.8","trustrating_stim/white_00577_940928_fa_edt.bmp","1.5","45","7"
"","","","decisionFB","631b428359f449b8159625f8","bdp_trlrn","Wed Mar 15 2023 15:30:13 GMT-0400 (Eastern Daylight Time)","782763","Untrustworthy,Trustworthy","html-keyboard-response","157","467508","0.0-19.0-2.6","","null","","<div class='trialDiv'><img src='trustrating_stim/white_00577_940928_fa_edt.bmp'><br><font class='baseline'><strong>Matthew</strong><p>Choose number of points to send.</font><div class='respPicDiv'><img src='img/responseButtonOffersNo0L5.png' class='respPic'></div></div>","null","3","Matthew","2","Kept","0.8,0.2","13","0.8","trustrating_stim/white_00577_940928_fa_edt.bmp","1.5","40","7"
"","","","feedback","631b428359f449b8159625f8","bdp_trlrn","Wed Mar 15 2023 15:30:13 GMT-0400 (Eastern Daylight Time)","782763","Untrustworthy,Trustworthy","html-keyboard-response","158","468524","0.0-19.0-3.6","","null","","<div class='trialDiv'><img src='trustrating_stim/white_00577_940928_fa_edt.bmp'><br><font class='baseline'><strong>Matthew</strong><p>Received: <strong>20</strong></font> &nbsp; &nbsp; &nbsp; &nbsp; &nbsp; &nbsp;<font class='negOutcome'>Shared back: <strong>0</strong></font></font><div class='respPicDiv'><img src='img/responseButtonOffersNo0_wht.png' class='respPic'></div></div>","null","3","Matthew","2","Kept","0.8,0.2","13","0.8","trustrating_stim/white_00577_940928_fa_edt.bmp","1.5","40","7"
"","","","decision","631b428359f449b8159625f8","bdp_trlrn","Wed Mar 15 2023 15:30:13 GMT-0400 (Eastern Daylight Time)","782763","Untrustworthy,Trustworthy","html-keyboard-response","159","469048","0.0-19.0-1.7","","521","","<div class='trialDiv'><img src='trustrating_stim/white_00761_941201_fb_edt.bmp'><br><font class='baseline'><strong>Jacob</strong><p>Choose number of points to send.</font><div class='respPicDiv'><img src='img/responseButtonOffersNo0L.png' class='respPic'></div></div>","5","3","Jacob","11","Shared","0.2,0.65","10","0.2","trustrating_stim/white_00761_941201_fb_edt.bmp","8","45","8"
"","","","decisionFB","631b428359f449b8159625f8","bdp_trlrn","Wed Mar 15 2023 15:30:13 GMT-0400 (Eastern Daylight Time)","782763","Untrustworthy,Trustworthy","html-keyboard-response","160","469312","0.0-19.0-2.7","","null","","<div class='trialDiv'><img src='trustrating_stim/white_00761_941201_fb_edt.bmp'><br><font class='baseline'><strong>Jacob</strong><p>Choose number of points to send.</font><div class='respPicDiv'><img src='img/responseButtonOffersNo0L5.png' class='respPic'></div></div>","null","3","Jacob","11","Shared","0.2,0.65","10","0.2","trustrating_stim/white_00761_941201_fb_edt.bmp","8","40","8"
"","","","feedback","631b428359f449b8159625f8","bdp_trlrn","Wed Mar 15 2023 15:30:13 GMT-0400 (Eastern Daylight Time)","782763","Untrustworthy,Trustworthy","html-keyboard-response","161","470315","0.0-19.0-3.7","","null","","<div class='trialDiv'><img src='trustrating_stim/white_00761_941201_fb_edt.bmp'><br><font class='baseline'><strong>Jacob</strong><p>Received: <strong>20</strong></font> &nbsp; &nbsp; &nbsp; &nbsp; &nbsp; &nbsp;<font class='posOutcome'>Shared back: <strong>10</strong></font></font><div class='respPicDiv'><img src='img/responseButtonOffersNo0_wht.png' class='respPic'></div></div>","null","3","Jacob","11","Shared","0.2,0.65","10","0.2","trustrating_stim/white_00761_941201_fb_edt.bmp","8","50","8"
"","","","decision","631b428359f449b8159625f8","bdp_trlrn","Wed Mar 15 2023 15:30:13 GMT-0400 (Eastern Daylight Time)","782763","Untrustworthy,Trustworthy","html-keyboard-response","162","471104","0.0-19.0-1.8","","787","","<div class='trialDiv'><img src='trustrating_stim/white_mw089.bmp'><br><font class='baseline'><strong>Richard</strong><p>Choose number of points to send.</font><div class='respPicDiv'><img src='img/responseButtonOffersNo0L.png' class='respPic'></div></div>","5","3","Richard","4","Kept","0.8,0.35","11","0.8","trustrating_stim/white_mw089.bmp","4.5","55","9"
"","","","decisionFB","631b428359f449b8159625f8","bdp_trlrn","Wed Mar 15 2023 15:30:13 GMT-0400 (Eastern Daylight Time)","782763","Untrustworthy,Trustworthy","html-keyboard-response","163","471365","0.0-19.0-2.8","","null","","<div class='trialDiv'><img src='trustrating_stim/white_mw089.bmp'><br><font class='baseline'><strong>Richard</strong><p>Choose number of points to send.</font><div class='respPicDiv'><img src='img/responseButtonOffersNo0L5.png' class='respPic'></div></div>","null","3","Richard","4","Kept","0.8,0.35","11","0.8","trustrating_stim/white_mw089.bmp","4.5","50","9"
"","","","feedback","631b428359f449b8159625f8","bdp_trlrn","Wed Mar 15 2023 15:30:13 GMT-0400 (Eastern Daylight Time)","782763","Untrustworthy,Trustworthy","html-keyboard-response","164","472369","0.0-19.0-3.8","","null","","<div class='trialDiv'><img src='trustrating_stim/white_mw089.bmp'><br><font class='baseline'><strong>Richard</strong><p>Received: <strong>20</strong></font> &nbsp; &nbsp; &nbsp; &nbsp; &nbsp; &nbsp;<font class='negOutcome'>Shared back: <strong>0</strong></font></font><div class='respPicDiv'><img src='img/responseButtonOffersNo0_wht.png' class='respPic'></div></div>","null","3","Richard","4","Kept","0.8,0.35","11","0.8","trustrating_stim/white_mw089.bmp","4.5","50","9"
"","","","decision","631b428359f449b8159625f8","bdp_trlrn","Wed Mar 15 2023 15:30:13 GMT-0400 (Eastern Daylight Time)","782763","Untrustworthy,Trustworthy","html-keyboard-response","165","472898","0.0-19.0-1.9","","527","","<div class='trialDiv'><img src='trustrating_stim/white_00761_941201_fb_edt.bmp'><br><font class='baseline'><strong>Jacob</strong><p>Choose number of points to send.</font><div class='respPicDiv'><img src='img/responseButtonOffersNo0L.png' class='respPic'></div></div>","5","4","Jacob","11","Kept","0.2,0.65","10","0.2","trustrating_stim/white_00761_941201_fb_edt.bmp","8","55","10"
"","","","decisionFB","631b428359f449b8159625f8","bdp_trlrn","Wed Mar 15 2023 15:30:13 GMT-0400 (Eastern Daylight Time)","782763","Untrustworthy,Trustworthy","html-keyboard-response","166","473156","0.0-19.0-2.9","","null","","<div class='trialDiv'><img src='trustrating_stim/white_00761_941201_fb_edt.bmp'><br><font class='baseline'><strong>Jacob</strong><p>Choose number of points to send.</font><div class='respPicDiv'><img src='img/responseButtonOffersNo0L5.png' class='respPic'></div></div>","null","4","Jacob","11","Kept","0.2,0.65","10","0.2","trustrating_stim/white_00761_941201_fb_edt.bmp","8","50","10"
"","","","feedback","631b428359f449b8159625f8","bdp_trlrn","Wed Mar 15 2023 15:30:13 GMT-0400 (Eastern Daylight Time)","782763","Untrustworthy,Trustworthy","html-keyboard-response","167","474159","0.0-19.0-3.9","","null","","<div class='trialDiv'><img src='trustrating_stim/white_00761_941201_fb_edt.bmp'><br><font class='baseline'><strong>Jacob</strong><p>Received: <strong>20</strong></font> &nbsp; &nbsp; &nbsp; &nbsp; &nbsp; &nbsp;<font class='negOutcome'>Shared back: <strong>0</strong></font></font><div class='respPicDiv'><img src='img/responseButtonOffersNo0_wht.png' class='respPic'></div></div>","null","4","Jacob","11","Kept","0.2,0.65","10","0.2","trustrating_stim/white_00761_941201_fb_edt.bmp","8","50","10"
"","","","decision","631b428359f449b8159625f8","bdp_trlrn","Wed Mar 15 2023 15:30:13 GMT-0400 (Eastern Daylight Time)","782763","Untrustworthy,Trustworthy","html-keyboard-response","168","474711","0.0-19.0-1.10","","549","","<div class='trialDiv'><img src='trustrating_stim/white_00577_940928_fa_edt.bmp'><br><font class='baseline'><strong>Matthew</strong><p>Choose number of points to send.</font><div class='respPicDiv'><img src='img/responseButtonOffersNo0L.png' class='respPic'></div></div>","5","4","Matthew","2","Shared","0.8,0.2","13","0.8","trustrating_stim/white_00577_940928_fa_edt.bmp","1.5","55","11"
"","","","decisionFB","631b428359f449b8159625f8","bdp_trlrn","Wed Mar 15 2023 15:30:13 GMT-0400 (Eastern Daylight Time)","782763","Untrustworthy,Trustworthy","html-keyboard-response","169","474962","0.0-19.0-2.10","","null","","<div class='trialDiv'><img src='trustrating_stim/white_00577_940928_fa_edt.bmp'><br><font class='baseline'><strong>Matthew</strong><p>Choose number of points to send.</font><div class='respPicDiv'><img src='img/responseButtonOffersNo0L5.png' class='respPic'></div></div>","null","4","Matthew","2","Shared","0.8,0.2","13","0.8","trustrating_stim/white_00577_940928_fa_edt.bmp","1.5","50","11"
"","","","feedback","631b428359f449b8159625f8","bdp_trlrn","Wed Mar 15 2023 15:30:13 GMT-0400 (Eastern Daylight Time)","782763","Untrustworthy,Trustworthy","html-keyboard-response","170","475966","0.0-19.0-3.10","","null","","<div class='trialDiv'><img src='trustrating_stim/white_00577_940928_fa_edt.bmp'><br><font class='baseline'><strong>Matthew</strong><p>Received: <strong>20</strong></font> &nbsp; &nbsp; &nbsp; &nbsp; &nbsp; &nbsp;<font class='posOutcome'>Shared back: <strong>10</strong></font></font><div class='respPicDiv'><img src='img/responseButtonOffersNo0_wht.png' class='respPic'></div></div>","null","4","Matthew","2","Shared","0.8,0.2","13","0.8","trustrating_stim/white_00577_940928_fa_edt.bmp","1.5","60","11"
"","","","decision","631b428359f449b8159625f8","bdp_trlrn","Wed Mar 15 2023 15:30:13 GMT-0400 (Eastern Daylight Time)","782763","Untrustworthy,Trustworthy","html-keyboard-response","171","477003","0.0-19.0-1.11","","1035","","<div class='trialDiv'><img src='trustrating_stim/white_mw089.bmp'><br><font class='baseline'><strong>Richard</strong><p>Choose number of points to send.</font><div class='respPicDiv'><img src='img/responseButtonOffersNo0L.png' class='respPic'></div></div>","5","4","Richard","4","Shared","0.8,0.35","11","0.8","trustrating_stim/white_mw089.bmp","4.5","65","12"
"","","","decisionFB","631b428359f449b8159625f8","bdp_trlrn","Wed Mar 15 2023 15:30:13 GMT-0400 (Eastern Daylight Time)","782763","Untrustworthy,Trustworthy","html-keyboard-response","172","477255","0.0-19.0-2.11","","null","","<div class='trialDiv'><img src='trustrating_stim/white_mw089.bmp'><br><font class='baseline'><strong>Richard</strong><p>Choose number of points to send.</font><div class='respPicDiv'><img src='img/responseButtonOffersNo0L5.png' class='respPic'></div></div>","null","4","Richard","4","Shared","0.8,0.35","11","0.8","trustrating_stim/white_mw089.bmp","4.5","60","12"
"","","","feedback","631b428359f449b8159625f8","bdp_trlrn","Wed Mar 15 2023 15:30:13 GMT-0400 (Eastern Daylight Time)","782763","Untrustworthy,Trustworthy","html-keyboard-response","173","478259","0.0-19.0-3.11","","null","","<div class='trialDiv'><img src='trustrating_stim/white_mw089.bmp'><br><font class='baseline'><strong>Richard</strong><p>Received: <strong>20</strong></font> &nbsp; &nbsp; &nbsp; &nbsp; &nbsp; &nbsp;<font class='posOutcome'>Shared back: <strong>10</strong></font></font><div class='respPicDiv'><img src='img/responseButtonOffersNo0_wht.png' class='respPic'></div></div>","null","4","Richard","4","Shared","0.8,0.35","11","0.8","trustrating_stim/white_mw089.bmp","4.5","70","12"
"","","","decision","631b428359f449b8159625f8","bdp_trlrn","Wed Mar 15 2023 15:30:13 GMT-0400 (Eastern Daylight Time)","782763","Untrustworthy,Trustworthy","html-keyboard-response","174","479189","0.0-19.0-1.12","","929","","<div class='trialDiv'><img src='trustrating_stim/white_00577_940928_fa_edt.bmp'><br><font class='baseline'><strong>Matthew</strong><p>Choose number of points to send.</font><div class='respPicDiv'><img src='img/responseButtonOffersNo0L.png' class='respPic'></div></div>","5","5","Matthew","2","Shared","0.8,0.2","13","0.8","trustrating_stim/white_00577_940928_fa_edt.bmp","1.5","75","13"
"","","","decisionFB","631b428359f449b8159625f8","bdp_trlrn","Wed Mar 15 2023 15:30:13 GMT-0400 (Eastern Daylight Time)","782763","Untrustworthy,Trustworthy","html-keyboard-response","175","479448","0.0-19.0-2.12","","null","","<div class='trialDiv'><img src='trustrating_stim/white_00577_940928_fa_edt.bmp'><br><font class='baseline'><strong>Matthew</strong><p>Choose number of points to send.</font><div class='respPicDiv'><img src='img/responseButtonOffersNo0L5.png' class='respPic'></div></div>","null","5","Matthew","2","Shared","0.8,0.2","13","0.8","trustrating_stim/white_00577_940928_fa_edt.bmp","1.5","70","13"
"","","","feedback","631b428359f449b8159625f8","bdp_trlrn","Wed Mar 15 2023 15:30:13 GMT-0400 (Eastern Daylight Time)","782763","Untrustworthy,Trustworthy","html-keyboard-response","176","480452","0.0-19.0-3.12","","null","","<div class='trialDiv'><img src='trustrating_stim/white_00577_940928_fa_edt.bmp'><br><font class='baseline'><strong>Matthew</strong><p>Received: <strong>20</strong></font> &nbsp; &nbsp; &nbsp; &nbsp; &nbsp; &nbsp;<font class='posOutcome'>Shared back: <strong>10</strong></font></font><div class='respPicDiv'><img src='img/responseButtonOffersNo0_wht.png' class='respPic'></div></div>","null","5","Matthew","2","Shared","0.8,0.2","13","0.8","trustrating_stim/white_00577_940928_fa_edt.bmp","1.5","80","13"
"","","","decision","631b428359f449b8159625f8","bdp_trlrn","Wed Mar 15 2023 15:30:13 GMT-0400 (Eastern Daylight Time)","782763","Untrustworthy,Trustworthy","html-keyboard-response","177","481546","0.0-19.0-1.13","","1093","","<div class='trialDiv'><img src='trustrating_stim/white_mw089.bmp'><br><font class='baseline'><strong>Richard</strong><p>Choose number of points to send.</font><div class='respPicDiv'><img src='img/responseButtonOffersNo0L.png' class='respPic'></div></div>","5","5","Richard","4","Shared","0.8,0.35","11","0.8","trustrating_stim/white_mw089.bmp","4.5","85","14"
"","","","decisionFB","631b428359f449b8159625f8","bdp_trlrn","Wed Mar 15 2023 15:30:13 GMT-0400 (Eastern Daylight Time)","782763","Untrustworthy,Trustworthy","html-keyboard-response","178","481803","0.0-19.0-2.13","","null","","<div class='trialDiv'><img src='trustrating_stim/white_mw089.bmp'><br><font class='baseline'><strong>Richard</strong><p>Choose number of points to send.</font><div class='respPicDiv'><img src='img/responseButtonOffersNo0L5.png' class='respPic'></div></div>","null","5","Richard","4","Shared","0.8,0.35","11","0.8","trustrating_stim/white_mw089.bmp","4.5","80","14"
"","","","feedback","631b428359f449b8159625f8","bdp_trlrn","Wed Mar 15 2023 15:30:13 GMT-0400 (Eastern Daylight Time)","782763","Untrustworthy,Trustworthy","html-keyboard-response","179","482806","0.0-19.0-3.13","","null","","<div class='trialDiv'><img src='trustrating_stim/white_mw089.bmp'><br><font class='baseline'><strong>Richard</strong><p>Received: <strong>20</strong></font> &nbsp; &nbsp; &nbsp; &nbsp; &nbsp; &nbsp;<font class='posOutcome'>Shared back: <strong>10</strong></font></font><div class='respPicDiv'><img src='img/responseButtonOffersNo0_wht.png' class='respPic'></div></div>","null","5","Richard","4","Shared","0.8,0.35","11","0.8","trustrating_stim/white_mw089.bmp","4.5","90","14"
"","","","decision","631b428359f449b8159625f8","bdp_trlrn","Wed Mar 15 2023 15:30:13 GMT-0400 (Eastern Daylight Time)","782763","Untrustworthy,Trustworthy","html-keyboard-response","180","483744","0.0-19.0-1.14","","936","","<div class='trialDiv'><img src='trustrating_stim/white_00761_941201_fb_edt.bmp'><br><font class='baseline'><strong>Jacob</strong><p>Choose number of points to send.</font><div class='respPicDiv'><img src='img/responseButtonOffersNo0L.png' class='respPic'></div></div>","5","5","Jacob","11","Kept","0.2,0.65","10","0.2","trustrating_stim/white_00761_941201_fb_edt.bmp","8","95","15"
"","","","decisionFB","631b428359f449b8159625f8","bdp_trlrn","Wed Mar 15 2023 15:30:13 GMT-0400 (Eastern Daylight Time)","782763","Untrustworthy,Trustworthy","html-keyboard-response","181","484011","0.0-19.0-2.14","","null","","<div class='trialDiv'><img src='trustrating_stim/white_00761_941201_fb_edt.bmp'><br><font class='baseline'><strong>Jacob</strong><p>Choose number of points to send.</font><div class='respPicDiv'><img src='img/responseButtonOffersNo0L5.png' class='respPic'></div></div>","null","5","Jacob","11","Kept","0.2,0.65","10","0.2","trustrating_stim/white_00761_941201_fb_edt.bmp","8","90","15"
"","","","feedback","631b428359f449b8159625f8","bdp_trlrn","Wed Mar 15 2023 15:30:13 GMT-0400 (Eastern Daylight Time)","782763","Untrustworthy,Trustworthy","html-keyboard-response","182","485014","0.0-19.0-3.14","","null","","<div class='trialDiv'><img src='trustrating_stim/white_00761_941201_fb_edt.bmp'><br><font class='baseline'><strong>Jacob</strong><p>Received: <strong>20</strong></font> &nbsp; &nbsp; &nbsp; &nbsp; &nbsp; &nbsp;<font class='negOutcome'>Shared back: <strong>0</strong></font></font><div class='respPicDiv'><img src='img/responseButtonOffersNo0_wht.png' class='respPic'></div></div>","null","5","Jacob","11","Kept","0.2,0.65","10","0.2","trustrating_stim/white_00761_941201_fb_edt.bmp","8","90","15"
"","","","decision","631b428359f449b8159625f8","bdp_trlrn","Wed Mar 15 2023 15:30:13 GMT-0400 (Eastern Daylight Time)","782763","Untrustworthy,Trustworthy","html-keyboard-response","183","485711","0.0-19.0-1.15","","694","","<div class='trialDiv'><img src='trustrating_stim/white_mw089.bmp'><br><font class='baseline'><strong>Richard</strong><p>Choose number of points to send.</font><div class='respPicDiv'><img src='img/responseButtonOffersNo0L.png' class='respPic'></div></div>","5","6","Richard","4","Shared","0.8,0.35","11","0.8","trustrating_stim/white_mw089.bmp","4.5","95","16"
"","","","decisionFB","631b428359f449b8159625f8","bdp_trlrn","Wed Mar 15 2023 15:30:13 GMT-0400 (Eastern Daylight Time)","782763","Untrustworthy,Trustworthy","html-keyboard-response","184","485971","0.0-19.0-2.15","","null","","<div class='trialDiv'><img src='trustrating_stim/white_mw089.bmp'><br><font class='baseline'><strong>Richard</strong><p>Choose number of points to send.</font><div class='respPicDiv'><img src='img/responseButtonOffersNo0L5.png' class='respPic'></div></div>","null","6","Richard","4","Shared","0.8,0.35","11","0.8","trustrating_stim/white_mw089.bmp","4.5","90","16"
"","","","feedback","631b428359f449b8159625f8","bdp_trlrn","Wed Mar 15 2023 15:30:13 GMT-0400 (Eastern Daylight Time)","782763","Untrustworthy,Trustworthy","html-keyboard-response","185","486975","0.0-19.0-3.15","","null","","<div class='trialDiv'><img src='trustrating_stim/white_mw089.bmp'><br><font class='baseline'><strong>Richard</strong><p>Received: <strong>20</strong></font> &nbsp; &nbsp; &nbsp; &nbsp; &nbsp; &nbsp;<font class='posOutcome'>Shared back: <strong>10</strong></font></font><div class='respPicDiv'><img src='img/responseButtonOffersNo0_wht.png' class='respPic'></div></div>","null","6","Richard","4","Shared","0.8,0.35","11","0.8","trustrating_stim/white_mw089.bmp","4.5","100","16"
"","","","decision","631b428359f449b8159625f8","bdp_trlrn","Wed Mar 15 2023 15:30:13 GMT-0400 (Eastern Daylight Time)","782763","Untrustworthy,Trustworthy","html-keyboard-response","186","487512","0.0-19.0-1.16","","536","","<div class='trialDiv'><img src='trustrating_stim/white_00577_940928_fa_edt.bmp'><br><font class='baseline'><strong>Matthew</strong><p>Choose number of points to send.</font><div class='respPicDiv'><img src='img/responseButtonOffersNo0L.png' class='respPic'></div></div>","5","6","Matthew","2","Shared","0.8,0.2","13","0.8","trustrating_stim/white_00577_940928_fa_edt.bmp","1.5","105","17"
"","","","decisionFB","631b428359f449b8159625f8","bdp_trlrn","Wed Mar 15 2023 15:30:13 GMT-0400 (Eastern Daylight Time)","782763","Untrustworthy,Trustworthy","html-keyboard-response","187","487778","0.0-19.0-2.16","","null","","<div class='trialDiv'><img src='trustrating_stim/white_00577_940928_fa_edt.bmp'><br><font class='baseline'><strong>Matthew</strong><p>Choose number of points to send.</font><div class='respPicDiv'><img src='img/responseButtonOffersNo0L5.png' class='respPic'></div></div>","null","6","Matthew","2","Shared","0.8,0.2","13","0.8","trustrating_stim/white_00577_940928_fa_edt.bmp","1.5","100","17"
"","","","feedback","631b428359f449b8159625f8","bdp_trlrn","Wed Mar 15 2023 15:30:13 GMT-0400 (Eastern Daylight Time)","782763","Untrustworthy,Trustworthy","html-keyboard-response","188","488781","0.0-19.0-3.16","","null","","<div class='trialDiv'><img src='trustrating_stim/white_00577_940928_fa_edt.bmp'><br><font class='baseline'><strong>Matthew</strong><p>Received: <strong>20</strong></font> &nbsp; &nbsp; &nbsp; &nbsp; &nbsp; &nbsp;<font class='posOutcome'>Shared back: <strong>10</strong></font></font><div class='respPicDiv'><img src='img/responseButtonOffersNo0_wht.png' class='respPic'></div></div>","null","6","Matthew","2","Shared","0.8,0.2","13","0.8","trustrating_stim/white_00577_940928_fa_edt.bmp","1.5","110","17"
"","","","decision","631b428359f449b8159625f8","bdp_trlrn","Wed Mar 15 2023 15:30:13 GMT-0400 (Eastern Daylight Time)","782763","Untrustworthy,Trustworthy","html-keyboard-response","189","489582","0.0-19.0-1.17","","799","","<div class='trialDiv'><img src='trustrating_stim/white_00761_941201_fb_edt.bmp'><br><font class='baseline'><strong>Jacob</strong><p>Choose number of points to send.</font><div class='respPicDiv'><img src='img/responseButtonOffersNo0L.png' class='respPic'></div></div>","5","6","Jacob","11","Kept","0.2,0.65","10","0.2","trustrating_stim/white_00761_941201_fb_edt.bmp","8","115","18"
"","","","decisionFB","631b428359f449b8159625f8","bdp_trlrn","Wed Mar 15 2023 15:30:13 GMT-0400 (Eastern Daylight Time)","782763","Untrustworthy,Trustworthy","html-keyboard-response","190","489848","0.0-19.0-2.17","","null","","<div class='trialDiv'><img src='trustrating_stim/white_00761_941201_fb_edt.bmp'><br><font class='baseline'><strong>Jacob</strong><p>Choose number of points to send.</font><div class='respPicDiv'><img src='img/responseButtonOffersNo0L5.png' class='respPic'></div></div>","null","6","Jacob","11","Kept","0.2,0.65","10","0.2","trustrating_stim/white_00761_941201_fb_edt.bmp","8","110","18"
"","","","feedback","631b428359f449b8159625f8","bdp_trlrn","Wed Mar 15 2023 15:30:13 GMT-0400 (Eastern Daylight Time)","782763","Untrustworthy,Trustworthy","html-keyboard-response","191","490852","0.0-19.0-3.17","","null","","<div class='trialDiv'><img src='trustrating_stim/white_00761_941201_fb_edt.bmp'><br><font class='baseline'><strong>Jacob</strong><p>Received: <strong>20</strong></font> &nbsp; &nbsp; &nbsp; &nbsp; &nbsp; &nbsp;<font class='negOutcome'>Shared back: <strong>0</strong></font></font><div class='respPicDiv'><img src='img/responseButtonOffersNo0_wht.png' class='respPic'></div></div>","null","6","Jacob","11","Kept","0.2,0.65","10","0.2","trustrating_stim/white_00761_941201_fb_edt.bmp","8","110","18"
"","","","decision","631b428359f449b8159625f8","bdp_trlrn","Wed Mar 15 2023 15:30:13 GMT-0400 (Eastern Daylight Time)","782763","Untrustworthy,Trustworthy","html-keyboard-response","192","491570","0.0-19.0-1.18","","716","","<div class='trialDiv'><img src='trustrating_stim/white_mw089.bmp'><br><font class='baseline'><strong>Richard</strong><p>Choose number of points to send.</font><div class='respPicDiv'><img src='img/responseButtonOffersNo0L.png' class='respPic'></div></div>","5","7","Richard","4","Shared","0.8,0.35","11","0.8","trustrating_stim/white_mw089.bmp","4.5","115","19"
"","","","decisionFB","631b428359f449b8159625f8","bdp_trlrn","Wed Mar 15 2023 15:30:13 GMT-0400 (Eastern Daylight Time)","782763","Untrustworthy,Trustworthy","html-keyboard-response","193","491824","0.0-19.0-2.18","","null","","<div class='trialDiv'><img src='trustrating_stim/white_mw089.bmp'><br><font class='baseline'><strong>Richard</strong><p>Choose number of points to send.</font><div class='respPicDiv'><img src='img/responseButtonOffersNo0L5.png' class='respPic'></div></div>","null","7","Richard","4","Shared","0.8,0.35","11","0.8","trustrating_stim/white_mw089.bmp","4.5","110","19"
"","","","feedback","631b428359f449b8159625f8","bdp_trlrn","Wed Mar 15 2023 15:30:13 GMT-0400 (Eastern Daylight Time)","782763","Untrustworthy,Trustworthy","html-keyboard-response","194","492828","0.0-19.0-3.18","","null","","<div class='trialDiv'><img src='trustrating_stim/white_mw089.bmp'><br><font class='baseline'><strong>Richard</strong><p>Received: <strong>20</strong></font> &nbsp; &nbsp; &nbsp; &nbsp; &nbsp; &nbsp;<font class='posOutcome'>Shared back: <strong>10</strong></font></font><div class='respPicDiv'><img src='img/responseButtonOffersNo0_wht.png' class='respPic'></div></div>","null","7","Richard","4","Shared","0.8,0.35","11","0.8","trustrating_stim/white_mw089.bmp","4.5","120","19"
"","","","decision","631b428359f449b8159625f8","bdp_trlrn","Wed Mar 15 2023 15:30:13 GMT-0400 (Eastern Daylight Time)","782763","Untrustworthy,Trustworthy","html-keyboard-response","195","495946","0.0-19.0-1.19","","3116","","<div class='trialDiv'><img src='trustrating_stim/white_00761_941201_fb_edt.bmp'><br><font class='baseline'><strong>Jacob</strong><p>Choose number of points to send.</font><div class='respPicDiv'><img src='img/responseButtonOffersNo0L.png' class='respPic'></div></div>","1","7","Jacob","11","Kept","0.2,0.65","10","0.2","trustrating_stim/white_00761_941201_fb_edt.bmp","8","125","20"
"","","","decisionFB","631b428359f449b8159625f8","bdp_trlrn","Wed Mar 15 2023 15:30:13 GMT-0400 (Eastern Daylight Time)","782763","Untrustworthy,Trustworthy","html-keyboard-response","196","496209","0.0-19.0-2.19","","null","","<div class='trialDiv'><img src='trustrating_stim/white_00761_941201_fb_edt.bmp'><br><font class='baseline'><strong>Jacob</strong><p>Choose number of points to send.</font><div class='respPicDiv'><img src='img/responseButtonOffersNo0L1.png' class='respPic'></div></div>","null","7","Jacob","11","Kept","0.2,0.65","10","0.2","trustrating_stim/white_00761_941201_fb_edt.bmp","8","124","20"
"","","","feedback","631b428359f449b8159625f8","bdp_trlrn","Wed Mar 15 2023 15:30:13 GMT-0400 (Eastern Daylight Time)","782763","Untrustworthy,Trustworthy","html-keyboard-response","197","497213","0.0-19.0-3.19","","null","","<div class='trialDiv'><img src='trustrating_stim/white_00761_941201_fb_edt.bmp'><br><font class='baseline'><strong>Jacob</strong><p>Received: <strong>4</strong></font> &nbsp; &nbsp; &nbsp; &nbsp; &nbsp; &nbsp;<font class='negOutcome'>Shared back: <strong>0</strong></font></font><div class='respPicDiv'><img src='img/responseButtonOffersNo0_wht.png' class='respPic'></div></div>","null","7","Jacob","11","Kept","0.2,0.65","10","0.2","trustrating_stim/white_00761_941201_fb_edt.bmp","8","124","20"
"","","","decision","631b428359f449b8159625f8","bdp_trlrn","Wed Mar 15 2023 15:30:13 GMT-0400 (Eastern Daylight Time)","782763","Untrustworthy,Trustworthy","html-keyboard-response","198","499941","0.0-19.0-1.20","","2727","","<div class='trialDiv'><img src='trustrating_stim/white_00577_940928_fa_edt.bmp'><br><font class='baseline'><strong>Matthew</strong><p>Choose number of points to send.</font><div class='respPicDiv'><img src='img/responseButtonOffersNo0L.png' class='respPic'></div></div>","5","7","Matthew","2","Shared","0.8,0.2","13","0.8","trustrating_stim/white_00577_940928_fa_edt.bmp","1.5","129","21"
"","","","decisionFB","631b428359f449b8159625f8","bdp_trlrn","Wed Mar 15 2023 15:30:13 GMT-0400 (Eastern Daylight Time)","782763","Untrustworthy,Trustworthy","html-keyboard-response","199","500203","0.0-19.0-2.20","","null","","<div class='trialDiv'><img src='trustrating_stim/white_00577_940928_fa_edt.bmp'><br><font class='baseline'><strong>Matthew</strong><p>Choose number of points to send.</font><div class='respPicDiv'><img src='img/responseButtonOffersNo0L5.png' class='respPic'></div></div>","null","7","Matthew","2","Shared","0.8,0.2","13","0.8","trustrating_stim/white_00577_940928_fa_edt.bmp","1.5","124","21"
"","","","feedback","631b428359f449b8159625f8","bdp_trlrn","Wed Mar 15 2023 15:30:13 GMT-0400 (Eastern Daylight Time)","782763","Untrustworthy,Trustworthy","html-keyboard-response","200","501206","0.0-19.0-3.20","","null","","<div class='trialDiv'><img src='trustrating_stim/white_00577_940928_fa_edt.bmp'><br><font class='baseline'><strong>Matthew</strong><p>Received: <strong>20</strong></font> &nbsp; &nbsp; &nbsp; &nbsp; &nbsp; &nbsp;<font class='posOutcome'>Shared back: <strong>10</strong></font></font><div class='respPicDiv'><img src='img/responseButtonOffersNo0_wht.png' class='respPic'></div></div>","null","7","Matthew","2","Shared","0.8,0.2","13","0.8","trustrating_stim/white_00577_940928_fa_edt.bmp","1.5","134","21"
"","","","decision","631b428359f449b8159625f8","bdp_trlrn","Wed Mar 15 2023 15:30:13 GMT-0400 (Eastern Daylight Time)","782763","Untrustworthy,Trustworthy","html-keyboard-response","201","504600","0.0-19.0-1.21","","3392","","<div class='trialDiv'><img src='trustrating_stim/white_00761_941201_fb_edt.bmp'><br><font class='baseline'><strong>Jacob</strong><p>Choose number of points to send.</font><div class='respPicDiv'><img src='img/responseButtonOffersNo0L.png' class='respPic'></div></div>","1","8","Jacob","11","Kept","0.2,0.65","10","0.2","trustrating_stim/white_00761_941201_fb_edt.bmp","8","139","22"
"","","","decisionFB","631b428359f449b8159625f8","bdp_trlrn","Wed Mar 15 2023 15:30:13 GMT-0400 (Eastern Daylight Time)","782763","Untrustworthy,Trustworthy","html-keyboard-response","202","504857","0.0-19.0-2.21","","null","","<div class='trialDiv'><img src='trustrating_stim/white_00761_941201_fb_edt.bmp'><br><font class='baseline'><strong>Jacob</strong><p>Choose number of points to send.</font><div class='respPicDiv'><img src='img/responseButtonOffersNo0L1.png' class='respPic'></div></div>","null","8","Jacob","11","Kept","0.2,0.65","10","0.2","trustrating_stim/white_00761_941201_fb_edt.bmp","8","138","22"
"","","","feedback","631b428359f449b8159625f8","bdp_trlrn","Wed Mar 15 2023 15:30:13 GMT-0400 (Eastern Daylight Time)","782763","Untrustworthy,Trustworthy","html-keyboard-response","203","505861","0.0-19.0-3.21","","null","","<div class='trialDiv'><img src='trustrating_stim/white_00761_941201_fb_edt.bmp'><br><font class='baseline'><strong>Jacob</strong><p>Received: <strong>4</strong></font> &nbsp; &nbsp; &nbsp; &nbsp; &nbsp; &nbsp;<font class='negOutcome'>Shared back: <strong>0</strong></font></font><div class='respPicDiv'><img src='img/responseButtonOffersNo0_wht.png' class='respPic'></div></div>","null","8","Jacob","11","Kept","0.2,0.65","10","0.2","trustrating_stim/white_00761_941201_fb_edt.bmp","8","138","22"
"","","","decision","631b428359f449b8159625f8","bdp_trlrn","Wed Mar 15 2023 15:30:13 GMT-0400 (Eastern Daylight Time)","782763","Untrustworthy,Trustworthy","html-keyboard-response","204","508710","0.0-19.0-1.22","","2846","","<div class='trialDiv'><img src='trustrating_stim/white_00577_940928_fa_edt.bmp'><br><font class='baseline'><strong>Matthew</strong><p>Choose number of points to send.</font><div class='respPicDiv'><img src='img/responseButtonOffersNo0L.png' class='respPic'></div></div>","5","8","Matthew","2","Kept","0.8,0.2","13","0.8","trustrating_stim/white_00577_940928_fa_edt.bmp","1.5","143","23"
"","","","decisionFB","631b428359f449b8159625f8","bdp_trlrn","Wed Mar 15 2023 15:30:13 GMT-0400 (Eastern Daylight Time)","782763","Untrustworthy,Trustworthy","html-keyboard-response","205","508973","0.0-19.0-2.22","","null","","<div class='trialDiv'><img src='trustrating_stim/white_00577_940928_fa_edt.bmp'><br><font class='baseline'><strong>Matthew</strong><p>Choose number of points to send.</font><div class='respPicDiv'><img src='img/responseButtonOffersNo0L5.png' class='respPic'></div></div>","null","8","Matthew","2","Kept","0.8,0.2","13","0.8","trustrating_stim/white_00577_940928_fa_edt.bmp","1.5","138","23"
"","","","feedback","631b428359f449b8159625f8","bdp_trlrn","Wed Mar 15 2023 15:30:13 GMT-0400 (Eastern Daylight Time)","782763","Untrustworthy,Trustworthy","html-keyboard-response","206","509977","0.0-19.0-3.22","","null","","<div class='trialDiv'><img src='trustrating_stim/white_00577_940928_fa_edt.bmp'><br><font class='baseline'><strong>Matthew</strong><p>Received: <strong>20</strong></font> &nbsp; &nbsp; &nbsp; &nbsp; &nbsp; &nbsp;<font class='negOutcome'>Shared back: <strong>0</strong></font></font><div class='respPicDiv'><img src='img/responseButtonOffersNo0_wht.png' class='respPic'></div></div>","null","8","Matthew","2","Kept","0.8,0.2","13","0.8","trustrating_stim/white_00577_940928_fa_edt.bmp","1.5","138","23"
"","","","decision","631b428359f449b8159625f8","bdp_trlrn","Wed Mar 15 2023 15:30:13 GMT-0400 (Eastern Daylight Time)","782763","Untrustworthy,Trustworthy","html-keyboard-response","207","511035","0.0-19.0-1.23","","1056","","<div class='trialDiv'><img src='trustrating_stim/white_mw089.bmp'><br><font class='baseline'><strong>Richard</strong><p>Choose number of points to send.</font><div class='respPicDiv'><img src='img/responseButtonOffersNo0L.png' class='respPic'></div></div>","5","8","Richard","4","Shared","0.8,0.35","11","0.8","trustrating_stim/white_mw089.bmp","4.5","143","24"
"","","","decisionFB","631b428359f449b8159625f8","bdp_trlrn","Wed Mar 15 2023 15:30:13 GMT-0400 (Eastern Daylight Time)","782763","Untrustworthy,Trustworthy","html-keyboard-response","208","511298","0.0-19.0-2.23","","null","","<div class='trialDiv'><img src='trustrating_stim/white_mw089.bmp'><br><font class='baseline'><strong>Richard</strong><p>Choose number of points to send.</font><div class='respPicDiv'><img src='img/responseButtonOffersNo0L5.png' class='respPic'></div></div>","null","8","Richard","4","Shared","0.8,0.35","11","0.8","trustrating_stim/white_mw089.bmp","4.5","138","24"
"","","","feedback","631b428359f449b8159625f8","bdp_trlrn","Wed Mar 15 2023 15:30:13 GMT-0400 (Eastern Daylight Time)","782763","Untrustworthy,Trustworthy","html-keyboard-response","209","512302","0.0-19.0-3.23","","null","","<div class='trialDiv'><img src='trustrating_stim/white_mw089.bmp'><br><font class='baseline'><strong>Richard</strong><p>Received: <strong>20</strong></font> &nbsp; &nbsp; &nbsp; &nbsp; &nbsp; &nbsp;<font class='posOutcome'>Shared back: <strong>10</strong></font></font><div class='respPicDiv'><img src='img/responseButtonOffersNo0_wht.png' class='respPic'></div></div>","null","8","Richard","4","Shared","0.8,0.35","11","0.8","trustrating_stim/white_mw089.bmp","4.5","148","24"
"","","","decision","631b428359f449b8159625f8","bdp_trlrn","Wed Mar 15 2023 15:30:13 GMT-0400 (Eastern Daylight Time)","782763","Untrustworthy,Trustworthy","html-keyboard-response","210","513564","0.0-19.0-1.24","","1261","","<div class='trialDiv'><img src='trustrating_stim/white_00761_941201_fb_edt.bmp'><br><font class='baseline'><strong>Jacob</strong><p>Choose number of points to send.</font><div class='respPicDiv'><img src='img/responseButtonOffersNo0L.png' class='respPic'></div></div>","5","9","Jacob","11","Kept","0.2,0.65","10","0.2","trustrating_stim/white_00761_941201_fb_edt.bmp","8","153","25"
"","","","decisionFB","631b428359f449b8159625f8","bdp_trlrn","Wed Mar 15 2023 15:30:13 GMT-0400 (Eastern Daylight Time)","782763","Untrustworthy,Trustworthy","html-keyboard-response","211","513823","0.0-19.0-2.24","","null","","<div class='trialDiv'><img src='trustrating_stim/white_00761_941201_fb_edt.bmp'><br><font class='baseline'><strong>Jacob</strong><p>Choose number of points to send.</font><div class='respPicDiv'><img src='img/responseButtonOffersNo0L5.png' class='respPic'></div></div>","null","9","Jacob","11","Kept","0.2,0.65","10","0.2","trustrating_stim/white_00761_941201_fb_edt.bmp","8","148","25"
"","","","feedback","631b428359f449b8159625f8","bdp_trlrn","Wed Mar 15 2023 15:30:13 GMT-0400 (Eastern Daylight Time)","782763","Untrustworthy,Trustworthy","html-keyboard-response","212","514827","0.0-19.0-3.24","","null","","<div class='trialDiv'><img src='trustrating_stim/white_00761_941201_fb_edt.bmp'><br><font class='baseline'><strong>Jacob</strong><p>Received: <strong>20</strong></font> &nbsp; &nbsp; &nbsp; &nbsp; &nbsp; &nbsp;<font class='negOutcome'>Shared back: <strong>0</strong></font></font><div class='respPicDiv'><img src='img/responseButtonOffersNo0_wht.png' class='respPic'></div></div>","null","9","Jacob","11","Kept","0.2,0.65","10","0.2","trustrating_stim/white_00761_941201_fb_edt.bmp","8","148","25"
"","","","decision","631b428359f449b8159625f8","bdp_trlrn","Wed Mar 15 2023 15:30:13 GMT-0400 (Eastern Daylight Time)","782763","Untrustworthy,Trustworthy","html-keyboard-response","213","515388","0.0-19.0-1.25","","558","","<div class='trialDiv'><img src='trustrating_stim/white_mw089.bmp'><br><font class='baseline'><strong>Richard</strong><p>Choose number of points to send.</font><div class='respPicDiv'><img src='img/responseButtonOffersNo0L.png' class='respPic'></div></div>","5","9","Richard","4","Shared","0.8,0.35","11","0.8","trustrating_stim/white_mw089.bmp","4.5","153","26"
"","","","decisionFB","631b428359f449b8159625f8","bdp_trlrn","Wed Mar 15 2023 15:30:13 GMT-0400 (Eastern Daylight Time)","782763","Untrustworthy,Trustworthy","html-keyboard-response","214","515646","0.0-19.0-2.25","","null","","<div class='trialDiv'><img src='trustrating_stim/white_mw089.bmp'><br><font class='baseline'><strong>Richard</strong><p>Choose number of points to send.</font><div class='respPicDiv'><img src='img/responseButtonOffersNo0L5.png' class='respPic'></div></div>","null","9","Richard","4","Shared","0.8,0.35","11","0.8","trustrating_stim/white_mw089.bmp","4.5","148","26"
"","","","feedback","631b428359f449b8159625f8","bdp_trlrn","Wed Mar 15 2023 15:30:13 GMT-0400 (Eastern Daylight Time)","782763","Untrustworthy,Trustworthy","html-keyboard-response","215","516649","0.0-19.0-3.25","","null","","<div class='trialDiv'><img src='trustrating_stim/white_mw089.bmp'><br><font class='baseline'><strong>Richard</strong><p>Received: <strong>20</strong></font> &nbsp; &nbsp; &nbsp; &nbsp; &nbsp; &nbsp;<font class='posOutcome'>Shared back: <strong>10</strong></font></font><div class='respPicDiv'><img src='img/responseButtonOffersNo0_wht.png' class='respPic'></div></div>","null","9","Richard","4","Shared","0.8,0.35","11","0.8","trustrating_stim/white_mw089.bmp","4.5","158","26"
"","","","decision","631b428359f449b8159625f8","bdp_trlrn","Wed Mar 15 2023 15:30:13 GMT-0400 (Eastern Daylight Time)","782763","Untrustworthy,Trustworthy","html-keyboard-response","216","517553","0.0-19.0-1.26","","902","","<div class='trialDiv'><img src='trustrating_stim/white_00577_940928_fa_edt.bmp'><br><font class='baseline'><strong>Matthew</strong><p>Choose number of points to send.</font><div class='respPicDiv'><img src='img/responseButtonOffersNo0L.png' class='respPic'></div></div>","5","9","Matthew","2","Shared","0.8,0.2","13","0.8","trustrating_stim/white_00577_940928_fa_edt.bmp","1.5","163","27"
"","","","decisionFB","631b428359f449b8159625f8","bdp_trlrn","Wed Mar 15 2023 15:30:13 GMT-0400 (Eastern Daylight Time)","782763","Untrustworthy,Trustworthy","html-keyboard-response","217","517807","0.0-19.0-2.26","","null","","<div class='trialDiv'><img src='trustrating_stim/white_00577_940928_fa_edt.bmp'><br><font class='baseline'><strong>Matthew</strong><p>Choose number of points to send.</font><div class='respPicDiv'><img src='img/responseButtonOffersNo0L5.png' class='respPic'></div></div>","null","9","Matthew","2","Shared","0.8,0.2","13","0.8","trustrating_stim/white_00577_940928_fa_edt.bmp","1.5","158","27"
"","","","feedback","631b428359f449b8159625f8","bdp_trlrn","Wed Mar 15 2023 15:30:13 GMT-0400 (Eastern Daylight Time)","782763","Untrustworthy,Trustworthy","html-keyboard-response","218","518811","0.0-19.0-3.26","","null","","<div class='trialDiv'><img src='trustrating_stim/white_00577_940928_fa_edt.bmp'><br><font class='baseline'><strong>Matthew</strong><p>Received: <strong>20</strong></font> &nbsp; &nbsp; &nbsp; &nbsp; &nbsp; &nbsp;<font class='posOutcome'>Shared back: <strong>10</strong></font></font><div class='respPicDiv'><img src='img/responseButtonOffersNo0_wht.png' class='respPic'></div></div>","null","9","Matthew","2","Shared","0.8,0.2","13","0.8","trustrating_stim/white_00577_940928_fa_edt.bmp","1.5","168","27"
"","","","decision","631b428359f449b8159625f8","bdp_trlrn","Wed Mar 15 2023 15:30:13 GMT-0400 (Eastern Daylight Time)","782763","Untrustworthy,Trustworthy","html-keyboard-response","219","519831","0.0-19.0-1.27","","1019","","<div class='trialDiv'><img src='trustrating_stim/white_mw089.bmp'><br><font class='baseline'><strong>Richard</strong><p>Choose number of points to send.</font><div class='respPicDiv'><img src='img/responseButtonOffersNo0L.png' class='respPic'></div></div>","5","10","Richard","4","Kept","0.8,0.35","11","0.8","trustrating_stim/white_mw089.bmp","4.5","173","28"
