"trial_type","trial_index","time_elapsed","internal_node_id","subject_id","task","startTime","totalTime","labels","view_history","rt","event","trial","time","trialtype","success","stimulus","key_press","aground","name","faceID","outcome","agenttype","agentswpt","agentcurrpshare","face","avgRating","point_total","round"
"pavlovia","0","6","0.0-0.0","62e097c92160176b0b9c2619","bdp_trlrn","Thu Jul 28 2022 00:45:53 GMT-0400 (Eastern Daylight Time)","718444","Untrustworthy,Trustworthy","","","","","","","","","","","","","","","","","","","",""
"instructions","1","4899","0.0-1.0","62e097c92160176b0b9c2619","bdp_trlrn","Thu Jul 28 2022 00:45:53 GMT-0400 (Eastern Daylight Time)","718444","Untrustworthy,Trustworthy","[{""page_index"":0,""viewing_time"":4891}]","4892","","","","","","","","","","","","","","","","","",""
"","","","","62e097c92160176b0b9c2619","bdp_trlrn","Thu Jul 28 2022 00:45:53 GMT-0400 (Eastern Daylight Time)","718444","Untrustworthy,Trustworthy","","","fullscreenenter","2","10435","fullscreenenter","","","","","","","","","","","","","",""
"fullscreen","2","11423","0.0-2.0","62e097c92160176b0b9c2619","bdp_trlrn","Thu Jul 28 2022 00:45:53 GMT-0400 (Eastern Daylight Time)","718444","Untrustworthy,Trustworthy","","","","","","","true","","","","","","","","","","","","",""
"instructions","3","41842","0.0-4.0","62e097c92160176b0b9c2619","bdp_trlrn","Thu Jul 28 2022 00:45:53 GMT-0400 (Eastern Daylight Time)","718444","Untrustworthy,Trustworthy","[{""page_index"":0,""viewing_time"":13780},{""page_index"":1,""viewing_time"":16637}]","30417","","","","","","","","","","","","","","","","","",""
"instructions","4","54848","0.0-5.0","62e097c92160176b0b9c2619","bdp_trlrn","Thu Jul 28 2022 00:45:53 GMT-0400 (Eastern Daylight Time)","718444","Untrustworthy,Trustworthy","[{""page_index"":0,""viewing_time"":13006}]","13006","","","","","","","","","","","","","","","","","",""
"image-keyboard-response","5","56265","0.0-6.0-1.0","62e097c92160176b0b9c2619","bdp_trlrn","Thu Jul 28 2022 00:45:53 GMT-0400 (Eastern Daylight Time)","718444","Untrustworthy,Trustworthy","","1314","","","","rating","","trustrating_stim/white_00761_941201_fb_edt.bmp","3","","","","","","","","","","",""
"image-keyboard-response","6","56467","0.0-6.0-2.0","62e097c92160176b0b9c2619","bdp_trlrn","Thu Jul 28 2022 00:45:53 GMT-0400 (Eastern Daylight Time)","718444","Untrustworthy,Trustworthy","","null","","","","ratingFB","","trustrating_stim/white_00761_941201_fb_edt.bmp","null","","","","","","","","","","",""
"image-keyboard-response","7","60374","0.0-6.0-1.1","62e097c92160176b0b9c2619","bdp_trlrn","Thu Jul 28 2022 00:45:53 GMT-0400 (Eastern Daylight Time)","718444","Untrustworthy,Trustworthy","","3805","","","","rating","","trustrating_stim/white_mw053.bmp","7","","","","","","","","","","",""
"image-keyboard-response","8","60576","0.0-6.0-2.1","62e097c92160176b0b9c2619","bdp_trlrn","Thu Jul 28 2022 00:45:53 GMT-0400 (Eastern Daylight Time)","718444","Untrustworthy,Trustworthy","","null","","","","ratingFB","","trustrating_stim/white_mw053.bmp","null","","","","","","","","","","",""
"image-keyboard-response","9","61982","0.0-6.0-1.2","62e097c92160176b0b9c2619","bdp_trlrn","Thu Jul 28 2022 00:45:53 GMT-0400 (Eastern Daylight Time)","718444","Untrustworthy,Trustworthy","","1303","","","","rating","","trustrating_stim/white_00519_940519_fb_edt.bmp","8","","","","","","","","","","",""
"image-keyboard-response","10","62183","0.0-6.0-2.2","62e097c92160176b0b9c2619","bdp_trlrn","Thu Jul 28 2022 00:45:53 GMT-0400 (Eastern Daylight Time)","718444","Untrustworthy,Trustworthy","","null","","","","ratingFB","","trustrating_stim/white_00519_940519_fb_edt.bmp","null","","","","","","","","","","",""
"image-keyboard-response","11","64808","0.0-6.0-1.3","62e097c92160176b0b9c2619","bdp_trlrn","Thu Jul 28 2022 00:45:53 GMT-0400 (Eastern Daylight Time)","718444","Untrustworthy,Trustworthy","","2523","","","","rating","","trustrating_stim/white_00602_940928_fb_edt.bmp","9","","","","","","","","","","",""
"image-keyboard-response","12","65012","0.0-6.0-2.3","62e097c92160176b0b9c2619","bdp_trlrn","Thu Jul 28 2022 00:45:53 GMT-0400 (Eastern Daylight Time)","718444","Untrustworthy,Trustworthy","","null","","","","ratingFB","","trustrating_stim/white_00602_940928_fb_edt.bmp","null","","","","","","","","","","",""
"image-keyboard-response","13","67519","0.0-6.0-1.4","62e097c92160176b0b9c2619","bdp_trlrn","Thu Jul 28 2022 00:45:53 GMT-0400 (Eastern Daylight Time)","718444","Untrustworthy,Trustworthy","","2404","","","","rating","","trustrating_stim/white_mw060.bmp","2","","","","","","","","","","",""
"image-keyboard-response","14","67721","0.0-6.0-2.4","62e097c92160176b0b9c2619","bdp_trlrn","Thu Jul 28 2022 00:45:53 GMT-0400 (Eastern Daylight Time)","718444","Untrustworthy,Trustworthy","","null","","","","ratingFB","","trustrating_stim/white_mw060.bmp","null","","","","","","","","","","",""
"image-keyboard-response","15","69878","0.0-6.0-1.5","62e097c92160176b0b9c2619","bdp_trlrn","Thu Jul 28 2022 00:45:53 GMT-0400 (Eastern Daylight Time)","718444","Untrustworthy,Trustworthy","","2056","","","","rating","","trustrating_stim/white_mw046.bmp","5","","","","","","","","","","",""
"image-keyboard-response","16","70079","0.0-6.0-2.5","62e097c92160176b0b9c2619","bdp_trlrn","Thu Jul 28 2022 00:45:53 GMT-0400 (Eastern Daylight Time)","718444","Untrustworthy,Trustworthy","","null","","","","ratingFB","","trustrating_stim/white_mw046.bmp","null","","","","","","","","","","",""
"image-keyboard-response","17","72898","0.0-6.0-1.6","62e097c92160176b0b9c2619","bdp_trlrn","Thu Jul 28 2022 00:45:53 GMT-0400 (Eastern Daylight Time)","718444","Untrustworthy,Trustworthy","","2717","","","","rating","","trustrating_stim/white_mw033.bmp","6","","","","","","","","","","",""
"image-keyboard-response","18","73100","0.0-6.0-2.6","62e097c92160176b0b9c2619","bdp_trlrn","Thu Jul 28 2022 00:45:53 GMT-0400 (Eastern Daylight Time)","718444","Untrustworthy,Trustworthy","","null","","","","ratingFB","","trustrating_stim/white_mw033.bmp","null","","","","","","","","","","",""
"image-keyboard-response","19","74893","0.0-6.0-1.7","62e097c92160176b0b9c2619","bdp_trlrn","Thu Jul 28 2022 00:45:53 GMT-0400 (Eastern Daylight Time)","718444","Untrustworthy,Trustworthy","","1691","","","","rating","","trustrating_stim/white_00340_940422_fa_edt.bmp","3","","","","","","","","","","",""
"image-keyboard-response","20","75094","0.0-6.0-2.7","62e097c92160176b0b9c2619","bdp_trlrn","Thu Jul 28 2022 00:45:53 GMT-0400 (Eastern Daylight Time)","718444","Untrustworthy,Trustworthy","","null","","","","ratingFB","","trustrating_stim/white_00340_940422_fa_edt.bmp","null","","","","","","","","","","",""
"image-keyboard-response","21","77466","0.0-6.0-1.8","62e097c92160176b0b9c2619","bdp_trlrn","Thu Jul 28 2022 00:45:53 GMT-0400 (Eastern Daylight Time)","718444","Untrustworthy,Trustworthy","","2270","","","","rating","","trustrating_stim/white_mw099.bmp","4","","","","","","","","","","",""
"image-keyboard-response","22","77668","0.0-6.0-2.8","62e097c92160176b0b9c2619","bdp_trlrn","Thu Jul 28 2022 00:45:53 GMT-0400 (Eastern Daylight Time)","718444","Untrustworthy,Trustworthy","","null","","","","ratingFB","","trustrating_stim/white_mw099.bmp","null","","","","","","","","","","",""
"image-keyboard-response","23","80518","0.0-6.0-1.9","62e097c92160176b0b9c2619","bdp_trlrn","Thu Jul 28 2022 00:45:53 GMT-0400 (Eastern Daylight Time)","718444","Untrustworthy,Trustworthy","","2749","","","","rating","","trustrating_stim/white_mw035.bmp","7","","","","","","","","","","",""
"image-keyboard-response","24","80720","0.0-6.0-2.9","62e097c92160176b0b9c2619","bdp_trlrn","Thu Jul 28 2022 00:45:53 GMT-0400 (Eastern Daylight Time)","718444","Untrustworthy,Trustworthy","","null","","","","ratingFB","","trustrating_stim/white_mw035.bmp","null","","","","","","","","","","",""
"image-keyboard-response","25","82678","0.0-6.0-1.10","62e097c92160176b0b9c2619","bdp_trlrn","Thu Jul 28 2022 00:45:53 GMT-0400 (Eastern Daylight Time)","718444","Untrustworthy,Trustworthy","","1856","","","","rating","","trustrating_stim/white_00577_940928_fa_edt.bmp","5","","","","","","","","","","",""
"image-keyboard-response","26","82879","0.0-6.0-2.10","62e097c92160176b0b9c2619","bdp_trlrn","Thu Jul 28 2022 00:45:53 GMT-0400 (Eastern Daylight Time)","718444","Untrustworthy,Trustworthy","","null","","","","ratingFB","","trustrating_stim/white_00577_940928_fa_edt.bmp","null","","","","","","","","","","",""
"image-keyboard-response","27","85171","0.0-6.0-1.11","62e097c92160176b0b9c2619","bdp_trlrn","Thu Jul 28 2022 00:45:53 GMT-0400 (Eastern Daylight Time)","718444","Untrustworthy,Trustworthy","","2180","","","","rating","","trustrating_stim/white_mw097.bmp","1","","","","","","","","","","",""
"image-keyboard-response","28","85372","0.0-6.0-2.11","62e097c92160176b0b9c2619","bdp_trlrn","Thu Jul 28 2022 00:45:53 GMT-0400 (Eastern Daylight Time)","718444","Untrustworthy,Trustworthy","","null","","","","ratingFB","","trustrating_stim/white_mw097.bmp","null","","","","","","","","","","",""
"image-keyboard-response","29","87728","0.0-6.0-1.12","62e097c92160176b0b9c2619","bdp_trlrn","Thu Jul 28 2022 00:45:53 GMT-0400 (Eastern Daylight Time)","718444","Untrustworthy,Trustworthy","","2254","","","","rating","","trustrating_stim/white_00898_960530_fa_edt.bmp","7","","","","","","","","","","",""
"image-keyboard-response","30","87930","0.0-6.0-2.12","62e097c92160176b0b9c2619","bdp_trlrn","Thu Jul 28 2022 00:45:53 GMT-0400 (Eastern Daylight Time)","718444","Untrustworthy,Trustworthy","","null","","","","ratingFB","","trustrating_stim/white_00898_960530_fa_edt.bmp","null","","","","","","","","","","",""
"image-keyboard-response","31","91182","0.0-6.0-1.13","62e097c92160176b0b9c2619","bdp_trlrn","Thu Jul 28 2022 00:45:53 GMT-0400 (Eastern Daylight Time)","718444","Untrustworthy,Trustworthy","","3151","","","","rating","","trustrating_stim/white_mw056.bmp","2","","","","","","","","","","",""
"image-keyboard-response","32","91383","0.0-6.0-2.13","62e097c92160176b0b9c2619","bdp_trlrn","Thu Jul 28 2022 00:45:53 GMT-0400 (Eastern Daylight Time)","718444","Untrustworthy,Trustworthy","","null","","","","ratingFB","","trustrating_stim/white_mw056.bmp","null","","","","","","","","","","",""
"image-keyboard-response","33","94967","0.0-6.0-1.14","62e097c92160176b0b9c2619","bdp_trlrn","Thu Jul 28 2022 00:45:53 GMT-0400 (Eastern Daylight Time)","718444","Untrustworthy,Trustworthy","","3483","","","","rating","","trustrating_stim/white_00129_931230_fb_edt.bmp","9","","","","","","","","","","",""
"image-keyboard-response","34","95168","0.0-6.0-2.14","62e097c92160176b0b9c2619","bdp_trlrn","Thu Jul 28 2022 00:45:53 GMT-0400 (Eastern Daylight Time)","718444","Untrustworthy,Trustworthy","","null","","","","ratingFB","","trustrating_stim/white_00129_931230_fb_edt.bmp","null","","","","","","","","","","",""
"image-keyboard-response","35","96716","0.0-6.0-1.15","62e097c92160176b0b9c2619","bdp_trlrn","Thu Jul 28 2022 00:45:53 GMT-0400 (Eastern Daylight Time)","718444","Untrustworthy,Trustworthy","","1446","","","","rating","","trustrating_stim/white_mw049.bmp","8","","","","","","","","","","",""
"image-keyboard-response","36","96918","0.0-6.0-2.15","62e097c92160176b0b9c2619","bdp_trlrn","Thu Jul 28 2022 00:45:53 GMT-0400 (Eastern Daylight Time)","718444","Untrustworthy,Trustworthy","","null","","","","ratingFB","","trustrating_stim/white_mw049.bmp","null","","","","","","","","","","",""
"image-keyboard-response","37","98881","0.0-6.0-1.16","62e097c92160176b0b9c2619","bdp_trlrn","Thu Jul 28 2022 00:45:53 GMT-0400 (Eastern Daylight Time)","718444","Untrustworthy,Trustworthy","","1860","","","","rating","","trustrating_stim/white_mw066.bmp","6","","","","","","","","","","",""
"image-keyboard-response","38","99083","0.0-6.0-2.16","62e097c92160176b0b9c2619","bdp_trlrn","Thu Jul 28 2022 00:45:53 GMT-0400 (Eastern Daylight Time)","718444","Untrustworthy,Trustworthy","","null","","","","ratingFB","","trustrating_stim/white_mw066.bmp","null","","","","","","","","","","",""
"image-keyboard-response","39","100861","0.0-6.0-1.17","62e097c92160176b0b9c2619","bdp_trlrn","Thu Jul 28 2022 00:45:53 GMT-0400 (Eastern Daylight Time)","718444","Untrustworthy,Trustworthy","","1677","","","","rating","","trustrating_stim/white_00757_941201_fa_edt.bmp","4","","","","","","","","","","",""
"image-keyboard-response","40","101062","0.0-6.0-2.17","62e097c92160176b0b9c2619","bdp_trlrn","Thu Jul 28 2022 00:45:53 GMT-0400 (Eastern Daylight Time)","718444","Untrustworthy,Trustworthy","","null","","","","ratingFB","","trustrating_stim/white_00757_941201_fa_edt.bmp","null","","","","","","","","","","",""
"image-keyboard-response","41","103277","0.0-6.0-1.18","62e097c92160176b0b9c2619","bdp_trlrn","Thu Jul 28 2022 00:45:53 GMT-0400 (Eastern Daylight Time)","718444","Untrustworthy,Trustworthy","","2112","","","","rating","","trustrating_stim/white_mw048.bmp","2","","","","","","","","","","",""
"image-keyboard-response","42","103478","0.0-6.0-2.18","62e097c92160176b0b9c2619","bdp_trlrn","Thu Jul 28 2022 00:45:53 GMT-0400 (Eastern Daylight Time)","718444","Untrustworthy,Trustworthy","","null","","","","ratingFB","","trustrating_stim/white_mw048.bmp","null","","","","","","","","","","",""
"image-keyboard-response","43","105586","0.0-6.0-1.19","62e097c92160176b0b9c2619","bdp_trlrn","Thu Jul 28 2022 00:45:53 GMT-0400 (Eastern Daylight Time)","718444","Untrustworthy,Trustworthy","","2007","","","","rating","","trustrating_stim/white_00807_941205_fb_edt.bmp","1","","","","","","","","","","",""
"image-keyboard-response","44","105787","0.0-6.0-2.19","62e097c92160176b0b9c2619","bdp_trlrn","Thu Jul 28 2022 00:45:53 GMT-0400 (Eastern Daylight Time)","718444","Untrustworthy,Trustworthy","","null","","","","ratingFB","","trustrating_stim/white_00807_941205_fb_edt.bmp","null","","","","","","","","","","",""
"image-keyboard-response","45","107513","0.0-6.0-1.20","62e097c92160176b0b9c2619","bdp_trlrn","Thu Jul 28 2022 00:45:53 GMT-0400 (Eastern Daylight Time)","718444","Untrustworthy,Trustworthy","","1624","","","","rating","","trustrating_stim/white_mw063.bmp","3","","","","","","","","","","",""
"image-keyboard-response","46","107715","0.0-6.0-2.20","62e097c92160176b0b9c2619","bdp_trlrn","Thu Jul 28 2022 00:45:53 GMT-0400 (Eastern Daylight Time)","718444","Untrustworthy,Trustworthy","","null","","","","ratingFB","","trustrating_stim/white_mw063.bmp","null","","","","","","","","","","",""
"image-keyboard-response","47","109505","0.0-6.0-1.21","62e097c92160176b0b9c2619","bdp_trlrn","Thu Jul 28 2022 00:45:53 GMT-0400 (Eastern Daylight Time)","718444","Untrustworthy,Trustworthy","","1688","","","","rating","","trustrating_stim/white_00299_940422_fa_edt.bmp","8","","","","","","","","","","",""
"image-keyboard-response","48","109706","0.0-6.0-2.21","62e097c92160176b0b9c2619","bdp_trlrn","Thu Jul 28 2022 00:45:53 GMT-0400 (Eastern Daylight Time)","718444","Untrustworthy,Trustworthy","","null","","","","ratingFB","","trustrating_stim/white_00299_940422_fa_edt.bmp","null","","","","","","","","","","",""
"image-keyboard-response","49","111394","0.0-6.0-1.22","62e097c92160176b0b9c2619","bdp_trlrn","Thu Jul 28 2022 00:45:53 GMT-0400 (Eastern Daylight Time)","718444","Untrustworthy,Trustworthy","","1586","","","","rating","","trustrating_stim/white_00120_931230_fa_edt.bmp","9","","","","","","","","","","",""
"image-keyboard-response","50","111595","0.0-6.0-2.22","62e097c92160176b0b9c2619","bdp_trlrn","Thu Jul 28 2022 00:45:53 GMT-0400 (Eastern Daylight Time)","718444","Untrustworthy,Trustworthy","","null","","","","ratingFB","","trustrating_stim/white_00120_931230_fa_edt.bmp","null","","","","","","","","","","",""
"image-keyboard-response","51","113577","0.0-6.0-1.23","62e097c92160176b0b9c2619","bdp_trlrn","Thu Jul 28 2022 00:45:53 GMT-0400 (Eastern Daylight Time)","718444","Untrustworthy,Trustworthy","","1879","","","","rating","","trustrating_stim/white_00223_940128_fb_edt.bmp","2","","","","","","","","","","",""
"image-keyboard-response","52","113778","0.0-6.0-2.23","62e097c92160176b0b9c2619","bdp_trlrn","Thu Jul 28 2022 00:45:53 GMT-0400 (Eastern Daylight Time)","718444","Untrustworthy,Trustworthy","","null","","","","ratingFB","","trustrating_stim/white_00223_940128_fb_edt.bmp","null","","","","","","","","","","",""
"image-keyboard-response","53","115629","0.0-6.0-1.24","62e097c92160176b0b9c2619","bdp_trlrn","Thu Jul 28 2022 00:45:53 GMT-0400 (Eastern Daylight Time)","718444","Untrustworthy,Trustworthy","","1749","","","","rating","","trustrating_stim/white_00109_931230_fa_edt.bmp","9","","","","","","","","","","",""
"image-keyboard-response","54","115831","0.0-6.0-2.24","62e097c92160176b0b9c2619","bdp_trlrn","Thu Jul 28 2022 00:45:53 GMT-0400 (Eastern Daylight Time)","718444","Untrustworthy,Trustworthy","","null","","","","ratingFB","","trustrating_stim/white_00109_931230_fa_edt.bmp","null","","","","","","","","","","",""
"image-keyboard-response","55","117948","0.0-6.0-1.25","62e097c92160176b0b9c2619","bdp_trlrn","Thu Jul 28 2022 00:45:53 GMT-0400 (Eastern Daylight Time)","718444","Untrustworthy,Trustworthy","","2014","","","","rating","","trustrating_stim/white_mw089.bmp","7","","","","","","","","","","",""
"image-keyboard-response","56","118150","0.0-6.0-2.25","62e097c92160176b0b9c2619","bdp_trlrn","Thu Jul 28 2022 00:45:53 GMT-0400 (Eastern Daylight Time)","718444","Untrustworthy,Trustworthy","","null","","","","ratingFB","","trustrating_stim/white_mw089.bmp","null","","","","","","","","","","",""
"image-keyboard-response","57","120080","0.0-6.0-1.26","62e097c92160176b0b9c2619","bdp_trlrn","Thu Jul 28 2022 00:45:53 GMT-0400 (Eastern Daylight Time)","718444","Untrustworthy,Trustworthy","","1828","","","","rating","","trustrating_stim/white_00659_941121_fa_edt.bmp","5","","","","","","","","","","",""
"image-keyboard-response","58","120281","0.0-6.0-2.26","62e097c92160176b0b9c2619","bdp_trlrn","Thu Jul 28 2022 00:45:53 GMT-0400 (Eastern Daylight Time)","718444","Untrustworthy,Trustworthy","","null","","","","ratingFB","","trustrating_stim/white_00659_941121_fa_edt.bmp","null","","","","","","","","","","",""
"image-keyboard-response","59","121656","0.0-6.0-1.27","62e097c92160176b0b9c2619","bdp_trlrn","Thu Jul 28 2022 00:45:53 GMT-0400 (Eastern Daylight Time)","718444","Untrustworthy,Trustworthy","","1271","","","","rating","","trustrating_stim/white_mw071.bmp","7","","","","","","","","","","",""
"image-keyboard-response","60","121858","0.0-6.0-2.27","62e097c92160176b0b9c2619","bdp_trlrn","Thu Jul 28 2022 00:45:53 GMT-0400 (Eastern Daylight Time)","718444","Untrustworthy,Trustworthy","","null","","","","ratingFB","","trustrating_stim/white_mw071.bmp","null","","","","","","","","","","",""
"image-keyboard-response","61","124434","0.0-6.0-1.28","62e097c92160176b0b9c2619","bdp_trlrn","Thu Jul 28 2022 00:45:53 GMT-0400 (Eastern Daylight Time)","718444","Untrustworthy,Trustworthy","","2475","","","","rating","","trustrating_stim/white_00785_941205_fb_edt.bmp","6","","","","","","","","","","",""
"image-keyboard-response","62","124636","0.0-6.0-2.28","62e097c92160176b0b9c2619","bdp_trlrn","Thu Jul 28 2022 00:45:53 GMT-0400 (Eastern Daylight Time)","718444","Untrustworthy,Trustworthy","","null","","","","ratingFB","","trustrating_stim/white_00785_941205_fb_edt.bmp","null","","","","","","","","","","",""
"image-keyboard-response","63","126450","0.0-6.0-1.29","62e097c92160176b0b9c2619","bdp_trlrn","Thu Jul 28 2022 00:45:53 GMT-0400 (Eastern Daylight Time)","718444","Untrustworthy,Trustworthy","","1712","","","","rating","","trustrating_stim/white_mw084.bmp","4","","","","","","","","","","",""
"image-keyboard-response","64","126652","0.0-6.0-2.29","62e097c92160176b0b9c2619","bdp_trlrn","Thu Jul 28 2022 00:45:53 GMT-0400 (Eastern Daylight Time)","718444","Untrustworthy,Trustworthy","","null","","","","ratingFB","","trustrating_stim/white_mw084.bmp","null","","","","","","","","","","",""
"image-keyboard-response","65","128303","0.0-6.0-1.30","62e097c92160176b0b9c2619","bdp_trlrn","Thu Jul 28 2022 00:45:53 GMT-0400 (Eastern Daylight Time)","718444","Untrustworthy,Trustworthy","","1549","","","","rating","","trustrating_stim/white_mw056.bmp","1","","","","","","","","","","",""
"image-keyboard-response","66","128504","0.0-6.0-2.30","62e097c92160176b0b9c2619","bdp_trlrn","Thu Jul 28 2022 00:45:53 GMT-0400 (Eastern Daylight Time)","718444","Untrustworthy,Trustworthy","","null","","","","ratingFB","","trustrating_stim/white_mw056.bmp","null","","","","","","","","","","",""
"image-keyboard-response","67","130264","0.0-6.0-1.31","62e097c92160176b0b9c2619","bdp_trlrn","Thu Jul 28 2022 00:45:53 GMT-0400 (Eastern Daylight Time)","718444","Untrustworthy,Trustworthy","","1656","","","","rating","","trustrating_stim/white_00109_931230_fa_edt.bmp","9","","","","","","","","","","",""
"image-keyboard-response","68","130465","0.0-6.0-2.31","62e097c92160176b0b9c2619","bdp_trlrn","Thu Jul 28 2022 00:45:53 GMT-0400 (Eastern Daylight Time)","718444","Untrustworthy,Trustworthy","","null","","","","ratingFB","","trustrating_stim/white_00109_931230_fa_edt.bmp","null","","","","","","","","","","",""
"image-keyboard-response","69","134375","0.0-6.0-1.32","62e097c92160176b0b9c2619","bdp_trlrn","Thu Jul 28 2022 00:45:53 GMT-0400 (Eastern Daylight Time)","718444","Untrustworthy,Trustworthy","","3807","","","","rating","","trustrating_stim/white_mw066.bmp","8","","","","","","","","","","",""
"image-keyboard-response","70","134577","0.0-6.0-2.32","62e097c92160176b0b9c2619","bdp_trlrn","Thu Jul 28 2022 00:45:53 GMT-0400 (Eastern Daylight Time)","718444","Untrustworthy,Trustworthy","","null","","","","ratingFB","","trustrating_stim/white_mw066.bmp","null","","","","","","","","","","",""
"image-keyboard-response","71","136936","0.0-6.0-1.33","62e097c92160176b0b9c2619","bdp_trlrn","Thu Jul 28 2022 00:45:53 GMT-0400 (Eastern Daylight Time)","718444","Untrustworthy,Trustworthy","","2256","","","","rating","","trustrating_stim/white_mw048.bmp","2","","","","","","","","","","",""
"image-keyboard-response","72","137137","0.0-6.0-2.33","62e097c92160176b0b9c2619","bdp_trlrn","Thu Jul 28 2022 00:45:53 GMT-0400 (Eastern Daylight Time)","718444","Untrustworthy,Trustworthy","","null","","","","ratingFB","","trustrating_stim/white_mw048.bmp","null","","","","","","","","","","",""
"image-keyboard-response","73","139125","0.0-6.0-1.34","62e097c92160176b0b9c2619","bdp_trlrn","Thu Jul 28 2022 00:45:53 GMT-0400 (Eastern Daylight Time)","718444","Untrustworthy,Trustworthy","","1886","","","","rating","","trustrating_stim/white_mw033.bmp","7","","","","","","","","","","",""
"image-keyboard-response","74","139327","0.0-6.0-2.34","62e097c92160176b0b9c2619","bdp_trlrn","Thu Jul 28 2022 00:45:53 GMT-0400 (Eastern Daylight Time)","718444","Untrustworthy,Trustworthy","","null","","","","ratingFB","","trustrating_stim/white_mw033.bmp","null","","","","","","","","","","",""
"image-keyboard-response","75","141832","0.0-6.0-1.35","62e097c92160176b0b9c2619","bdp_trlrn","Thu Jul 28 2022 00:45:53 GMT-0400 (Eastern Daylight Time)","718444","Untrustworthy,Trustworthy","","2398","","","","rating","","trustrating_stim/white_00340_940422_fa_edt.bmp","2","","","","","","","","","","",""
"image-keyboard-response","76","142034","0.0-6.0-2.35","62e097c92160176b0b9c2619","bdp_trlrn","Thu Jul 28 2022 00:45:53 GMT-0400 (Eastern Daylight Time)","718444","Untrustworthy,Trustworthy","","null","","","","ratingFB","","trustrating_stim/white_00340_940422_fa_edt.bmp","null","","","","","","","","","","",""
"image-keyboard-response","77","144130","0.0-6.0-1.36","62e097c92160176b0b9c2619","bdp_trlrn","Thu Jul 28 2022 00:45:53 GMT-0400 (Eastern Daylight Time)","718444","Untrustworthy,Trustworthy","","1994","","","","rating","","trustrating_stim/white_00761_941201_fb_edt.bmp","3","","","","","","","","","","",""
"image-keyboard-response","78","144332","0.0-6.0-2.36","62e097c92160176b0b9c2619","bdp_trlrn","Thu Jul 28 2022 00:45:53 GMT-0400 (Eastern Daylight Time)","718444","Untrustworthy,Trustworthy","","null","","","","ratingFB","","trustrating_stim/white_00761_941201_fb_edt.bmp","null","","","","","","","","","","",""
"image-keyboard-response","79","149613","0.0-6.0-1.37","62e097c92160176b0b9c2619","bdp_trlrn","Thu Jul 28 2022 00:45:53 GMT-0400 (Eastern Daylight Time)","718444","Untrustworthy,Trustworthy","","5179","","","","rating","","trustrating_stim/white_mw089.bmp","7","","","","","","","","","","",""
"image-keyboard-response","80","149815","0.0-6.0-2.37","62e097c92160176b0b9c2619","bdp_trlrn","Thu Jul 28 2022 00:45:53 GMT-0400 (Eastern Daylight Time)","718444","Untrustworthy,Trustworthy","","null","","","","ratingFB","","trustrating_stim/white_mw089.bmp","null","","","","","","","","","","",""
"image-keyboard-response","81","152361","0.0-6.0-1.38","62e097c92160176b0b9c2619","bdp_trlrn","Thu Jul 28 2022 00:45:53 GMT-0400 (Eastern Daylight Time)","718444","Untrustworthy,Trustworthy","","2442","","","","rating","","trustrating_stim/white_mw035.bmp","8","","","","","","","","","","",""
"image-keyboard-response","82","152564","0.0-6.0-2.38","62e097c92160176b0b9c2619","bdp_trlrn","Thu Jul 28 2022 00:45:53 GMT-0400 (Eastern Daylight Time)","718444","Untrustworthy,Trustworthy","","null","","","","ratingFB","","trustrating_stim/white_mw035.bmp","null","","","","","","","","","","",""
"image-keyboard-response","83","154200","0.0-6.0-1.39","62e097c92160176b0b9c2619","bdp_trlrn","Thu Jul 28 2022 00:45:53 GMT-0400 (Eastern Daylight Time)","718444","Untrustworthy,Trustworthy","","1534","","","","rating","","trustrating_stim/white_mw063.bmp","3","","","","","","","","","","",""
"image-keyboard-response","84","154402","0.0-6.0-2.39","62e097c92160176b0b9c2619","bdp_trlrn","Thu Jul 28 2022 00:45:53 GMT-0400 (Eastern Daylight Time)","718444","Untrustworthy,Trustworthy","","null","","","","ratingFB","","trustrating_stim/white_mw063.bmp","null","","","","","","","","","","",""
"image-keyboard-response","85","155940","0.0-6.0-1.40","62e097c92160176b0b9c2619","bdp_trlrn","Thu Jul 28 2022 00:45:53 GMT-0400 (Eastern Daylight Time)","718444","Untrustworthy,Trustworthy","","1436","","","","rating","","trustrating_stim/white_mw053.bmp","9","","","","","","","","","","",""
"image-keyboard-response","86","156141","0.0-6.0-2.40","62e097c92160176b0b9c2619","bdp_trlrn","Thu Jul 28 2022 00:45:53 GMT-0400 (Eastern Daylight Time)","718444","Untrustworthy,Trustworthy","","null","","","","ratingFB","","trustrating_stim/white_mw053.bmp","null","","","","","","","","","","",""
"image-keyboard-response","87","157485","0.0-6.0-1.41","62e097c92160176b0b9c2619","bdp_trlrn","Thu Jul 28 2022 00:45:53 GMT-0400 (Eastern Daylight Time)","718444","Untrustworthy,Trustworthy","","1242","","","","rating","","trustrating_stim/white_00519_940519_fb_edt.bmp","8","","","","","","","","","","",""
"image-keyboard-response","88","157687","0.0-6.0-2.41","62e097c92160176b0b9c2619","bdp_trlrn","Thu Jul 28 2022 00:45:53 GMT-0400 (Eastern Daylight Time)","718444","Untrustworthy,Trustworthy","","null","","","","ratingFB","","trustrating_stim/white_00519_940519_fb_edt.bmp","null","","","","","","","","","","",""
"image-keyboard-response","89","159315","0.0-6.0-1.42","62e097c92160176b0b9c2619","bdp_trlrn","Thu Jul 28 2022 00:45:53 GMT-0400 (Eastern Daylight Time)","718444","Untrustworthy,Trustworthy","","1525","","","","rating","","trustrating_stim/white_00757_941201_fa_edt.bmp","4","","","","","","","","","","",""
"image-keyboard-response","90","159520","0.0-6.0-2.42","62e097c92160176b0b9c2619","bdp_trlrn","Thu Jul 28 2022 00:45:53 GMT-0400 (Eastern Daylight Time)","718444","Untrustworthy,Trustworthy","","null","","","","ratingFB","","trustrating_stim/white_00757_941201_fa_edt.bmp","null","","","","","","","","","","",""
"image-keyboard-response","91","161701","0.0-6.0-1.43","62e097c92160176b0b9c2619","bdp_trlrn","Thu Jul 28 2022 00:45:53 GMT-0400 (Eastern Daylight Time)","718444","Untrustworthy,Trustworthy","","2078","","","","rating","","trustrating_stim/white_00785_941205_fb_edt.bmp","4","","","","","","","","","","",""
"image-keyboard-response","92","161902","0.0-6.0-2.43","62e097c92160176b0b9c2619","bdp_trlrn","Thu Jul 28 2022 00:45:53 GMT-0400 (Eastern Daylight Time)","718444","Untrustworthy,Trustworthy","","null","","","","ratingFB","","trustrating_stim/white_00785_941205_fb_edt.bmp","null","","","","","","","","","","",""
"image-keyboard-response","93","163409","0.0-6.0-1.44","62e097c92160176b0b9c2619","bdp_trlrn","Thu Jul 28 2022 00:45:53 GMT-0400 (Eastern Daylight Time)","718444","Untrustworthy,Trustworthy","","1405","","","","rating","","trustrating_stim/white_00659_941121_fa_edt.bmp","2","","","","","","","","","","",""
"image-keyboard-response","94","163611","0.0-6.0-2.44","62e097c92160176b0b9c2619","bdp_trlrn","Thu Jul 28 2022 00:45:53 GMT-0400 (Eastern Daylight Time)","718444","Untrustworthy,Trustworthy","","null","","","","ratingFB","","trustrating_stim/white_00659_941121_fa_edt.bmp","null","","","","","","","","","","",""
"image-keyboard-response","95","164972","0.0-6.0-1.45","62e097c92160176b0b9c2619","bdp_trlrn","Thu Jul 28 2022 00:45:53 GMT-0400 (Eastern Daylight Time)","718444","Untrustworthy,Trustworthy","","1259","","","","rating","","trustrating_stim/white_mw097.bmp","1","","","","","","","","","","",""
"image-keyboard-response","96","165173","0.0-6.0-2.45","62e097c92160176b0b9c2619","bdp_trlrn","Thu Jul 28 2022 00:45:53 GMT-0400 (Eastern Daylight Time)","718444","Untrustworthy,Trustworthy","","null","","","","ratingFB","","trustrating_stim/white_mw097.bmp","null","","","","","","","","","","",""
"image-keyboard-response","97","166914","0.0-6.0-1.46","62e097c92160176b0b9c2619","bdp_trlrn","Thu Jul 28 2022 00:45:53 GMT-0400 (Eastern Daylight Time)","718444","Untrustworthy,Trustworthy","","1638","","","","rating","","trustrating_stim/white_mw084.bmp","5","","","","","","","","","","",""
"image-keyboard-response","98","167115","0.0-6.0-2.46","62e097c92160176b0b9c2619","bdp_trlrn","Thu Jul 28 2022 00:45:53 GMT-0400 (Eastern Daylight Time)","718444","Untrustworthy,Trustworthy","","null","","","","ratingFB","","trustrating_stim/white_mw084.bmp","null","","","","","","","","","","",""
"image-keyboard-response","99","169412","0.0-6.0-1.47","62e097c92160176b0b9c2619","bdp_trlrn","Thu Jul 28 2022 00:45:53 GMT-0400 (Eastern Daylight Time)","718444","Untrustworthy,Trustworthy","","2194","","","","rating","","trustrating_stim/white_mw071.bmp","7","","","","","","","","","","",""
"image-keyboard-response","100","169613","0.0-6.0-2.47","62e097c92160176b0b9c2619","bdp_trlrn","Thu Jul 28 2022 00:45:53 GMT-0400 (Eastern Daylight Time)","718444","Untrustworthy,Trustworthy","","null","","","","ratingFB","","trustrating_stim/white_mw071.bmp","null","","","","","","","","","","",""
"image-keyboard-response","101","171379","0.0-6.0-1.48","62e097c92160176b0b9c2619","bdp_trlrn","Thu Jul 28 2022 00:45:53 GMT-0400 (Eastern Daylight Time)","718444","Untrustworthy,Trustworthy","","1662","","","","rating","","trustrating_stim/white_00120_931230_fa_edt.bmp","8","","","","","","","","","","",""
"image-keyboard-response","102","171580","0.0-6.0-2.48","62e097c92160176b0b9c2619","bdp_trlrn","Thu Jul 28 2022 00:45:53 GMT-0400 (Eastern Daylight Time)","718444","Untrustworthy,Trustworthy","","null","","","","ratingFB","","trustrating_stim/white_00120_931230_fa_edt.bmp","null","","","","","","","","","","",""
"image-keyboard-response","103","173037","0.0-6.0-1.49","62e097c92160176b0b9c2619","bdp_trlrn","Thu Jul 28 2022 00:45:53 GMT-0400 (Eastern Daylight Time)","718444","Untrustworthy,Trustworthy","","1354","","","","rating","","trustrating_stim/white_00129_931230_fb_edt.bmp","7","","","","","","","","","","",""
"image-keyboard-response","104","173238","0.0-6.0-2.49","62e097c92160176b0b9c2619","bdp_trlrn","Thu Jul 28 2022 00:45:53 GMT-0400 (Eastern Daylight Time)","718444","Untrustworthy,Trustworthy","","null","","","","ratingFB","","trustrating_stim/white_00129_931230_fb_edt.bmp","null","","","","","","","","","","",""
"image-keyboard-response","105","175827","0.0-6.0-1.50","62e097c92160176b0b9c2619","bdp_trlrn","Thu Jul 28 2022 00:45:53 GMT-0400 (Eastern Daylight Time)","718444","Untrustworthy,Trustworthy","","2487","","","","rating","","trustrating_stim/white_00602_940928_fb_edt.bmp","9","","","","","","","","","","",""
"image-keyboard-response","106","176029","0.0-6.0-2.50","62e097c92160176b0b9c2619","bdp_trlrn","Thu Jul 28 2022 00:45:53 GMT-0400 (Eastern Daylight Time)","718444","Untrustworthy,Trustworthy","","null","","","","ratingFB","","trustrating_stim/white_00602_940928_fb_edt.bmp","null","","","","","","","","","","",""
"image-keyboard-response","107","178502","0.0-6.0-1.51","62e097c92160176b0b9c2619","bdp_trlrn","Thu Jul 28 2022 00:45:53 GMT-0400 (Eastern Daylight Time)","718444","Untrustworthy,Trustworthy","","2369","","","","rating","","trustrating_stim/white_mw060.bmp","2","","","","","","","","","","",""
"image-keyboard-response","108","178704","0.0-6.0-2.51","62e097c92160176b0b9c2619","bdp_trlrn","Thu Jul 28 2022 00:45:53 GMT-0400 (Eastern Daylight Time)","718444","Untrustworthy,Trustworthy","","null","","","","ratingFB","","trustrating_stim/white_mw060.bmp","null","","","","","","","","","","",""
"image-keyboard-response","109","181144","0.0-6.0-1.52","62e097c92160176b0b9c2619","bdp_trlrn","Thu Jul 28 2022 00:45:53 GMT-0400 (Eastern Daylight Time)","718444","Untrustworthy,Trustworthy","","2334","","","","rating","","trustrating_stim/white_00223_940128_fb_edt.bmp","6","","","","","","","","","","",""
"image-keyboard-response","110","181345","0.0-6.0-2.52","62e097c92160176b0b9c2619","bdp_trlrn","Thu Jul 28 2022 00:45:53 GMT-0400 (Eastern Daylight Time)","718444","Untrustworthy,Trustworthy","","null","","","","ratingFB","","trustrating_stim/white_00223_940128_fb_edt.bmp","null","","","","","","","","","","",""
"image-keyboard-response","111","182629","0.0-6.0-1.53","62e097c92160176b0b9c2619","bdp_trlrn","Thu Jul 28 2022 00:45:53 GMT-0400 (Eastern Daylight Time)","718444","Untrustworthy,Trustworthy","","1181","","","","rating","","trustrating_stim/white_mw046.bmp","7","","","","","","","","","","",""
"image-keyboard-response","112","182830","0.0-6.0-2.53","62e097c92160176b0b9c2619","bdp_trlrn","Thu Jul 28 2022 00:45:53 GMT-0400 (Eastern Daylight Time)","718444","Untrustworthy,Trustworthy","","null","","","","ratingFB","","trustrating_stim/white_mw046.bmp","null","","","","","","","","","","",""
"image-keyboard-response","113","184166","0.0-6.0-1.54","62e097c92160176b0b9c2619","bdp_trlrn","Thu Jul 28 2022 00:45:53 GMT-0400 (Eastern Daylight Time)","718444","Untrustworthy,Trustworthy","","1233","","","","rating","","trustrating_stim/white_00299_940422_fa_edt.bmp","8","","","","","","","","","","",""
"image-keyboard-response","114","184368","0.0-6.0-2.54","62e097c92160176b0b9c2619","bdp_trlrn","Thu Jul 28 2022 00:45:53 GMT-0400 (Eastern Daylight Time)","718444","Untrustworthy,Trustworthy","","null","","","","ratingFB","","trustrating_stim/white_00299_940422_fa_edt.bmp","null","","","","","","","","","","",""
"image-keyboard-response","115","186092","0.0-6.0-1.55","62e097c92160176b0b9c2619","bdp_trlrn","Thu Jul 28 2022 00:45:53 GMT-0400 (Eastern Daylight Time)","718444","Untrustworthy,Trustworthy","","1622","","","","rating","","trustrating_stim/white_00577_940928_fa_edt.bmp","3","","","","","","","","","","",""
"image-keyboard-response","116","186294","0.0-6.0-2.55","62e097c92160176b0b9c2619","bdp_trlrn","Thu Jul 28 2022 00:45:53 GMT-0400 (Eastern Daylight Time)","718444","Untrustworthy,Trustworthy","","null","","","","ratingFB","","trustrating_stim/white_00577_940928_fa_edt.bmp","null","","","","","","","","","","",""
"image-keyboard-response","117","187596","0.0-6.0-1.56","62e097c92160176b0b9c2619","bdp_trlrn","Thu Jul 28 2022 00:45:53 GMT-0400 (Eastern Daylight Time)","718444","Untrustworthy,Trustworthy","","1198","","","","rating","","trustrating_stim/white_mw099.bmp","6","","","","","","","","","","",""
"image-keyboard-response","118","187797","0.0-6.0-2.56","62e097c92160176b0b9c2619","bdp_trlrn","Thu Jul 28 2022 00:45:53 GMT-0400 (Eastern Daylight Time)","718444","Untrustworthy,Trustworthy","","null","","","","ratingFB","","trustrating_stim/white_mw099.bmp","null","","","","","","","","","","",""
"image-keyboard-response","119","189493","0.0-6.0-1.57","62e097c92160176b0b9c2619","bdp_trlrn","Thu Jul 28 2022 00:45:53 GMT-0400 (Eastern Daylight Time)","718444","Untrustworthy,Trustworthy","","1587","","","","rating","","trustrating_stim/white_00898_960530_fa_edt.bmp","8","","","","","","","","","","",""
"image-keyboard-response","120","189695","0.0-6.0-2.57","62e097c92160176b0b9c2619","bdp_trlrn","Thu Jul 28 2022 00:45:53 GMT-0400 (Eastern Daylight Time)","718444","Untrustworthy,Trustworthy","","null","","","","ratingFB","","trustrating_stim/white_00898_960530_fa_edt.bmp","null","","","","","","","","","","",""
"image-keyboard-response","121","191512","0.0-6.0-1.58","62e097c92160176b0b9c2619","bdp_trlrn","Thu Jul 28 2022 00:45:53 GMT-0400 (Eastern Daylight Time)","718444","Untrustworthy,Trustworthy","","1714","","","","rating","","trustrating_stim/white_mw049.bmp","9","","","","","","","","","","",""
"image-keyboard-response","122","191713","0.0-6.0-2.58","62e097c92160176b0b9c2619","bdp_trlrn","Thu Jul 28 2022 00:45:53 GMT-0400 (Eastern Daylight Time)","718444","Untrustworthy,Trustworthy","","null","","","","ratingFB","","trustrating_stim/white_mw049.bmp","null","","","","","","","","","","",""
"image-keyboard-response","123","193197","0.0-6.0-1.59","62e097c92160176b0b9c2619","bdp_trlrn","Thu Jul 28 2022 00:45:53 GMT-0400 (Eastern Daylight Time)","718444","Untrustworthy,Trustworthy","","1382","","","","rating","","trustrating_stim/white_00807_941205_fb_edt.bmp","6","","","","","","","","","","",""
"image-keyboard-response","124","193398","0.0-6.0-2.59","62e097c92160176b0b9c2619","bdp_trlrn","Thu Jul 28 2022 00:45:53 GMT-0400 (Eastern Daylight Time)","718444","Untrustworthy,Trustworthy","","null","","","","ratingFB","","trustrating_stim/white_00807_941205_fb_edt.bmp","null","","","","","","","","","","",""
"instructions","125","196339","0.0-7.0","62e097c92160176b0b9c2619","bdp_trlrn","Thu Jul 28 2022 00:45:53 GMT-0400 (Eastern Daylight Time)","718444","Untrustworthy,Trustworthy","[{""page_index"":0,""viewing_time"":2837}]","2838","","","","","","","","","","","","","","","","","",""
"instructions","126","307213","0.0-8.0","62e097c92160176b0b9c2619","bdp_trlrn","Thu Jul 28 2022 00:45:53 GMT-0400 (Eastern Daylight Time)","718444","Untrustworthy,Trustworthy","[{""page_index"":0,""viewing_time"":29831},{""page_index"":1,""viewing_time"":21599},{""page_index"":2,""viewing_time"":7996},{""page_index"":3,""viewing_time"":10457},{""page_index"":4,""viewing_time"":9669},{""page_index"":5,""viewing_time"":9556},{""page_index"":6,""viewing_time"":15520},{""page_index"":7,""viewing_time"":6145}]","110773","","","","","","","","","","","","","","","","","",""
"instructions","127","330919","0.0-9.0","62e097c92160176b0b9c2619","bdp_trlrn","Thu Jul 28 2022 00:45:53 GMT-0400 (Eastern Daylight Time)","718444","Untrustworthy,Trustworthy","[{""page_index"":0,""viewing_time"":16133},{""page_index"":1,""viewing_time"":7572}]","23705","","","","","","","","","","","","","","","","","",""
"html-keyboard-response","128","333674","0.0-10.0-1.0","62e097c92160176b0b9c2619","bdp_trlrn","Thu Jul 28 2022 00:45:53 GMT-0400 (Eastern Daylight Time)","718444","Untrustworthy,Trustworthy","","2653","","","","decision","","<div class='trialDiv'><img src='trustrating_stim/white_mw046.bmp'><br><font class='baseline'><strong>Jordan</strong><p>Choose number of points to send.</font><div class='respPicDiv'><img src='img/responseButtonOffersNo0L.png' class='respPic'></div></div>","2","1","Jordan","6","Shared","0.65,0.2","14","0.65","trustrating_stim/white_mw046.bmp","6","5","1"
"html-keyboard-response","129","333926","0.0-10.0-2.0","62e097c92160176b0b9c2619","bdp_trlrn","Thu Jul 28 2022 00:45:53 GMT-0400 (Eastern Daylight Time)","718444","Untrustworthy,Trustworthy","","null","","","","decisionFB","","<div class='trialDiv'><img src='trustrating_stim/white_mw046.bmp'><br><font class='baseline'><strong>Jordan</strong><p>Choose number of points to send.</font><div class='respPicDiv'><img src='img/responseButtonOffersNo0L2.png' class='respPic'></div></div>","null","1","Jordan","6","Shared","0.65,0.2","14","0.65","trustrating_stim/white_mw046.bmp","6","3","1"
"html-keyboard-response","130","334928","0.0-10.0-3.0","62e097c92160176b0b9c2619","bdp_trlrn","Thu Jul 28 2022 00:45:53 GMT-0400 (Eastern Daylight Time)","718444","Untrustworthy,Trustworthy","","null","","","","feedback","","<div class='trialDiv'><img src='trustrating_stim/white_mw046.bmp'><br><font class='baseline'><strong>Jordan</strong><p>Received: <strong>8</strong></font> &nbsp; &nbsp; &nbsp; &nbsp; &nbsp; &nbsp;<font class='posOutcome'>Shared back: <strong>4</strong></font></font><div class='respPicDiv'><img src='img/responseButtonOffersNo0_wht.png' class='respPic'></div></div>","null","1","Jordan","6","Shared","0.65,0.2","14","0.65","trustrating_stim/white_mw046.bmp","6","7","1"
"html-keyboard-response","131","340010","0.0-10.0-1.1","62e097c92160176b0b9c2619","bdp_trlrn","Thu Jul 28 2022 00:45:53 GMT-0400 (Eastern Daylight Time)","718444","Untrustworthy,Trustworthy","","5080","","","","decision","","<div class='trialDiv'><img src='trustrating_stim/white_mw097.bmp'><br><font class='baseline'><strong>Marcus</strong><p>Choose number of points to send.</font><div class='respPicDiv'><img src='img/responseButtonOffersNo0L.png' class='respPic'></div></div>","3","1","Marcus","0","Kept","0.35,0.8","11","0.35","trustrating_stim/white_mw097.bmp","1","12","2"
"html-keyboard-response","132","340262","0.0-10.0-2.1","62e097c92160176b0b9c2619","bdp_trlrn","Thu Jul 28 2022 00:45:53 GMT-0400 (Eastern Daylight Time)","718444","Untrustworthy,Trustworthy","","null","","","","decisionFB","","<div class='trialDiv'><img src='trustrating_stim/white_mw097.bmp'><br><font class='baseline'><strong>Marcus</strong><p>Choose number of points to send.</font><div class='respPicDiv'><img src='img/responseButtonOffersNo0L3.png' class='respPic'></div></div>","null","1","Marcus","0","Kept","0.35,0.8","11","0.35","trustrating_stim/white_mw097.bmp","1","9","2"
"html-keyboard-response","133","341264","0.0-10.0-3.1","62e097c92160176b0b9c2619","bdp_trlrn","Thu Jul 28 2022 00:45:53 GMT-0400 (Eastern Daylight Time)","718444","Untrustworthy,Trustworthy","","null","","","","feedback","","<div class='trialDiv'><img src='trustrating_stim/white_mw097.bmp'><br><font class='baseline'><strong>Marcus</strong><p>Received: <strong>12</strong></font> &nbsp; &nbsp; &nbsp; &nbsp; &nbsp; &nbsp;<font class='negOutcome'>Shared back: <strong>0</strong></font></font><div class='respPicDiv'><img src='img/responseButtonOffersNo0_wht.png' class='respPic'></div></div>","null","1","Marcus","0","Kept","0.35,0.8","11","0.35","trustrating_stim/white_mw097.bmp","1","9","2"
"html-keyboard-response","134","342855","0.0-10.0-1.2","62e097c92160176b0b9c2619","bdp_trlrn","Thu Jul 28 2022 00:45:53 GMT-0400 (Eastern Daylight Time)","718444","Untrustworthy,Trustworthy","","1589","","","","decision","","<div class='trialDiv'><img src='trustrating_stim/white_00602_940928_fb_edt.bmp'><br><font class='baseline'><strong>Joseph</strong><p>Choose number of points to send.</font><div class='respPicDiv'><img src='img/responseButtonOffersNo0L.png' class='respPic'></div></div>","4","1","Joseph","11","Shared","0.8,0.2","11","0.8","trustrating_stim/white_00602_940928_fb_edt.bmp","9","14","3"
"html-keyboard-response","135","343107","0.0-10.0-2.2","62e097c92160176b0b9c2619","bdp_trlrn","Thu Jul 28 2022 00:45:53 GMT-0400 (Eastern Daylight Time)","718444","Untrustworthy,Trustworthy","","null","","","","decisionFB","","<div class='trialDiv'><img src='trustrating_stim/white_00602_940928_fb_edt.bmp'><br><font class='baseline'><strong>Joseph</strong><p>Choose number of points to send.</font><div class='respPicDiv'><img src='img/responseButtonOffersNo0L4.png' class='respPic'></div></div>","null","1","Joseph","11","Shared","0.8,0.2","11","0.8","trustrating_stim/white_00602_940928_fb_edt.bmp","9","10","3"
"html-keyboard-response","136","344109","0.0-10.0-3.2","62e097c92160176b0b9c2619","bdp_trlrn","Thu Jul 28 2022 00:45:53 GMT-0400 (Eastern Daylight Time)","718444","Untrustworthy,Trustworthy","","null","","","","feedback","","<div class='trialDiv'><img src='trustrating_stim/white_00602_940928_fb_edt.bmp'><br><font class='baseline'><strong>Joseph</strong><p>Received: <strong>16</strong></font> &nbsp; &nbsp; &nbsp; &nbsp; &nbsp; &nbsp;<font class='posOutcome'>Shared back: <strong>8</strong></font></font><div class='respPicDiv'><img src='img/responseButtonOffersNo0_wht.png' class='respPic'></div></div>","null","1","Joseph","11","Shared","0.8,0.2","11","0.8","trustrating_stim/white_00602_940928_fb_edt.bmp","9","18","3"
"html-keyboard-response","137","345671","0.0-10.0-1.3","62e097c92160176b0b9c2619","bdp_trlrn","Thu Jul 28 2022 00:45:53 GMT-0400 (Eastern Daylight Time)","718444","Untrustworthy,Trustworthy","","1561","","","","decision","","<div class='trialDiv'><img src='trustrating_stim/white_mw046.bmp'><br><font class='baseline'><strong>Jordan</strong><p>Choose number of points to send.</font><div class='respPicDiv'><img src='img/responseButtonOffersNo0L.png' class='respPic'></div></div>","3","2","Jordan","6","Shared","0.65,0.2","14","0.65","trustrating_stim/white_mw046.bmp","6","23","4"
"html-keyboard-response","138","345923","0.0-10.0-2.3","62e097c92160176b0b9c2619","bdp_trlrn","Thu Jul 28 2022 00:45:53 GMT-0400 (Eastern Daylight Time)","718444","Untrustworthy,Trustworthy","","null","","","","decisionFB","","<div class='trialDiv'><img src='trustrating_stim/white_mw046.bmp'><br><font class='baseline'><strong>Jordan</strong><p>Choose number of points to send.</font><div class='respPicDiv'><img src='img/responseButtonOffersNo0L3.png' class='respPic'></div></div>","null","2","Jordan","6","Shared","0.65,0.2","14","0.65","trustrating_stim/white_mw046.bmp","6","20","4"
"html-keyboard-response","139","346924","0.0-10.0-3.3","62e097c92160176b0b9c2619","bdp_trlrn","Thu Jul 28 2022 00:45:53 GMT-0400 (Eastern Daylight Time)","718444","Untrustworthy,Trustworthy","","null","","","","feedback","","<div class='trialDiv'><img src='trustrating_stim/white_mw046.bmp'><br><font class='baseline'><strong>Jordan</strong><p>Received: <strong>12</strong></font> &nbsp; &nbsp; &nbsp; &nbsp; &nbsp; &nbsp;<font class='posOutcome'>Shared back: <strong>6</strong></font></font><div class='respPicDiv'><img src='img/responseButtonOffersNo0_wht.png' class='respPic'></div></div>","null","2","Jordan","6","Shared","0.65,0.2","14","0.65","trustrating_stim/white_mw046.bmp","6","26","4"
"html-keyboard-response","140","349498","0.0-10.0-1.4","62e097c92160176b0b9c2619","bdp_trlrn","Thu Jul 28 2022 00:45:53 GMT-0400 (Eastern Daylight Time)","718444","Untrustworthy,Trustworthy","","2573","","","","decision","","<div class='trialDiv'><img src='trustrating_stim/white_mw097.bmp'><br><font class='baseline'><strong>Marcus</strong><p>Choose number of points to send.</font><div class='respPicDiv'><img src='img/responseButtonOffersNo0L.png' class='respPic'></div></div>","1","2","Marcus","0","Kept","0.35,0.8","11","0.35","trustrating_stim/white_mw097.bmp","1","31","5"
"html-keyboard-response","141","349749","0.0-10.0-2.4","62e097c92160176b0b9c2619","bdp_trlrn","Thu Jul 28 2022 00:45:53 GMT-0400 (Eastern Daylight Time)","718444","Untrustworthy,Trustworthy","","null","","","","decisionFB","","<div class='trialDiv'><img src='trustrating_stim/white_mw097.bmp'><br><font class='baseline'><strong>Marcus</strong><p>Choose number of points to send.</font><div class='respPicDiv'><img src='img/responseButtonOffersNo0L1.png' class='respPic'></div></div>","null","2","Marcus","0","Kept","0.35,0.8","11","0.35","trustrating_stim/white_mw097.bmp","1","30","5"
"html-keyboard-response","142","350751","0.0-10.0-3.4","62e097c92160176b0b9c2619","bdp_trlrn","Thu Jul 28 2022 00:45:53 GMT-0400 (Eastern Daylight Time)","718444","Untrustworthy,Trustworthy","","null","","","","feedback","","<div class='trialDiv'><img src='trustrating_stim/white_mw097.bmp'><br><font class='baseline'><strong>Marcus</strong><p>Received: <strong>4</strong></font> &nbsp; &nbsp; &nbsp; &nbsp; &nbsp; &nbsp;<font class='negOutcome'>Shared back: <strong>0</strong></font></font><div class='respPicDiv'><img src='img/responseButtonOffersNo0_wht.png' class='respPic'></div></div>","null","2","Marcus","0","Kept","0.35,0.8","11","0.35","trustrating_stim/white_mw097.bmp","1","30","5"
"html-keyboard-response","143","353465","0.0-10.0-1.5","62e097c92160176b0b9c2619","bdp_trlrn","Thu Jul 28 2022 00:45:53 GMT-0400 (Eastern Daylight Time)","718444","Untrustworthy,Trustworthy","","2712","","","","decision","","<div class='trialDiv'><img src='trustrating_stim/white_00602_940928_fb_edt.bmp'><br><font class='baseline'><strong>Joseph</strong><p>Choose number of points to send.</font><div class='respPicDiv'><img src='img/responseButtonOffersNo0L.png' class='respPic'></div></div>","5","2","Joseph","11","Shared","0.8,0.2","11","0.8","trustrating_stim/white_00602_940928_fb_edt.bmp","9","35","6"
"html-keyboard-response","144","353717","0.0-10.0-2.5","62e097c92160176b0b9c2619","bdp_trlrn","Thu Jul 28 2022 00:45:53 GMT-0400 (Eastern Daylight Time)","718444","Untrustworthy,Trustworthy","","null","","","","decisionFB","","<div class='trialDiv'><img src='trustrating_stim/white_00602_940928_fb_edt.bmp'><br><font class='baseline'><strong>Joseph</strong><p>Choose number of points to send.</font><div class='respPicDiv'><img src='img/responseButtonOffersNo0L5.png' class='respPic'></div></div>","null","2","Joseph","11","Shared","0.8,0.2","11","0.8","trustrating_stim/white_00602_940928_fb_edt.bmp","9","30","6"
"html-keyboard-response","145","354718","0.0-10.0-3.5","62e097c92160176b0b9c2619","bdp_trlrn","Thu Jul 28 2022 00:45:53 GMT-0400 (Eastern Daylight Time)","718444","Untrustworthy,Trustworthy","","null","","","","feedback","","<div class='trialDiv'><img src='trustrating_stim/white_00602_940928_fb_edt.bmp'><br><font class='baseline'><strong>Joseph</strong><p>Received: <strong>20</strong></font> &nbsp; &nbsp; &nbsp; &nbsp; &nbsp; &nbsp;<font class='posOutcome'>Shared back: <strong>10</strong></font></font><div class='respPicDiv'><img src='img/responseButtonOffersNo0_wht.png' class='respPic'></div></div>","null","2","Joseph","11","Shared","0.8,0.2","11","0.8","trustrating_stim/white_00602_940928_fb_edt.bmp","9","40","6"
"html-keyboard-response","146","358050","0.0-10.0-1.6","62e097c92160176b0b9c2619","bdp_trlrn","Thu Jul 28 2022 00:45:53 GMT-0400 (Eastern Daylight Time)","718444","Untrustworthy,Trustworthy","","3330","","","","decision","","<div class='trialDiv'><img src='trustrating_stim/white_mw097.bmp'><br><font class='baseline'><strong>Marcus</strong><p>Choose number of points to send.</font><div class='respPicDiv'><img src='img/responseButtonOffersNo0L.png' class='respPic'></div></div>","2","3","Marcus","0","Kept","0.35,0.8","11","0.35","trustrating_stim/white_mw097.bmp","1","45","7"
"html-keyboard-response","147","358302","0.0-10.0-2.6","62e097c92160176b0b9c2619","bdp_trlrn","Thu Jul 28 2022 00:45:53 GMT-0400 (Eastern Daylight Time)","718444","Untrustworthy,Trustworthy","","null","","","","decisionFB","","<div class='trialDiv'><img src='trustrating_stim/white_mw097.bmp'><br><font class='baseline'><strong>Marcus</strong><p>Choose number of points to send.</font><div class='respPicDiv'><img src='img/responseButtonOffersNo0L2.png' class='respPic'></div></div>","null","3","Marcus","0","Kept","0.35,0.8","11","0.35","trustrating_stim/white_mw097.bmp","1","43","7"
"html-keyboard-response","148","359303","0.0-10.0-3.6","62e097c92160176b0b9c2619","bdp_trlrn","Thu Jul 28 2022 00:45:53 GMT-0400 (Eastern Daylight Time)","718444","Untrustworthy,Trustworthy","","null","","","","feedback","","<div class='trialDiv'><img src='trustrating_stim/white_mw097.bmp'><br><font class='baseline'><strong>Marcus</strong><p>Received: <strong>8</strong></font> &nbsp; &nbsp; &nbsp; &nbsp; &nbsp; &nbsp;<font class='negOutcome'>Shared back: <strong>0</strong></font></font><div class='respPicDiv'><img src='img/responseButtonOffersNo0_wht.png' class='respPic'></div></div>","null","3","Marcus","0","Kept","0.35,0.8","11","0.35","trustrating_stim/white_mw097.bmp","1","43","7"
"html-keyboard-response","149","360611","0.0-10.0-1.7","62e097c92160176b0b9c2619","bdp_trlrn","Thu Jul 28 2022 00:45:53 GMT-0400 (Eastern Daylight Time)","718444","Untrustworthy,Trustworthy","","1307","","","","decision","","<div class='trialDiv'><img src='trustrating_stim/white_00602_940928_fb_edt.bmp'><br><font class='baseline'><strong>Joseph</strong><p>Choose number of points to send.</font><div class='respPicDiv'><img src='img/responseButtonOffersNo0L.png' class='respPic'></div></div>","5","3","Joseph","11","Shared","0.8,0.2","11","0.8","trustrating_stim/white_00602_940928_fb_edt.bmp","9","48","8"
"html-keyboard-response","150","360863","0.0-10.0-2.7","62e097c92160176b0b9c2619","bdp_trlrn","Thu Jul 28 2022 00:45:53 GMT-0400 (Eastern Daylight Time)","718444","Untrustworthy,Trustworthy","","null","","","","decisionFB","","<div class='trialDiv'><img src='trustrating_stim/white_00602_940928_fb_edt.bmp'><br><font class='baseline'><strong>Joseph</strong><p>Choose number of points to send.</font><div class='respPicDiv'><img src='img/responseButtonOffersNo0L5.png' class='respPic'></div></div>","null","3","Joseph","11","Shared","0.8,0.2","11","0.8","trustrating_stim/white_00602_940928_fb_edt.bmp","9","43","8"
"html-keyboard-response","151","361865","0.0-10.0-3.7","62e097c92160176b0b9c2619","bdp_trlrn","Thu Jul 28 2022 00:45:53 GMT-0400 (Eastern Daylight Time)","718444","Untrustworthy,Trustworthy","","null","","","","feedback","","<div class='trialDiv'><img src='trustrating_stim/white_00602_940928_fb_edt.bmp'><br><font class='baseline'><strong>Joseph</strong><p>Received: <strong>20</strong></font> &nbsp; &nbsp; &nbsp; &nbsp; &nbsp; &nbsp;<font class='posOutcome'>Shared back: <strong>10</strong></font></font><div class='respPicDiv'><img src='img/responseButtonOffersNo0_wht.png' class='respPic'></div></div>","null","3","Joseph","11","Shared","0.8,0.2","11","0.8","trustrating_stim/white_00602_940928_fb_edt.bmp","9","53","8"
"html-keyboard-response","152","363325","0.0-10.0-1.8","62e097c92160176b0b9c2619","bdp_trlrn","Thu Jul 28 2022 00:45:53 GMT-0400 (Eastern Daylight Time)","718444","Untrustworthy,Trustworthy","","1459","","","","decision","","<div class='trialDiv'><img src='trustrating_stim/white_mw046.bmp'><br><font class='baseline'><strong>Jordan</strong><p>Choose number of points to send.</font><div class='respPicDiv'><img src='img/responseButtonOffersNo0L.png' class='respPic'></div></div>","3","3","Jordan","6","Kept","0.65,0.2","14","0.65","trustrating_stim/white_mw046.bmp","6","58","9"
"html-keyboard-response","153","363577","0.0-10.0-2.8","62e097c92160176b0b9c2619","bdp_trlrn","Thu Jul 28 2022 00:45:53 GMT-0400 (Eastern Daylight Time)","718444","Untrustworthy,Trustworthy","","null","","","","decisionFB","","<div class='trialDiv'><img src='trustrating_stim/white_mw046.bmp'><br><font class='baseline'><strong>Jordan</strong><p>Choose number of points to send.</font><div class='respPicDiv'><img src='img/responseButtonOffersNo0L3.png' class='respPic'></div></div>","null","3","Jordan","6","Kept","0.65,0.2","14","0.65","trustrating_stim/white_mw046.bmp","6","55","9"
"html-keyboard-response","154","364579","0.0-10.0-3.8","62e097c92160176b0b9c2619","bdp_trlrn","Thu Jul 28 2022 00:45:53 GMT-0400 (Eastern Daylight Time)","718444","Untrustworthy,Trustworthy","","null","","","","feedback","","<div class='trialDiv'><img src='trustrating_stim/white_mw046.bmp'><br><font class='baseline'><strong>Jordan</strong><p>Received: <strong>12</strong></font> &nbsp; &nbsp; &nbsp; &nbsp; &nbsp; &nbsp;<font class='negOutcome'>Shared back: <strong>0</strong></font></font><div class='respPicDiv'><img src='img/responseButtonOffersNo0_wht.png' class='respPic'></div></div>","null","3","Jordan","6","Kept","0.65,0.2","14","0.65","trustrating_stim/white_mw046.bmp","6","55","9"
"html-keyboard-response","155","365482","0.0-10.0-1.9","62e097c92160176b0b9c2619","bdp_trlrn","Thu Jul 28 2022 00:45:53 GMT-0400 (Eastern Daylight Time)","718444","Untrustworthy,Trustworthy","","902","","","","decision","","<div class='trialDiv'><img src='trustrating_stim/white_00602_940928_fb_edt.bmp'><br><font class='baseline'><strong>Joseph</strong><p>Choose number of points to send.</font><div class='respPicDiv'><img src='img/responseButtonOffersNo0L.png' class='respPic'></div></div>","5","4","Joseph","11","Shared","0.8,0.2","11","0.8","trustrating_stim/white_00602_940928_fb_edt.bmp","9","60","10"
"html-keyboard-response","156","365734","0.0-10.0-2.9","62e097c92160176b0b9c2619","bdp_trlrn","Thu Jul 28 2022 00:45:53 GMT-0400 (Eastern Daylight Time)","718444","Untrustworthy,Trustworthy","","null","","","","decisionFB","","<div class='trialDiv'><img src='trustrating_stim/white_00602_940928_fb_edt.bmp'><br><font class='baseline'><strong>Joseph</strong><p>Choose number of points to send.</font><div class='respPicDiv'><img src='img/responseButtonOffersNo0L5.png' class='respPic'></div></div>","null","4","Joseph","11","Shared","0.8,0.2","11","0.8","trustrating_stim/white_00602_940928_fb_edt.bmp","9","55","10"
"html-keyboard-response","157","366736","0.0-10.0-3.9","62e097c92160176b0b9c2619","bdp_trlrn","Thu Jul 28 2022 00:45:53 GMT-0400 (Eastern Daylight Time)","718444","Untrustworthy,Trustworthy","","null","","","","feedback","","<div class='trialDiv'><img src='trustrating_stim/white_00602_940928_fb_edt.bmp'><br><font class='baseline'><strong>Joseph</strong><p>Received: <strong>20</strong></font> &nbsp; &nbsp; &nbsp; &nbsp; &nbsp; &nbsp;<font class='posOutcome'>Shared back: <strong>10</strong></font></font><div class='respPicDiv'><img src='img/responseButtonOffersNo0_wht.png' class='respPic'></div></div>","null","4","Joseph","11","Shared","0.8,0.2","11","0.8","trustrating_stim/white_00602_940928_fb_edt.bmp","9","65","10"
"html-keyboard-response","158","367670","0.0-10.0-1.10","62e097c92160176b0b9c2619","bdp_trlrn","Thu Jul 28 2022 00:45:53 GMT-0400 (Eastern Daylight Time)","718444","Untrustworthy,Trustworthy","","933","","","","decision","","<div class='trialDiv'><img src='trustrating_stim/white_mw046.bmp'><br><font class='baseline'><strong>Jordan</strong><p>Choose number of points to send.</font><div class='respPicDiv'><img src='img/responseButtonOffersNo0L.png' class='respPic'></div></div>","1","4","Jordan","6","Shared","0.65,0.2","14","0.65","trustrating_stim/white_mw046.bmp","6","70","11"
"html-keyboard-response","159","367922","0.0-10.0-2.10","62e097c92160176b0b9c2619","bdp_trlrn","Thu Jul 28 2022 00:45:53 GMT-0400 (Eastern Daylight Time)","718444","Untrustworthy,Trustworthy","","null","","","","decisionFB","","<div class='trialDiv'><img src='trustrating_stim/white_mw046.bmp'><br><font class='baseline'><strong>Jordan</strong><p>Choose number of points to send.</font><div class='respPicDiv'><img src='img/responseButtonOffersNo0L1.png' class='respPic'></div></div>","null","4","Jordan","6","Shared","0.65,0.2","14","0.65","trustrating_stim/white_mw046.bmp","6","69","11"
"html-keyboard-response","160","368923","0.0-10.0-3.10","62e097c92160176b0b9c2619","bdp_trlrn","Thu Jul 28 2022 00:45:53 GMT-0400 (Eastern Daylight Time)","718444","Untrustworthy,Trustworthy","","null","","","","feedback","","<div class='trialDiv'><img src='trustrating_stim/white_mw046.bmp'><br><font class='baseline'><strong>Jordan</strong><p>Received: <strong>4</strong></font> &nbsp; &nbsp; &nbsp; &nbsp; &nbsp; &nbsp;<font class='posOutcome'>Shared back: <strong>2</strong></font></font><div class='respPicDiv'><img src='img/responseButtonOffersNo0_wht.png' class='respPic'></div></div>","null","4","Jordan","6","Shared","0.65,0.2","14","0.65","trustrating_stim/white_mw046.bmp","6","71","11"
"html-keyboard-response","161","370155","0.0-10.0-1.11","62e097c92160176b0b9c2619","bdp_trlrn","Thu Jul 28 2022 00:45:53 GMT-0400 (Eastern Daylight Time)","718444","Untrustworthy,Trustworthy","","1231","","","","decision","","<div class='trialDiv'><img src='trustrating_stim/white_mw097.bmp'><br><font class='baseline'><strong>Marcus</strong><p>Choose number of points to send.</font><div class='respPicDiv'><img src='img/responseButtonOffersNo0L.png' class='respPic'></div></div>","1","4","Marcus","0","Shared","0.35,0.8","11","0.35","trustrating_stim/white_mw097.bmp","1","76","12"
"html-keyboard-response","162","370407","0.0-10.0-2.11","62e097c92160176b0b9c2619","bdp_trlrn","Thu Jul 28 2022 00:45:53 GMT-0400 (Eastern Daylight Time)","718444","Untrustworthy,Trustworthy","","null","","","","decisionFB","","<div class='trialDiv'><img src='trustrating_stim/white_mw097.bmp'><br><font class='baseline'><strong>Marcus</strong><p>Choose number of points to send.</font><div class='respPicDiv'><img src='img/responseButtonOffersNo0L1.png' class='respPic'></div></div>","null","4","Marcus","0","Shared","0.35,0.8","11","0.35","trustrating_stim/white_mw097.bmp","1","75","12"
"html-keyboard-response","163","371409","0.0-10.0-3.11","62e097c92160176b0b9c2619","bdp_trlrn","Thu Jul 28 2022 00:45:53 GMT-0400 (Eastern Daylight Time)","718444","Untrustworthy,Trustworthy","","null","","","","feedback","","<div class='trialDiv'><img src='trustrating_stim/white_mw097.bmp'><br><font class='baseline'><strong>Marcus</strong><p>Received: <strong>4</strong></font> &nbsp; &nbsp; &nbsp; &nbsp; &nbsp; &nbsp;<font class='posOutcome'>Shared back: <strong>2</strong></font></font><div class='respPicDiv'><img src='img/responseButtonOffersNo0_wht.png' class='respPic'></div></div>","null","4","Marcus","0","Shared","0.35,0.8","11","0.35","trustrating_stim/white_mw097.bmp","1","77","12"
"html-keyboard-response","164","372479","0.0-10.0-1.12","62e097c92160176b0b9c2619","bdp_trlrn","Thu Jul 28 2022 00:45:53 GMT-0400 (Eastern Daylight Time)","718444","Untrustworthy,Trustworthy","","1068","","","","decision","","<div class='trialDiv'><img src='trustrating_stim/white_00602_940928_fb_edt.bmp'><br><font class='baseline'><strong>Joseph</strong><p>Choose number of points to send.</font><div class='respPicDiv'><img src='img/responseButtonOffersNo0L.png' class='respPic'></div></div>","5","5","Joseph","11","Shared","0.8,0.2","11","0.8","trustrating_stim/white_00602_940928_fb_edt.bmp","9","82","13"
"html-keyboard-response","165","372733","0.0-10.0-2.12","62e097c92160176b0b9c2619","bdp_trlrn","Thu Jul 28 2022 00:45:53 GMT-0400 (Eastern Daylight Time)","718444","Untrustworthy,Trustworthy","","null","","","","decisionFB","","<div class='trialDiv'><img src='trustrating_stim/white_00602_940928_fb_edt.bmp'><br><font class='baseline'><strong>Joseph</strong><p>Choose number of points to send.</font><div class='respPicDiv'><img src='img/responseButtonOffersNo0L5.png' class='respPic'></div></div>","null","5","Joseph","11","Shared","0.8,0.2","11","0.8","trustrating_stim/white_00602_940928_fb_edt.bmp","9","77","13"
"html-keyboard-response","166","373734","0.0-10.0-3.12","62e097c92160176b0b9c2619","bdp_trlrn","Thu Jul 28 2022 00:45:53 GMT-0400 (Eastern Daylight Time)","718444","Untrustworthy,Trustworthy","","null","","","","feedback","","<div class='trialDiv'><img src='trustrating_stim/white_00602_940928_fb_edt.bmp'><br><font class='baseline'><strong>Joseph</strong><p>Received: <strong>20</strong></font> &nbsp; &nbsp; &nbsp; &nbsp; &nbsp; &nbsp;<font class='posOutcome'>Shared back: <strong>10</strong></font></font><div class='respPicDiv'><img src='img/responseButtonOffersNo0_wht.png' class='respPic'></div></div>","null","5","Joseph","11","Shared","0.8,0.2","11","0.8","trustrating_stim/white_00602_940928_fb_edt.bmp","9","87","13"
"html-keyboard-response","167","375821","0.0-10.0-1.13","62e097c92160176b0b9c2619","bdp_trlrn","Thu Jul 28 2022 00:45:53 GMT-0400 (Eastern Daylight Time)","718444","Untrustworthy,Trustworthy","","2079","","","","decision","","<div class='trialDiv'><img src='trustrating_stim/white_mw097.bmp'><br><font class='baseline'><strong>Marcus</strong><p>Choose number of points to send.</font><div class='respPicDiv'><img src='img/responseButtonOffersNo0L.png' class='respPic'></div></div>","1","5","Marcus","0","Kept","0.35,0.8","11","0.35","trustrating_stim/white_mw097.bmp","1","92","14"
"html-keyboard-response","168","376072","0.0-10.0-2.13","62e097c92160176b0b9c2619","bdp_trlrn","Thu Jul 28 2022 00:45:53 GMT-0400 (Eastern Daylight Time)","718444","Untrustworthy,Trustworthy","","null","","","","decisionFB","","<div class='trialDiv'><img src='trustrating_stim/white_mw097.bmp'><br><font class='baseline'><strong>Marcus</strong><p>Choose number of points to send.</font><div class='respPicDiv'><img src='img/responseButtonOffersNo0L1.png' class='respPic'></div></div>","null","5","Marcus","0","Kept","0.35,0.8","11","0.35","trustrating_stim/white_mw097.bmp","1","91","14"
"html-keyboard-response","169","377074","0.0-10.0-3.13","62e097c92160176b0b9c2619","bdp_trlrn","Thu Jul 28 2022 00:45:53 GMT-0400 (Eastern Daylight Time)","718444","Untrustworthy,Trustworthy","","null","","","","feedback","","<div class='trialDiv'><img src='trustrating_stim/white_mw097.bmp'><br><font class='baseline'><strong>Marcus</strong><p>Received: <strong>4</strong></font> &nbsp; &nbsp; &nbsp; &nbsp; &nbsp; &nbsp;<font class='negOutcome'>Shared back: <strong>0</strong></font></font><div class='respPicDiv'><img src='img/responseButtonOffersNo0_wht.png' class='respPic'></div></div>","null","5","Marcus","0","Kept","0.35,0.8","11","0.35","trustrating_stim/white_mw097.bmp","1","91","14"
"html-keyboard-response","170","380133","0.0-10.0-1.14","62e097c92160176b0b9c2619","bdp_trlrn","Thu Jul 28 2022 00:45:53 GMT-0400 (Eastern Daylight Time)","718444","Untrustworthy,Trustworthy","","3057","","","","decision","","<div class='trialDiv'><img src='trustrating_stim/white_mw046.bmp'><br><font class='baseline'><strong>Jordan</strong><p>Choose number of points to send.</font><div class='respPicDiv'><img src='img/responseButtonOffersNo0L.png' class='respPic'></div></div>","2","5","Jordan","6","Shared","0.65,0.2","14","0.65","trustrating_stim/white_mw046.bmp","6","96","15"
"html-keyboard-response","171","380384","0.0-10.0-2.14","62e097c92160176b0b9c2619","bdp_trlrn","Thu Jul 28 2022 00:45:53 GMT-0400 (Eastern Daylight Time)","718444","Untrustworthy,Trustworthy","","null","","","","decisionFB","","<div class='trialDiv'><img src='trustrating_stim/white_mw046.bmp'><br><font class='baseline'><strong>Jordan</strong><p>Choose number of points to send.</font><div class='respPicDiv'><img src='img/responseButtonOffersNo0L2.png' class='respPic'></div></div>","null","5","Jordan","6","Shared","0.65,0.2","14","0.65","trustrating_stim/white_mw046.bmp","6","94","15"
"html-keyboard-response","172","381386","0.0-10.0-3.14","62e097c92160176b0b9c2619","bdp_trlrn","Thu Jul 28 2022 00:45:53 GMT-0400 (Eastern Daylight Time)","718444","Untrustworthy,Trustworthy","","null","","","","feedback","","<div class='trialDiv'><img src='trustrating_stim/white_mw046.bmp'><br><font class='baseline'><strong>Jordan</strong><p>Received: <strong>8</strong></font> &nbsp; &nbsp; &nbsp; &nbsp; &nbsp; &nbsp;<font class='posOutcome'>Shared back: <strong>4</strong></font></font><div class='respPicDiv'><img src='img/responseButtonOffersNo0_wht.png' class='respPic'></div></div>","null","5","Jordan","6","Shared","0.65,0.2","14","0.65","trustrating_stim/white_mw046.bmp","6","98","15"
"html-keyboard-response","173","383267","0.0-10.0-1.15","62e097c92160176b0b9c2619","bdp_trlrn","Thu Jul 28 2022 00:45:53 GMT-0400 (Eastern Daylight Time)","718444","Untrustworthy,Trustworthy","","1880","","","","decision","","<div class='trialDiv'><img src='trustrating_stim/white_mw097.bmp'><br><font class='baseline'><strong>Marcus</strong><p>Choose number of points to send.</font><div class='respPicDiv'><img src='img/responseButtonOffersNo0L.png' class='respPic'></div></div>","1","6","Marcus","0","Kept","0.35,0.8","11","0.35","trustrating_stim/white_mw097.bmp","1","103","16"
"html-keyboard-response","174","383518","0.0-10.0-2.15","62e097c92160176b0b9c2619","bdp_trlrn","Thu Jul 28 2022 00:45:53 GMT-0400 (Eastern Daylight Time)","718444","Untrustworthy,Trustworthy","","null","","","","decisionFB","","<div class='trialDiv'><img src='trustrating_stim/white_mw097.bmp'><br><font class='baseline'><strong>Marcus</strong><p>Choose number of points to send.</font><div class='respPicDiv'><img src='img/responseButtonOffersNo0L1.png' class='respPic'></div></div>","null","6","Marcus","0","Kept","0.35,0.8","11","0.35","trustrating_stim/white_mw097.bmp","1","102","16"
"html-keyboard-response","175","384520","0.0-10.0-3.15","62e097c92160176b0b9c2619","bdp_trlrn","Thu Jul 28 2022 00:45:53 GMT-0400 (Eastern Daylight Time)","718444","Untrustworthy,Trustworthy","","null","","","","feedback","","<div class='trialDiv'><img src='trustrating_stim/white_mw097.bmp'><br><font class='baseline'><strong>Marcus</strong><p>Received: <strong>4</strong></font> &nbsp; &nbsp; &nbsp; &nbsp; &nbsp; &nbsp;<font class='negOutcome'>Shared back: <strong>0</strong></font></font><div class='respPicDiv'><img src='img/responseButtonOffersNo0_wht.png' class='respPic'></div></div>","null","6","Marcus","0","Kept","0.35,0.8","11","0.35","trustrating_stim/white_mw097.bmp","1","102","16"
"html-keyboard-response","176","386448","0.0-10.0-1.16","62e097c92160176b0b9c2619","bdp_trlrn","Thu Jul 28 2022 00:45:53 GMT-0400 (Eastern Daylight Time)","718444","Untrustworthy,Trustworthy","","1925","","","","decision","","<div class='trialDiv'><img src='trustrating_stim/white_mw046.bmp'><br><font class='baseline'><strong>Jordan</strong><p>Choose number of points to send.</font><div class='respPicDiv'><img src='img/responseButtonOffersNo0L.png' class='respPic'></div></div>","3","6","Jordan","6","Shared","0.65,0.2","14","0.65","trustrating_stim/white_mw046.bmp","6","107","17"
"html-keyboard-response","177","386699","0.0-10.0-2.16","62e097c92160176b0b9c2619","bdp_trlrn","Thu Jul 28 2022 00:45:53 GMT-0400 (Eastern Daylight Time)","718444","Untrustworthy,Trustworthy","","null","","","","decisionFB","","<div class='trialDiv'><img src='trustrating_stim/white_mw046.bmp'><br><font class='baseline'><strong>Jordan</strong><p>Choose number of points to send.</font><div class='respPicDiv'><img src='img/responseButtonOffersNo0L3.png' class='respPic'></div></div>","null","6","Jordan","6","Shared","0.65,0.2","14","0.65","trustrating_stim/white_mw046.bmp","6","104","17"
"html-keyboard-response","178","387701","0.0-10.0-3.16","62e097c92160176b0b9c2619","bdp_trlrn","Thu Jul 28 2022 00:45:53 GMT-0400 (Eastern Daylight Time)","718444","Untrustworthy,Trustworthy","","null","","","","feedback","","<div class='trialDiv'><img src='trustrating_stim/white_mw046.bmp'><br><font class='baseline'><strong>Jordan</strong><p>Received: <strong>12</strong></font> &nbsp; &nbsp; &nbsp; &nbsp; &nbsp; &nbsp;<font class='posOutcome'>Shared back: <strong>6</strong></font></font><div class='respPicDiv'><img src='img/responseButtonOffersNo0_wht.png' class='respPic'></div></div>","null","6","Jordan","6","Shared","0.65,0.2","14","0.65","trustrating_stim/white_mw046.bmp","6","110","17"
"html-keyboard-response","179","388339","0.0-10.0-1.17","62e097c92160176b0b9c2619","bdp_trlrn","Thu Jul 28 2022 00:45:53 GMT-0400 (Eastern Daylight Time)","718444","Untrustworthy,Trustworthy","","637","","","","decision","","<div class='trialDiv'><img src='trustrating_stim/white_00602_940928_fb_edt.bmp'><br><font class='baseline'><strong>Joseph</strong><p>Choose number of points to send.</font><div class='respPicDiv'><img src='img/responseButtonOffersNo0L.png' class='respPic'></div></div>","5","6","Joseph","11","Shared","0.8,0.2","11","0.8","trustrating_stim/white_00602_940928_fb_edt.bmp","9","115","18"
"html-keyboard-response","180","388591","0.0-10.0-2.17","62e097c92160176b0b9c2619","bdp_trlrn","Thu Jul 28 2022 00:45:53 GMT-0400 (Eastern Daylight Time)","718444","Untrustworthy,Trustworthy","","null","","","","decisionFB","","<div class='trialDiv'><img src='trustrating_stim/white_00602_940928_fb_edt.bmp'><br><font class='baseline'><strong>Joseph</strong><p>Choose number of points to send.</font><div class='respPicDiv'><img src='img/responseButtonOffersNo0L5.png' class='respPic'></div></div>","null","6","Joseph","11","Shared","0.8,0.2","11","0.8","trustrating_stim/white_00602_940928_fb_edt.bmp","9","110","18"
"html-keyboard-response","181","389592","0.0-10.0-3.17","62e097c92160176b0b9c2619","bdp_trlrn","Thu Jul 28 2022 00:45:53 GMT-0400 (Eastern Daylight Time)","718444","Untrustworthy,Trustworthy","","null","","","","feedback","","<div class='trialDiv'><img src='trustrating_stim/white_00602_940928_fb_edt.bmp'><br><font class='baseline'><strong>Joseph</strong><p>Received: <strong>20</strong></font> &nbsp; &nbsp; &nbsp; &nbsp; &nbsp; &nbsp;<font class='posOutcome'>Shared back: <strong>10</strong></font></font><div class='respPicDiv'><img src='img/responseButtonOffersNo0_wht.png' class='respPic'></div></div>","null","6","Joseph","11","Shared","0.8,0.2","11","0.8","trustrating_stim/white_00602_940928_fb_edt.bmp","9","120","18"
"html-keyboard-response","182","391916","0.0-10.0-1.18","62e097c92160176b0b9c2619","bdp_trlrn","Thu Jul 28 2022 00:45:53 GMT-0400 (Eastern Daylight Time)","718444","Untrustworthy,Trustworthy","","2323","","","","decision","","<div class='trialDiv'><img src='trustrating_stim/white_mw097.bmp'><br><font class='baseline'><strong>Marcus</strong><p>Choose number of points to send.</font><div class='respPicDiv'><img src='img/responseButtonOffersNo0L.png' class='respPic'></div></div>","1","7","Marcus","0","Kept","0.35,0.8","11","0.35","trustrating_stim/white_mw097.bmp","1","125","19"
"html-keyboard-response","183","392168","0.0-10.0-2.18","62e097c92160176b0b9c2619","bdp_trlrn","Thu Jul 28 2022 00:45:53 GMT-0400 (Eastern Daylight Time)","718444","Untrustworthy,Trustworthy","","null","","","","decisionFB","","<div class='trialDiv'><img src='trustrating_stim/white_mw097.bmp'><br><font class='baseline'><strong>Marcus</strong><p>Choose number of points to send.</font><div class='respPicDiv'><img src='img/responseButtonOffersNo0L1.png' class='respPic'></div></div>","null","7","Marcus","0","Kept","0.35,0.8","11","0.35","trustrating_stim/white_mw097.bmp","1","124","19"
"html-keyboard-response","184","393169","0.0-10.0-3.18","62e097c92160176b0b9c2619","bdp_trlrn","Thu Jul 28 2022 00:45:53 GMT-0400 (Eastern Daylight Time)","718444","Untrustworthy,Trustworthy","","null","","","","feedback","","<div class='trialDiv'><img src='trustrating_stim/white_mw097.bmp'><br><font class='baseline'><strong>Marcus</strong><p>Received: <strong>4</strong></font> &nbsp; &nbsp; &nbsp; &nbsp; &nbsp; &nbsp;<font class='negOutcome'>Shared back: <strong>0</strong></font></font><div class='respPicDiv'><img src='img/responseButtonOffersNo0_wht.png' class='respPic'></div></div>","null","7","Marcus","0","Kept","0.35,0.8","11","0.35","trustrating_stim/white_mw097.bmp","1","124","19"
"html-keyboard-response","185","395290","0.0-10.0-1.19","62e097c92160176b0b9c2619","bdp_trlrn","Thu Jul 28 2022 00:45:53 GMT-0400 (Eastern Daylight Time)","718444","Untrustworthy,Trustworthy","","2117","","","","decision","","<div class='trialDiv'><img src='trustrating_stim/white_00602_940928_fb_edt.bmp'><br><font class='baseline'><strong>Joseph</strong><p>Choose number of points to send.</font><div class='respPicDiv'><img src='img/responseButtonOffersNo0L.png' class='respPic'></div></div>","5","7","Joseph","11","Shared","0.8,0.2","11","0.8","trustrating_stim/white_00602_940928_fb_edt.bmp","9","129","20"
"html-keyboard-response","186","395542","0.0-10.0-2.19","62e097c92160176b0b9c2619","bdp_trlrn","Thu Jul 28 2022 00:45:53 GMT-0400 (Eastern Daylight Time)","718444","Untrustworthy,Trustworthy","","null","","","","decisionFB","","<div class='trialDiv'><img src='trustrating_stim/white_00602_940928_fb_edt.bmp'><br><font class='baseline'><strong>Joseph</strong><p>Choose number of points to send.</font><div class='respPicDiv'><img src='img/responseButtonOffersNo0L5.png' class='respPic'></div></div>","null","7","Joseph","11","Shared","0.8,0.2","11","0.8","trustrating_stim/white_00602_940928_fb_edt.bmp","9","124","20"
"html-keyboard-response","187","396543","0.0-10.0-3.19","62e097c92160176b0b9c2619","bdp_trlrn","Thu Jul 28 2022 00:45:53 GMT-0400 (Eastern Daylight Time)","718444","Untrustworthy,Trustworthy","","null","","","","feedback","","<div class='trialDiv'><img src='trustrating_stim/white_00602_940928_fb_edt.bmp'><br><font class='baseline'><strong>Joseph</strong><p>Received: <strong>20</strong></font> &nbsp; &nbsp; &nbsp; &nbsp; &nbsp; &nbsp;<font class='posOutcome'>Shared back: <strong>10</strong></font></font><div class='respPicDiv'><img src='img/responseButtonOffersNo0_wht.png' class='respPic'></div></div>","null","7","Joseph","11","Shared","0.8,0.2","11","0.8","trustrating_stim/white_00602_940928_fb_edt.bmp","9","134","20"
"html-keyboard-response","188","398715","0.0-10.0-1.20","62e097c92160176b0b9c2619","bdp_trlrn","Thu Jul 28 2022 00:45:53 GMT-0400 (Eastern Daylight Time)","718444","Untrustworthy,Trustworthy","","2171","","","","decision","","<div class='trialDiv'><img src='trustrating_stim/white_mw046.bmp'><br><font class='baseline'><strong>Jordan</strong><p>Choose number of points to send.</font><div class='respPicDiv'><img src='img/responseButtonOffersNo0L.png' class='respPic'></div></div>","3","7","Jordan","6","Shared","0.65,0.2","14","0.65","trustrating_stim/white_mw046.bmp","6","139","21"
"html-keyboard-response","189","398967","0.0-10.0-2.20","62e097c92160176b0b9c2619","bdp_trlrn","Thu Jul 28 2022 00:45:53 GMT-0400 (Eastern Daylight Time)","718444","Untrustworthy,Trustworthy","","null","","","","decisionFB","","<div class='trialDiv'><img src='trustrating_stim/white_mw046.bmp'><br><font class='baseline'><strong>Jordan</strong><p>Choose number of points to send.</font><div class='respPicDiv'><img src='img/responseButtonOffersNo0L3.png' class='respPic'></div></div>","null","7","Jordan","6","Shared","0.65,0.2","14","0.65","trustrating_stim/white_mw046.bmp","6","136","21"
"html-keyboard-response","190","399968","0.0-10.0-3.20","62e097c92160176b0b9c2619","bdp_trlrn","Thu Jul 28 2022 00:45:53 GMT-0400 (Eastern Daylight Time)","718444","Untrustworthy,Trustworthy","","null","","","","feedback","","<div class='trialDiv'><img src='trustrating_stim/white_mw046.bmp'><br><font class='baseline'><strong>Jordan</strong><p>Received: <strong>12</strong></font> &nbsp; &nbsp; &nbsp; &nbsp; &nbsp; &nbsp;<font class='posOutcome'>Shared back: <strong>6</strong></font></font><div class='respPicDiv'><img src='img/responseButtonOffersNo0_wht.png' class='respPic'></div></div>","null","7","Jordan","6","Shared","0.65,0.2","14","0.65","trustrating_stim/white_mw046.bmp","6","142","21"
"html-keyboard-response","191","400996","0.0-10.0-1.21","62e097c92160176b0b9c2619","bdp_trlrn","Thu Jul 28 2022 00:45:53 GMT-0400 (Eastern Daylight Time)","718444","Untrustworthy,Trustworthy","","1026","","","","decision","","<div class='trialDiv'><img src='trustrating_stim/white_00602_940928_fb_edt.bmp'><br><font class='baseline'><strong>Joseph</strong><p>Choose number of points to send.</font><div class='respPicDiv'><img src='img/responseButtonOffersNo0L.png' class='respPic'></div></div>","5","8","Joseph","11","Kept","0.8,0.2","11","0.8","trustrating_stim/white_00602_940928_fb_edt.bmp","9","147","22"
"html-keyboard-response","192","401247","0.0-10.0-2.21","62e097c92160176b0b9c2619","bdp_trlrn","Thu Jul 28 2022 00:45:53 GMT-0400 (Eastern Daylight Time)","718444","Untrustworthy,Trustworthy","","null","","","","decisionFB","","<div class='trialDiv'><img src='trustrating_stim/white_00602_940928_fb_edt.bmp'><br><font class='baseline'><strong>Joseph</strong><p>Choose number of points to send.</font><div class='respPicDiv'><img src='img/responseButtonOffersNo0L5.png' class='respPic'></div></div>","null","8","Joseph","11","Kept","0.8,0.2","11","0.8","trustrating_stim/white_00602_940928_fb_edt.bmp","9","142","22"
"html-keyboard-response","193","402249","0.0-10.0-3.21","62e097c92160176b0b9c2619","bdp_trlrn","Thu Jul 28 2022 00:45:53 GMT-0400 (Eastern Daylight Time)","718444","Untrustworthy,Trustworthy","","null","","","","feedback","","<div class='trialDiv'><img src='trustrating_stim/white_00602_940928_fb_edt.bmp'><br><font class='baseline'><strong>Joseph</strong><p>Received: <strong>20</strong></font> &nbsp; &nbsp; &nbsp; &nbsp; &nbsp; &nbsp;<font class='negOutcome'>Shared back: <strong>0</strong></font></font><div class='respPicDiv'><img src='img/responseButtonOffersNo0_wht.png' class='respPic'></div></div>","null","8","Joseph","11","Kept","0.8,0.2","11","0.8","trustrating_stim/white_00602_940928_fb_edt.bmp","9","142","22"
"html-keyboard-response","194","403621","0.0-10.0-1.22","62e097c92160176b0b9c2619","bdp_trlrn","Thu Jul 28 2022 00:45:53 GMT-0400 (Eastern Daylight Time)","718444","Untrustworthy,Trustworthy","","1371","","","","decision","","<div class='trialDiv'><img src='trustrating_stim/white_mw046.bmp'><br><font class='baseline'><strong>Jordan</strong><p>Choose number of points to send.</font><div class='respPicDiv'><img src='img/responseButtonOffersNo0L.png' class='respPic'></div></div>","3","8","Jordan","6","Shared","0.65,0.2","14","0.65","trustrating_stim/white_mw046.bmp","6","147","23"
"html-keyboard-response","195","403873","0.0-10.0-2.22","62e097c92160176b0b9c2619","bdp_trlrn","Thu Jul 28 2022 00:45:53 GMT-0400 (Eastern Daylight Time)","718444","Untrustworthy,Trustworthy","","null","","","","decisionFB","","<div class='trialDiv'><img src='trustrating_stim/white_mw046.bmp'><br><font class='baseline'><strong>Jordan</strong><p>Choose number of points to send.</font><div class='respPicDiv'><img src='img/responseButtonOffersNo0L3.png' class='respPic'></div></div>","null","8","Jordan","6","Shared","0.65,0.2","14","0.65","trustrating_stim/white_mw046.bmp","6","144","23"
"html-keyboard-response","196","404874","0.0-10.0-3.22","62e097c92160176b0b9c2619","bdp_trlrn","Thu Jul 28 2022 00:45:53 GMT-0400 (Eastern Daylight Time)","718444","Untrustworthy,Trustworthy","","null","","","","feedback","","<div class='trialDiv'><img src='trustrating_stim/white_mw046.bmp'><br><font class='baseline'><strong>Jordan</strong><p>Received: <strong>12</strong></font> &nbsp; &nbsp; &nbsp; &nbsp; &nbsp; &nbsp;<font class='posOutcome'>Shared back: <strong>6</strong></font></font><div class='respPicDiv'><img src='img/responseButtonOffersNo0_wht.png' class='respPic'></div></div>","null","8","Jordan","6","Shared","0.65,0.2","14","0.65","trustrating_stim/white_mw046.bmp","6","150","23"
"html-keyboard-response","197","406287","0.0-10.0-1.23","62e097c92160176b0b9c2619","bdp_trlrn","Thu Jul 28 2022 00:45:53 GMT-0400 (Eastern Daylight Time)","718444","Untrustworthy,Trustworthy","","1412","","","","decision","","<div class='trialDiv'><img src='trustrating_stim/white_mw097.bmp'><br><font class='baseline'><strong>Marcus</strong><p>Choose number of points to send.</font><div class='respPicDiv'><img src='img/responseButtonOffersNo0L.png' class='respPic'></div></div>","1","8","Marcus","0","Kept","0.35,0.8","11","0.35","trustrating_stim/white_mw097.bmp","1","155","24"
"html-keyboard-response","198","406538","0.0-10.0-2.23","62e097c92160176b0b9c2619","bdp_trlrn","Thu Jul 28 2022 00:45:53 GMT-0400 (Eastern Daylight Time)","718444","Untrustworthy,Trustworthy","","null","","","","decisionFB","","<div class='trialDiv'><img src='trustrating_stim/white_mw097.bmp'><br><font class='baseline'><strong>Marcus</strong><p>Choose number of points to send.</font><div class='respPicDiv'><img src='img/responseButtonOffersNo0L1.png' class='respPic'></div></div>","null","8","Marcus","0","Kept","0.35,0.8","11","0.35","trustrating_stim/white_mw097.bmp","1","154","24"
"html-keyboard-response","199","407540","0.0-10.0-3.23","62e097c92160176b0b9c2619","bdp_trlrn","Thu Jul 28 2022 00:45:53 GMT-0400 (Eastern Daylight Time)","718444","Untrustworthy,Trustworthy","","null","","","","feedback","","<div class='trialDiv'><img src='trustrating_stim/white_mw097.bmp'><br><font class='baseline'><strong>Marcus</strong><p>Received: <strong>4</strong></font> &nbsp; &nbsp; &nbsp; &nbsp; &nbsp; &nbsp;<font class='negOutcome'>Shared back: <strong>0</strong></font></font><div class='respPicDiv'><img src='img/responseButtonOffersNo0_wht.png' class='respPic'></div></div>","null","8","Marcus","0","Kept","0.35,0.8","11","0.35","trustrating_stim/white_mw097.bmp","1","154","24"
"html-keyboard-response","200","408256","0.0-10.0-1.24","62e097c92160176b0b9c2619","bdp_trlrn","Thu Jul 28 2022 00:45:53 GMT-0400 (Eastern Daylight Time)","718444","Untrustworthy,Trustworthy","","715","","","","decision","","<div class='trialDiv'><img src='trustrating_stim/white_00602_940928_fb_edt.bmp'><br><font class='baseline'><strong>Joseph</strong><p>Choose number of points to send.</font><div class='respPicDiv'><img src='img/responseButtonOffersNo0L.png' class='respPic'></div></div>","5","9","Joseph","11","Shared","0.8,0.2","11","0.8","trustrating_stim/white_00602_940928_fb_edt.bmp","9","159","25"
"html-keyboard-response","201","408508","0.0-10.0-2.24","62e097c92160176b0b9c2619","bdp_trlrn","Thu Jul 28 2022 00:45:53 GMT-0400 (Eastern Daylight Time)","718444","Untrustworthy,Trustworthy","","null","","","","decisionFB","","<div class='trialDiv'><img src='trustrating_stim/white_00602_940928_fb_edt.bmp'><br><font class='baseline'><strong>Joseph</strong><p>Choose number of points to send.</font><div class='respPicDiv'><img src='img/responseButtonOffersNo0L5.png' class='respPic'></div></div>","null","9","Joseph","11","Shared","0.8,0.2","11","0.8","trustrating_stim/white_00602_940928_fb_edt.bmp","9","154","25"
"html-keyboard-response","202","409509","0.0-10.0-3.24","62e097c92160176b0b9c2619","bdp_trlrn","Thu Jul 28 2022 00:45:53 GMT-0400 (Eastern Daylight Time)","718444","Untrustworthy,Trustworthy","","null","","","","feedback","","<div class='trialDiv'><img src='trustrating_stim/white_00602_940928_fb_edt.bmp'><br><font class='baseline'><strong>Joseph</strong><p>Received: <strong>20</strong></font> &nbsp; &nbsp; &nbsp; &nbsp; &nbsp; &nbsp;<font class='posOutcome'>Shared back: <strong>10</strong></font></font><div class='respPicDiv'><img src='img/responseButtonOffersNo0_wht.png' class='respPic'></div></div>","null","9","Joseph","11","Shared","0.8,0.2","11","0.8","trustrating_stim/white_00602_940928_fb_edt.bmp","9","164","25"
"html-keyboard-response","203","411187","0.0-10.0-1.25","62e097c92160176b0b9c2619","bdp_trlrn","Thu Jul 28 2022 00:45:53 GMT-0400 (Eastern Daylight Time)","718444","Untrustworthy,Trustworthy","","1676","","","","decision","","<div class='trialDiv'><img src='trustrating_stim/white_mw097.bmp'><br><font class='baseline'><strong>Marcus</strong><p>Choose number of points to send.</font><div class='respPicDiv'><img src='img/responseButtonOffersNo0L.png' class='respPic'></div></div>","1","9","Marcus","0","Kept","0.35,0.8","11","0.35","trustrating_stim/white_mw097.bmp","1","169","26"
"html-keyboard-response","204","411438","0.0-10.0-2.25","62e097c92160176b0b9c2619","bdp_trlrn","Thu Jul 28 2022 00:45:53 GMT-0400 (Eastern Daylight Time)","718444","Untrustworthy,Trustworthy","","null","","","","decisionFB","","<div class='trialDiv'><img src='trustrating_stim/white_mw097.bmp'><br><font class='baseline'><strong>Marcus</strong><p>Choose number of points to send.</font><div class='respPicDiv'><img src='img/responseButtonOffersNo0L1.png' class='respPic'></div></div>","null","9","Marcus","0","Kept","0.35,0.8","11","0.35","trustrating_stim/white_mw097.bmp","1","168","26"
"html-keyboard-response","205","412440","0.0-10.0-3.25","62e097c92160176b0b9c2619","bdp_trlrn","Thu Jul 28 2022 00:45:53 GMT-0400 (Eastern Daylight Time)","718444","Untrustworthy,Trustworthy","","null","","","","feedback","","<div class='trialDiv'><img src='trustrating_stim/white_mw097.bmp'><br><font class='baseline'><strong>Marcus</strong><p>Received: <strong>4</strong></font> &nbsp; &nbsp; &nbsp; &nbsp; &nbsp; &nbsp;<font class='negOutcome'>Shared back: <strong>0</strong></font></font><div class='respPicDiv'><img src='img/responseButtonOffersNo0_wht.png' class='respPic'></div></div>","null","9","Marcus","0","Kept","0.35,0.8","11","0.35","trustrating_stim/white_mw097.bmp","1","168","26"
"html-keyboard-response","206","413261","0.0-10.0-1.26","62e097c92160176b0b9c2619","bdp_trlrn","Thu Jul 28 2022 00:45:53 GMT-0400 (Eastern Daylight Time)","718444","Untrustworthy,Trustworthy","","820","","","","decision","","<div class='trialDiv'><img src='trustrating_stim/white_mw046.bmp'><br><font class='baseline'><strong>Jordan</strong><p>Choose number of points to send.</font><div class='respPicDiv'><img src='img/responseButtonOffersNo0L.png' class='respPic'></div></div>","3","9","Jordan","6","Shared","0.65,0.2","14","0.65","trustrating_stim/white_mw046.bmp","6","173","27"
"html-keyboard-response","207","413513","0.0-10.0-2.26","62e097c92160176b0b9c2619","bdp_trlrn","Thu Jul 28 2022 00:45:53 GMT-0400 (Eastern Daylight Time)","718444","Untrustworthy,Trustworthy","","null","","","","decisionFB","","<div class='trialDiv'><img src='trustrating_stim/white_mw046.bmp'><br><font class='baseline'><strong>Jordan</strong><p>Choose number of points to send.</font><div class='respPicDiv'><img src='img/responseButtonOffersNo0L3.png' class='respPic'></div></div>","null","9","Jordan","6","Shared","0.65,0.2","14","0.65","trustrating_stim/white_mw046.bmp","6","170","27"
"html-keyboard-response","208","414514","0.0-10.0-3.26","62e097c92160176b0b9c2619","bdp_trlrn","Thu Jul 28 2022 00:45:53 GMT-0400 (Eastern Daylight Time)","718444","Untrustworthy,Trustworthy","","null","","","","feedback","","<div class='trialDiv'><img src='trustrating_stim/white_mw046.bmp'><br><font class='baseline'><strong>Jordan</strong><p>Received: <strong>12</strong></font> &nbsp; &nbsp; &nbsp; &nbsp; &nbsp; &nbsp;<font class='posOutcome'>Shared back: <strong>6</strong></font></font><div class='respPicDiv'><img src='img/responseButtonOffersNo0_wht.png' class='respPic'></div></div>","null","9","Jordan","6","Shared","0.65,0.2","14","0.65","trustrating_stim/white_mw046.bmp","6","176","27"
"html-keyboard-response","209","415116","0.0-10.0-1.27","62e097c92160176b0b9c2619","bdp_trlrn","Thu Jul 28 2022 00:45:53 GMT-0400 (Eastern Daylight Time)","718444","Untrustworthy,Trustworthy","","601","","","","decision","","<div class='trialDiv'><img src='trustrating_stim/white_mw097.bmp'><br><font class='baseline'><strong>Marcus</strong><p>Choose number of points to send.</font><div class='respPicDiv'><img src='img/responseButtonOffersNo0L.png' class='respPic'></div></div>","5","10","Marcus","0","Kept","0.35,0.8","11","0.35","trustrating_stim/white_mw097.bmp","1","181","28"
"html-keyboard-response","210","415368","0.0-10.0-2.27","62e097c92160176b0b9c2619","bdp_trlrn","Thu Jul 28 2022 00:45:53 GMT-0400 (Eastern Daylight Time)","718444","Untrustworthy,Trustworthy","","null","","","","decisionFB","","<div class='trialDiv'><img src='trustrating_stim/white_mw097.bmp'><br><font class='baseline'><strong>Marcus</strong><p>Choose number of points to send.</font><div class='respPicDiv'><img src='img/responseButtonOffersNo0L5.png' class='respPic'></div></div>","null","10","Marcus","0","Kept","0.35,0.8","11","0.35","trustrating_stim/white_mw097.bmp","1","176","28"
"html-keyboard-response","211","416371","0.0-10.0-3.27","62e097c92160176b0b9c2619","bdp_trlrn","Thu Jul 28 2022 00:45:53 GMT-0400 (Eastern Daylight Time)","718444","Untrustworthy,Trustworthy","","null","","","","feedback","","<div class='trialDiv'><img src='trustrating_stim/white_mw097.bmp'><br><font class='baseline'><strong>Marcus</strong><p>Received: <strong>20</strong></font> &nbsp; &nbsp; &nbsp; &nbsp; &nbsp; &nbsp;<font class='negOutcome'>Shared back: <strong>0</strong></font></font><div class='respPicDiv'><img src='img/responseButtonOffersNo0_wht.png' class='respPic'></div></div>","null","10","Marcus","0","Kept","0.35,0.8","11","0.35","trustrating_stim/white_mw097.bmp","1","176","28"
"html-keyboard-response","212","417619","0.0-10.0-1.28","62e097c92160176b0b9c2619","bdp_trlrn","Thu Jul 28 2022 00:45:53 GMT-0400 (Eastern Daylight Time)","718444","Untrustworthy,Trustworthy","","1246","","","","decision","","<div class='trialDiv'><img src='trustrating_stim/white_00602_940928_fb_edt.bmp'><br><font class='baseline'><strong>Joseph</strong><p>Choose number of points to send.</font><div class='respPicDiv'><img src='img/responseButtonOffersNo0L.png' class='respPic'></div></div>","5","10","Joseph","11","Kept","0.8,0.2","11","0.8","trustrating_stim/white_00602_940928_fb_edt.bmp","9","181","29"
"html-keyboard-response","213","417871","0.0-10.0-2.28","62e097c92160176b0b9c2619","bdp_trlrn","Thu Jul 28 2022 00:45:53 GMT-0400 (Eastern Daylight Time)","718444","Untrustworthy,Trustworthy","","null","","","","decisionFB","","<div class='trialDiv'><img src='trustrating_stim/white_00602_940928_fb_edt.bmp'><br><font class='baseline'><strong>Joseph</strong><p>Choose number of points to send.</font><div class='respPicDiv'><img src='img/responseButtonOffersNo0L5.png' class='respPic'></div></div>","null","10","Joseph","11","Kept","0.8,0.2","11","0.8","trustrating_stim/white_00602_940928_fb_edt.bmp","9","176","29"
"html-keyboard-response","214","418872","0.0-10.0-3.28","62e097c92160176b0b9c2619","bdp_trlrn","Thu Jul 28 2022 00:45:53 GMT-0400 (Eastern Daylight Time)","718444","Untrustworthy,Trustworthy","","null","","","","feedback","","<div class='trialDiv'><img src='trustrating_stim/white_00602_940928_fb_edt.bmp'><br><font class='baseline'><strong>Joseph</strong><p>Received: <strong>20</strong></font> &nbsp; &nbsp; &nbsp; &nbsp; &nbsp; &nbsp;<font class='negOutcome'>Shared back: <strong>0</strong></font></font><div class='respPicDiv'><img src='img/responseButtonOffersNo0_wht.png' class='respPic'></div></div>","null","10","Joseph","11","Kept","0.8,0.2","11","0.8","trustrating_stim/white_00602_940928_fb_edt.bmp","9","176","29"
"html-keyboard-response","215","419880","0.0-10.0-1.29","62e097c92160176b0b9c2619","bdp_trlrn","Thu Jul 28 2022 00:45:53 GMT-0400 (Eastern Daylight Time)","718444","Untrustworthy,Trustworthy","","1006","","","","decision","","<div class='trialDiv'><img src='trustrating_stim/white_mw046.bmp'><br><font class='baseline'><strong>Jordan</strong><p>Choose number of points to send.</font><div class='respPicDiv'><img src='img/responseButtonOffersNo0L.png' class='respPic'></div></div>","4","10","Jordan","6","Kept","0.65,0.2","14","0.65","trustrating_stim/white_mw046.bmp","6","181","30"
"html-keyboard-response","216","420132","0.0-10.0-2.29","62e097c92160176b0b9c2619","bdp_trlrn","Thu Jul 28 2022 00:45:53 GMT-0400 (Eastern Daylight Time)","718444","Untrustworthy,Trustworthy","","null","","","","decisionFB","","<div class='trialDiv'><img src='trustrating_stim/white_mw046.bmp'><br><font class='baseline'><strong>Jordan</strong><p>Choose number of points to send.</font><div class='respPicDiv'><img src='img/responseButtonOffersNo0L4.png' class='respPic'></div></div>","null","10","Jordan","6","Kept","0.65,0.2","14","0.65","trustrating_stim/white_mw046.bmp","6","177","30"
"html-keyboard-response","217","421134","0.0-10.0-3.29","62e097c92160176b0b9c2619","bdp_trlrn","Thu Jul 28 2022 00:45:53 GMT-0400 (Eastern Daylight Time)","718444","Untrustworthy,Trustworthy","","null","","","","feedback","","<div class='trialDiv'><img src='trustrating_stim/white_mw046.bmp'><br><font class='baseline'><strong>Jordan</strong><p>Received: <strong>16</strong></font> &nbsp; &nbsp; &nbsp; &nbsp; &nbsp; &nbsp;<font class='negOutcome'>Shared back: <strong>0</strong></font></font><div class='respPicDiv'><img src='img/responseButtonOffersNo0_wht.png' class='respPic'></div></div>","null","10","Jordan","6","Kept","0.65,0.2","14","0.65","trustrating_stim/white_mw046.bmp","6","177","30"
"html-keyboard-response","218","422116","0.0-10.0-1.30","62e097c92160176b0b9c2619","bdp_trlrn","Thu Jul 28 2022 00:45:53 GMT-0400 (Eastern Daylight Time)","718444","Untrustworthy,Trustworthy","","981","","","","decision","","<div class='trialDiv'><img src='trustrating_stim/white_00602_940928_fb_edt.bmp'><br><font class='baseline'><strong>Joseph</strong><p>Choose number of points to send.</font><div class='respPicDiv'><img src='img/responseButtonOffersNo0L.png' class='respPic'></div></div>","5","11","Joseph","11","Kept","0.8,0.2","11","0.8","trustrating_stim/white_00602_940928_fb_edt.bmp","9","182","31"
"html-keyboard-response","219","422368","0.0-10.0-2.30","62e097c92160176b0b9c2619","bdp_trlrn","Thu Jul 28 2022 00:45:53 GMT-0400 (Eastern Daylight Time)","718444","Untrustworthy,Trustworthy","","null","","","","decisionFB","","<div class='trialDiv'><img src='trustrating_stim/white_00602_940928_fb_edt.bmp'><br><font class='baseline'><strong>Joseph</strong><p>Choose number of points to send.</font><div class='respPicDiv'><img src='img/responseButtonOffersNo0L5.png' class='respPic'></div></div>","null","11","Joseph","11","Kept","0.8,0.2","11","0.8","trustrating_stim/white_00602_940928_fb_edt.bmp","9","177","31"
"html-keyboard-response","220","423369","0.0-10.0-3.30","62e097c92160176b0b9c2619","bdp_trlrn","Thu Jul 28 2022 00:45:53 GMT-0400 (Eastern Daylight Time)","718444","Untrustworthy,Trustworthy","","null","","","","feedback","","<div class='trialDiv'><img src='trustrating_stim/white_00602_940928_fb_edt.bmp'><br><font class='baseline'><strong>Joseph</strong><p>Received: <strong>20</strong></font> &nbsp; &nbsp; &nbsp; &nbsp; &nbsp; &nbsp;<font class='negOutcome'>Shared back: <strong>0</strong></font></font><div class='respPicDiv'><img src='img/responseButtonOffersNo0_wht.png' class='respPic'></div></div>","null","11","Joseph","11","Kept","0.8,0.2","11","0.8","trustrating_stim/white_00602_940928_fb_edt.bmp","9","177","31"
"html-keyboard-response","221","426150","0.0-10.0-1.31","62e097c92160176b0b9c2619","bdp_trlrn","Thu Jul 28 2022 00:45:53 GMT-0400 (Eastern Daylight Time)","718444","Untrustworthy,Trustworthy","","2779","","","","decision","","<div class='trialDiv'><img src='trustrating_stim/white_mw046.bmp'><br><font class='baseline'><strong>Jordan</strong><p>Choose number of points to send.</font><div class='respPicDiv'><img src='img/responseButtonOffersNo0L.png' class='respPic'></div></div>","2","11","Jordan","6","Shared","0.65,0.2","14","0.65","trustrating_stim/white_mw046.bmp","6","182","32"
"html-keyboard-response","222","426402","0.0-10.0-2.31","62e097c92160176b0b9c2619","bdp_trlrn","Thu Jul 28 2022 00:45:53 GMT-0400 (Eastern Daylight Time)","718444","Untrustworthy,Trustworthy","","null","","","","decisionFB","","<div class='trialDiv'><img src='trustrating_stim/white_mw046.bmp'><br><font class='baseline'><strong>Jordan</strong><p>Choose number of points to send.</font><div class='respPicDiv'><img src='img/responseButtonOffersNo0L2.png' class='respPic'></div></div>","null","11","Jordan","6","Shared","0.65,0.2","14","0.65","trustrating_stim/white_mw046.bmp","6","180","32"
