"trial_type","trial_index","time_elapsed","internal_node_id","subject_id","task","startTime","totalTime","labels","view_history","rt","event","trial","time","trialtype","success","stimulus","key_press","aground","name","faceID","outcome","agenttype","agentswpt","agentcurrpshare","face","avgRating","point_total","round"
"pavlovia","0","6","0.0-0.0","610745dee13497549c9d6fba","bdp_trlrn","Tue Mar 14 2023 19:25:05 GMT-0400 (Eastern Daylight Time)","759178","Trustworthy,Untrustworthy","","","","","","","","","","","","","","","","","","","",""
"instructions","1","6431","0.0-1.0","610745dee13497549c9d6fba","bdp_trlrn","Tue Mar 14 2023 19:25:05 GMT-0400 (Eastern Daylight Time)","759178","Trustworthy,Untrustworthy","[{""page_index"":0,""viewing_time"":6423}]","6424","","","","","","","","","","","","","","","","","",""
"","","","","610745dee13497549c9d6fba","bdp_trlrn","Tue Mar 14 2023 19:25:05 GMT-0400 (Eastern Daylight Time)","759178","Trustworthy,Untrustworthy","","","fullscreenenter","2","23135","fullscreenenter","","","","","","","","","","","","","",""
"fullscreen","2","24131","0.0-2.0","610745dee13497549c9d6fba","bdp_trlrn","Tue Mar 14 2023 19:25:05 GMT-0400 (Eastern Daylight Time)","759178","Trustworthy,Untrustworthy","","","","","","","true","","","","","","","","","","","","",""
"instructions","3","51901","0.0-4.0","610745dee13497549c9d6fba","bdp_trlrn","Tue Mar 14 2023 19:25:05 GMT-0400 (Eastern Daylight Time)","759178","Trustworthy,Untrustworthy","[{""page_index"":0,""viewing_time"":17124},{""page_index"":1,""viewing_time"":10645}]","27769","","","","","","","","","","","","","","","","","",""
"instructions","4","53762","0.0-5.0","610745dee13497549c9d6fba","bdp_trlrn","Tue Mar 14 2023 19:25:05 GMT-0400 (Eastern Daylight Time)","759178","Trustworthy,Untrustworthy","[{""page_index"":0,""viewing_time"":1859}]","1859","","","","","","","","","","","","","","","","","",""
"image-keyboard-response","5","57944","0.0-6.0-1.0","610745dee13497549c9d6fba","bdp_trlrn","Tue Mar 14 2023 19:25:05 GMT-0400 (Eastern Daylight Time)","759178","Trustworthy,Untrustworthy","","4075","","","","rating","","trustrating_stim/white_mw097.bmp","9","","","","","","","","","","",""
"image-keyboard-response","6","58151","0.0-6.0-2.0","610745dee13497549c9d6fba","bdp_trlrn","Tue Mar 14 2023 19:25:05 GMT-0400 (Eastern Daylight Time)","759178","Trustworthy,Untrustworthy","","null","","","","ratingFB","","trustrating_stim/white_mw097.bmp","null","","","","","","","","","","",""
"image-keyboard-response","7","60179","0.0-6.0-1.1","610745dee13497549c9d6fba","bdp_trlrn","Tue Mar 14 2023 19:25:05 GMT-0400 (Eastern Daylight Time)","759178","Trustworthy,Untrustworthy","","1918","","","","rating","","trustrating_stim/white_00785_941205_fb_edt.bmp","8","","","","","","","","","","",""
"image-keyboard-response","8","60389","0.0-6.0-2.1","610745dee13497549c9d6fba","bdp_trlrn","Tue Mar 14 2023 19:25:05 GMT-0400 (Eastern Daylight Time)","759178","Trustworthy,Untrustworthy","","null","","","","ratingFB","","trustrating_stim/white_00785_941205_fb_edt.bmp","null","","","","","","","","","","",""
"image-keyboard-response","9","62530","0.0-6.0-1.2","610745dee13497549c9d6fba","bdp_trlrn","Tue Mar 14 2023 19:25:05 GMT-0400 (Eastern Daylight Time)","759178","Trustworthy,Untrustworthy","","2035","","","","rating","","trustrating_stim/white_00120_931230_fa_edt.bmp","4","","","","","","","","","","",""
"image-keyboard-response","10","62744","0.0-6.0-2.2","610745dee13497549c9d6fba","bdp_trlrn","Tue Mar 14 2023 19:25:05 GMT-0400 (Eastern Daylight Time)","759178","Trustworthy,Untrustworthy","","null","","","","ratingFB","","trustrating_stim/white_00120_931230_fa_edt.bmp","null","","","","","","","","","","",""
"image-keyboard-response","11","64902","0.0-6.0-1.3","610745dee13497549c9d6fba","bdp_trlrn","Tue Mar 14 2023 19:25:05 GMT-0400 (Eastern Daylight Time)","759178","Trustworthy,Untrustworthy","","2049","","","","rating","","trustrating_stim/white_mw099.bmp","8","","","","","","","","","","",""
"image-keyboard-response","12","65110","0.0-6.0-2.3","610745dee13497549c9d6fba","bdp_trlrn","Tue Mar 14 2023 19:25:05 GMT-0400 (Eastern Daylight Time)","759178","Trustworthy,Untrustworthy","","null","","","","ratingFB","","trustrating_stim/white_mw099.bmp","null","","","","","","","","","","",""
"image-keyboard-response","13","67283","0.0-6.0-1.4","610745dee13497549c9d6fba","bdp_trlrn","Tue Mar 14 2023 19:25:05 GMT-0400 (Eastern Daylight Time)","759178","Trustworthy,Untrustworthy","","2066","","","","rating","","trustrating_stim/white_00659_941121_fa_edt.bmp","9","","","","","","","","","","",""
"image-keyboard-response","14","67491","0.0-6.0-2.4","610745dee13497549c9d6fba","bdp_trlrn","Tue Mar 14 2023 19:25:05 GMT-0400 (Eastern Daylight Time)","759178","Trustworthy,Untrustworthy","","null","","","","ratingFB","","trustrating_stim/white_00659_941121_fa_edt.bmp","null","","","","","","","","","","",""
"image-keyboard-response","15","69651","0.0-6.0-1.5","610745dee13497549c9d6fba","bdp_trlrn","Tue Mar 14 2023 19:25:05 GMT-0400 (Eastern Daylight Time)","759178","Trustworthy,Untrustworthy","","2015","","","","rating","","trustrating_stim/white_mw071.bmp","6","","","","","","","","","","",""
"image-keyboard-response","16","69859","0.0-6.0-2.5","610745dee13497549c9d6fba","bdp_trlrn","Tue Mar 14 2023 19:25:05 GMT-0400 (Eastern Daylight Time)","759178","Trustworthy,Untrustworthy","","null","","","","ratingFB","","trustrating_stim/white_mw071.bmp","null","","","","","","","","","","",""
"image-keyboard-response","17","71398","0.0-6.0-1.6","610745dee13497549c9d6fba","bdp_trlrn","Tue Mar 14 2023 19:25:05 GMT-0400 (Eastern Daylight Time)","759178","Trustworthy,Untrustworthy","","1434","","","","rating","","trustrating_stim/white_00807_941205_fb_edt.bmp","9","","","","","","","","","","",""
"image-keyboard-response","18","71606","0.0-6.0-2.6","610745dee13497549c9d6fba","bdp_trlrn","Tue Mar 14 2023 19:25:05 GMT-0400 (Eastern Daylight Time)","759178","Trustworthy,Untrustworthy","","null","","","","ratingFB","","trustrating_stim/white_00807_941205_fb_edt.bmp","null","","","","","","","","","","",""
"image-keyboard-response","19","73516","0.0-6.0-1.7","610745dee13497549c9d6fba","bdp_trlrn","Tue Mar 14 2023 19:25:05 GMT-0400 (Eastern Daylight Time)","759178","Trustworthy,Untrustworthy","","1804","","","","rating","","trustrating_stim/white_00129_931230_fb_edt.bmp","6","","","","","","","","","","",""
"image-keyboard-response","20","73724","0.0-6.0-2.7","610745dee13497549c9d6fba","bdp_trlrn","Tue Mar 14 2023 19:25:05 GMT-0400 (Eastern Daylight Time)","759178","Trustworthy,Untrustworthy","","null","","","","ratingFB","","trustrating_stim/white_00129_931230_fb_edt.bmp","null","","","","","","","","","","",""
"image-keyboard-response","21","76054","0.0-6.0-1.8","610745dee13497549c9d6fba","bdp_trlrn","Tue Mar 14 2023 19:25:05 GMT-0400 (Eastern Daylight Time)","759178","Trustworthy,Untrustworthy","","2226","","","","rating","","trustrating_stim/white_00761_941201_fb_edt.bmp","7","","","","","","","","","","",""
"image-keyboard-response","22","76263","0.0-6.0-2.8","610745dee13497549c9d6fba","bdp_trlrn","Tue Mar 14 2023 19:25:05 GMT-0400 (Eastern Daylight Time)","759178","Trustworthy,Untrustworthy","","null","","","","ratingFB","","trustrating_stim/white_00761_941201_fb_edt.bmp","null","","","","","","","","","","",""
"image-keyboard-response","23","78137","0.0-6.0-1.9","610745dee13497549c9d6fba","bdp_trlrn","Tue Mar 14 2023 19:25:05 GMT-0400 (Eastern Daylight Time)","759178","Trustworthy,Untrustworthy","","1760","","","","rating","","trustrating_stim/white_00757_941201_fa_edt.bmp","8","","","","","","","","","","",""
"image-keyboard-response","24","78339","0.0-6.0-2.9","610745dee13497549c9d6fba","bdp_trlrn","Tue Mar 14 2023 19:25:05 GMT-0400 (Eastern Daylight Time)","759178","Trustworthy,Untrustworthy","","null","","","","ratingFB","","trustrating_stim/white_00757_941201_fa_edt.bmp","null","","","","","","","","","","",""
"image-keyboard-response","25","80312","0.0-6.0-1.10","610745dee13497549c9d6fba","bdp_trlrn","Tue Mar 14 2023 19:25:05 GMT-0400 (Eastern Daylight Time)","759178","Trustworthy,Untrustworthy","","1864","","","","rating","","trustrating_stim/white_mw063.bmp","9","","","","","","","","","","",""
"image-keyboard-response","26","80520","0.0-6.0-2.10","610745dee13497549c9d6fba","bdp_trlrn","Tue Mar 14 2023 19:25:05 GMT-0400 (Eastern Daylight Time)","759178","Trustworthy,Untrustworthy","","null","","","","ratingFB","","trustrating_stim/white_mw063.bmp","null","","","","","","","","","","",""
"image-keyboard-response","27","82481","0.0-6.0-1.11","610745dee13497549c9d6fba","bdp_trlrn","Tue Mar 14 2023 19:25:05 GMT-0400 (Eastern Daylight Time)","759178","Trustworthy,Untrustworthy","","1848","","","","rating","","trustrating_stim/white_00109_931230_fa_edt.bmp","5","","","","","","","","","","",""
"image-keyboard-response","28","82687","0.0-6.0-2.11","610745dee13497549c9d6fba","bdp_trlrn","Tue Mar 14 2023 19:25:05 GMT-0400 (Eastern Daylight Time)","759178","Trustworthy,Untrustworthy","","null","","","","ratingFB","","trustrating_stim/white_00109_931230_fa_edt.bmp","null","","","","","","","","","","",""
"image-keyboard-response","29","84373","0.0-6.0-1.12","610745dee13497549c9d6fba","bdp_trlrn","Tue Mar 14 2023 19:25:05 GMT-0400 (Eastern Daylight Time)","759178","Trustworthy,Untrustworthy","","1573","","","","rating","","trustrating_stim/white_00577_940928_fa_edt.bmp","8","","","","","","","","","","",""
"image-keyboard-response","30","84582","0.0-6.0-2.12","610745dee13497549c9d6fba","bdp_trlrn","Tue Mar 14 2023 19:25:05 GMT-0400 (Eastern Daylight Time)","759178","Trustworthy,Untrustworthy","","null","","","","ratingFB","","trustrating_stim/white_00577_940928_fa_edt.bmp","null","","","","","","","","","","",""
"image-keyboard-response","31","85983","0.0-6.0-1.13","610745dee13497549c9d6fba","bdp_trlrn","Tue Mar 14 2023 19:25:05 GMT-0400 (Eastern Daylight Time)","759178","Trustworthy,Untrustworthy","","1290","","","","rating","","trustrating_stim/white_mw033.bmp","7","","","","","","","","","","",""
"image-keyboard-response","32","86188","0.0-6.0-2.13","610745dee13497549c9d6fba","bdp_trlrn","Tue Mar 14 2023 19:25:05 GMT-0400 (Eastern Daylight Time)","759178","Trustworthy,Untrustworthy","","null","","","","ratingFB","","trustrating_stim/white_mw033.bmp","null","","","","","","","","","","",""
"image-keyboard-response","33","87537","0.0-6.0-1.14","610745dee13497549c9d6fba","bdp_trlrn","Tue Mar 14 2023 19:25:05 GMT-0400 (Eastern Daylight Time)","759178","Trustworthy,Untrustworthy","","1245","","","","rating","","trustrating_stim/white_00299_940422_fa_edt.bmp","6","","","","","","","","","","",""
"image-keyboard-response","34","87739","0.0-6.0-2.14","610745dee13497549c9d6fba","bdp_trlrn","Tue Mar 14 2023 19:25:05 GMT-0400 (Eastern Daylight Time)","759178","Trustworthy,Untrustworthy","","null","","","","ratingFB","","trustrating_stim/white_00299_940422_fa_edt.bmp","null","","","","","","","","","","",""
"image-keyboard-response","35","90258","0.0-6.0-1.15","610745dee13497549c9d6fba","bdp_trlrn","Tue Mar 14 2023 19:25:05 GMT-0400 (Eastern Daylight Time)","759178","Trustworthy,Untrustworthy","","2410","","","","rating","","trustrating_stim/white_mw035.bmp","8","","","","","","","","","","",""
"image-keyboard-response","36","90468","0.0-6.0-2.15","610745dee13497549c9d6fba","bdp_trlrn","Tue Mar 14 2023 19:25:05 GMT-0400 (Eastern Daylight Time)","759178","Trustworthy,Untrustworthy","","null","","","","ratingFB","","trustrating_stim/white_mw035.bmp","null","","","","","","","","","","",""
"image-keyboard-response","37","92121","0.0-6.0-1.16","610745dee13497549c9d6fba","bdp_trlrn","Tue Mar 14 2023 19:25:05 GMT-0400 (Eastern Daylight Time)","759178","Trustworthy,Untrustworthy","","1544","","","","rating","","trustrating_stim/white_00519_940519_fb_edt.bmp","8","","","","","","","","","","",""
"image-keyboard-response","38","92323","0.0-6.0-2.16","610745dee13497549c9d6fba","bdp_trlrn","Tue Mar 14 2023 19:25:05 GMT-0400 (Eastern Daylight Time)","759178","Trustworthy,Untrustworthy","","null","","","","ratingFB","","trustrating_stim/white_00519_940519_fb_edt.bmp","null","","","","","","","","","","",""
"image-keyboard-response","39","94004","0.0-6.0-1.17","610745dee13497549c9d6fba","bdp_trlrn","Tue Mar 14 2023 19:25:05 GMT-0400 (Eastern Daylight Time)","759178","Trustworthy,Untrustworthy","","1574","","","","rating","","trustrating_stim/white_00340_940422_fa_edt.bmp","7","","","","","","","","","","",""
"image-keyboard-response","40","94215","0.0-6.0-2.17","610745dee13497549c9d6fba","bdp_trlrn","Tue Mar 14 2023 19:25:05 GMT-0400 (Eastern Daylight Time)","759178","Trustworthy,Untrustworthy","","null","","","","ratingFB","","trustrating_stim/white_00340_940422_fa_edt.bmp","null","","","","","","","","","","",""
"image-keyboard-response","41","96198","0.0-6.0-1.18","610745dee13497549c9d6fba","bdp_trlrn","Tue Mar 14 2023 19:25:05 GMT-0400 (Eastern Daylight Time)","759178","Trustworthy,Untrustworthy","","1869","","","","rating","","trustrating_stim/white_mw089.bmp","6","","","","","","","","","","",""
"image-keyboard-response","42","96408","0.0-6.0-2.18","610745dee13497549c9d6fba","bdp_trlrn","Tue Mar 14 2023 19:25:05 GMT-0400 (Eastern Daylight Time)","759178","Trustworthy,Untrustworthy","","null","","","","ratingFB","","trustrating_stim/white_mw089.bmp","null","","","","","","","","","","",""
"image-keyboard-response","43","98821","0.0-6.0-1.19","610745dee13497549c9d6fba","bdp_trlrn","Tue Mar 14 2023 19:25:05 GMT-0400 (Eastern Daylight Time)","759178","Trustworthy,Untrustworthy","","2305","","","","rating","","trustrating_stim/white_00898_960530_fa_edt.bmp","3","","","","","","","","","","",""
"image-keyboard-response","44","99030","0.0-6.0-2.19","610745dee13497549c9d6fba","bdp_trlrn","Tue Mar 14 2023 19:25:05 GMT-0400 (Eastern Daylight Time)","759178","Trustworthy,Untrustworthy","","null","","","","ratingFB","","trustrating_stim/white_00898_960530_fa_edt.bmp","null","","","","","","","","","","",""
"image-keyboard-response","45","101263","0.0-6.0-1.20","610745dee13497549c9d6fba","bdp_trlrn","Tue Mar 14 2023 19:25:05 GMT-0400 (Eastern Daylight Time)","759178","Trustworthy,Untrustworthy","","2120","","","","rating","","trustrating_stim/white_mw053.bmp","7","","","","","","","","","","",""
"image-keyboard-response","46","101472","0.0-6.0-2.20","610745dee13497549c9d6fba","bdp_trlrn","Tue Mar 14 2023 19:25:05 GMT-0400 (Eastern Daylight Time)","759178","Trustworthy,Untrustworthy","","null","","","","ratingFB","","trustrating_stim/white_mw053.bmp","null","","","","","","","","","","",""
"image-keyboard-response","47","102474","0.0-6.0-1.21","610745dee13497549c9d6fba","bdp_trlrn","Tue Mar 14 2023 19:25:05 GMT-0400 (Eastern Daylight Time)","759178","Trustworthy,Untrustworthy","","890","","","","rating","","trustrating_stim/white_mw060.bmp","9","","","","","","","","","","",""
"image-keyboard-response","48","102688","0.0-6.0-2.21","610745dee13497549c9d6fba","bdp_trlrn","Tue Mar 14 2023 19:25:05 GMT-0400 (Eastern Daylight Time)","759178","Trustworthy,Untrustworthy","","null","","","","ratingFB","","trustrating_stim/white_mw060.bmp","null","","","","","","","","","","",""
"image-keyboard-response","49","105335","0.0-6.0-1.22","610745dee13497549c9d6fba","bdp_trlrn","Tue Mar 14 2023 19:25:05 GMT-0400 (Eastern Daylight Time)","759178","Trustworthy,Untrustworthy","","2538","","","","rating","","trustrating_stim/white_mw049.bmp","5","","","","","","","","","","",""
"image-keyboard-response","50","105541","0.0-6.0-2.22","610745dee13497549c9d6fba","bdp_trlrn","Tue Mar 14 2023 19:25:05 GMT-0400 (Eastern Daylight Time)","759178","Trustworthy,Untrustworthy","","null","","","","ratingFB","","trustrating_stim/white_mw049.bmp","null","","","","","","","","","","",""
"image-keyboard-response","51","107590","0.0-6.0-1.23","610745dee13497549c9d6fba","bdp_trlrn","Tue Mar 14 2023 19:25:05 GMT-0400 (Eastern Daylight Time)","759178","Trustworthy,Untrustworthy","","1941","","","","rating","","trustrating_stim/white_mw066.bmp","4","","","","","","","","","","",""
"image-keyboard-response","52","107796","0.0-6.0-2.23","610745dee13497549c9d6fba","bdp_trlrn","Tue Mar 14 2023 19:25:05 GMT-0400 (Eastern Daylight Time)","759178","Trustworthy,Untrustworthy","","null","","","","ratingFB","","trustrating_stim/white_mw066.bmp","null","","","","","","","","","","",""
"image-keyboard-response","53","110334","0.0-6.0-1.24","610745dee13497549c9d6fba","bdp_trlrn","Tue Mar 14 2023 19:25:05 GMT-0400 (Eastern Daylight Time)","759178","Trustworthy,Untrustworthy","","2432","","","","rating","","trustrating_stim/white_mw056.bmp","7","","","","","","","","","","",""
"image-keyboard-response","54","110540","0.0-6.0-2.24","610745dee13497549c9d6fba","bdp_trlrn","Tue Mar 14 2023 19:25:05 GMT-0400 (Eastern Daylight Time)","759178","Trustworthy,Untrustworthy","","null","","","","ratingFB","","trustrating_stim/white_mw056.bmp","null","","","","","","","","","","",""
"image-keyboard-response","55","111998","0.0-6.0-1.25","610745dee13497549c9d6fba","bdp_trlrn","Tue Mar 14 2023 19:25:05 GMT-0400 (Eastern Daylight Time)","759178","Trustworthy,Untrustworthy","","1353","","","","rating","","trustrating_stim/white_mw046.bmp","9","","","","","","","","","","",""
"image-keyboard-response","56","112204","0.0-6.0-2.25","610745dee13497549c9d6fba","bdp_trlrn","Tue Mar 14 2023 19:25:05 GMT-0400 (Eastern Daylight Time)","759178","Trustworthy,Untrustworthy","","null","","","","ratingFB","","trustrating_stim/white_mw046.bmp","null","","","","","","","","","","",""
"image-keyboard-response","57","114292","0.0-6.0-1.26","610745dee13497549c9d6fba","bdp_trlrn","Tue Mar 14 2023 19:25:05 GMT-0400 (Eastern Daylight Time)","759178","Trustworthy,Untrustworthy","","1984","","","","rating","","trustrating_stim/white_00602_940928_fb_edt.bmp","6","","","","","","","","","","",""
"image-keyboard-response","58","114500","0.0-6.0-2.26","610745dee13497549c9d6fba","bdp_trlrn","Tue Mar 14 2023 19:25:05 GMT-0400 (Eastern Daylight Time)","759178","Trustworthy,Untrustworthy","","null","","","","ratingFB","","trustrating_stim/white_00602_940928_fb_edt.bmp","null","","","","","","","","","","",""
"image-keyboard-response","59","117222","0.0-6.0-1.27","610745dee13497549c9d6fba","bdp_trlrn","Tue Mar 14 2023 19:25:05 GMT-0400 (Eastern Daylight Time)","759178","Trustworthy,Untrustworthy","","2616","","","","rating","","trustrating_stim/white_00223_940128_fb_edt.bmp","7","","","","","","","","","","",""
"image-keyboard-response","60","117432","0.0-6.0-2.27","610745dee13497549c9d6fba","bdp_trlrn","Tue Mar 14 2023 19:25:05 GMT-0400 (Eastern Daylight Time)","759178","Trustworthy,Untrustworthy","","null","","","","ratingFB","","trustrating_stim/white_00223_940128_fb_edt.bmp","null","","","","","","","","","","",""
"image-keyboard-response","61","119305","0.0-6.0-1.28","610745dee13497549c9d6fba","bdp_trlrn","Tue Mar 14 2023 19:25:05 GMT-0400 (Eastern Daylight Time)","759178","Trustworthy,Untrustworthy","","1765","","","","rating","","trustrating_stim/white_mw084.bmp","7","","","","","","","","","","",""
"image-keyboard-response","62","119508","0.0-6.0-2.28","610745dee13497549c9d6fba","bdp_trlrn","Tue Mar 14 2023 19:25:05 GMT-0400 (Eastern Daylight Time)","759178","Trustworthy,Untrustworthy","","null","","","","ratingFB","","trustrating_stim/white_mw084.bmp","null","","","","","","","","","","",""
"image-keyboard-response","63","121169","0.0-6.0-1.29","610745dee13497549c9d6fba","bdp_trlrn","Tue Mar 14 2023 19:25:05 GMT-0400 (Eastern Daylight Time)","759178","Trustworthy,Untrustworthy","","1556","","","","rating","","trustrating_stim/white_mw048.bmp","9","","","","","","","","","","",""
"image-keyboard-response","64","121371","0.0-6.0-2.29","610745dee13497549c9d6fba","bdp_trlrn","Tue Mar 14 2023 19:25:05 GMT-0400 (Eastern Daylight Time)","759178","Trustworthy,Untrustworthy","","null","","","","ratingFB","","trustrating_stim/white_mw048.bmp","null","","","","","","","","","","",""
"image-keyboard-response","65","124542","0.0-6.0-1.30","610745dee13497549c9d6fba","bdp_trlrn","Tue Mar 14 2023 19:25:05 GMT-0400 (Eastern Daylight Time)","759178","Trustworthy,Untrustworthy","","3062","","","","rating","","trustrating_stim/white_00340_940422_fa_edt.bmp","7","","","","","","","","","","",""
"image-keyboard-response","66","124750","0.0-6.0-2.30","610745dee13497549c9d6fba","bdp_trlrn","Tue Mar 14 2023 19:25:05 GMT-0400 (Eastern Daylight Time)","759178","Trustworthy,Untrustworthy","","null","","","","ratingFB","","trustrating_stim/white_00340_940422_fa_edt.bmp","null","","","","","","","","","","",""
"image-keyboard-response","67","127852","0.0-6.0-1.31","610745dee13497549c9d6fba","bdp_trlrn","Tue Mar 14 2023 19:25:05 GMT-0400 (Eastern Daylight Time)","759178","Trustworthy,Untrustworthy","","2992","","","","rating","","trustrating_stim/white_mw033.bmp","7","","","","","","","","","","",""
"image-keyboard-response","68","128060","0.0-6.0-2.31","610745dee13497549c9d6fba","bdp_trlrn","Tue Mar 14 2023 19:25:05 GMT-0400 (Eastern Daylight Time)","759178","Trustworthy,Untrustworthy","","null","","","","ratingFB","","trustrating_stim/white_mw033.bmp","null","","","","","","","","","","",""
"image-keyboard-response","69","129800","0.0-6.0-1.32","610745dee13497549c9d6fba","bdp_trlrn","Tue Mar 14 2023 19:25:05 GMT-0400 (Eastern Daylight Time)","759178","Trustworthy,Untrustworthy","","1635","","","","rating","","trustrating_stim/white_00807_941205_fb_edt.bmp","9","","","","","","","","","","",""
"image-keyboard-response","70","130008","0.0-6.0-2.32","610745dee13497549c9d6fba","bdp_trlrn","Tue Mar 14 2023 19:25:05 GMT-0400 (Eastern Daylight Time)","759178","Trustworthy,Untrustworthy","","null","","","","ratingFB","","trustrating_stim/white_00807_941205_fb_edt.bmp","null","","","","","","","","","","",""
"image-keyboard-response","71","133096","0.0-6.0-1.33","610745dee13497549c9d6fba","bdp_trlrn","Tue Mar 14 2023 19:25:05 GMT-0400 (Eastern Daylight Time)","759178","Trustworthy,Untrustworthy","","2979","","","","rating","","trustrating_stim/white_mw099.bmp","7","","","","","","","","","","",""
"image-keyboard-response","72","133302","0.0-6.0-2.33","610745dee13497549c9d6fba","bdp_trlrn","Tue Mar 14 2023 19:25:05 GMT-0400 (Eastern Daylight Time)","759178","Trustworthy,Untrustworthy","","null","","","","ratingFB","","trustrating_stim/white_mw099.bmp","null","","","","","","","","","","",""
"image-keyboard-response","73","136264","0.0-6.0-1.34","610745dee13497549c9d6fba","bdp_trlrn","Tue Mar 14 2023 19:25:05 GMT-0400 (Eastern Daylight Time)","759178","Trustworthy,Untrustworthy","","2849","","","","rating","","trustrating_stim/white_mw066.bmp","5","","","","","","","","","","",""
"image-keyboard-response","74","136468","0.0-6.0-2.34","610745dee13497549c9d6fba","bdp_trlrn","Tue Mar 14 2023 19:25:05 GMT-0400 (Eastern Daylight Time)","759178","Trustworthy,Untrustworthy","","null","","","","ratingFB","","trustrating_stim/white_mw066.bmp","null","","","","","","","","","","",""
"image-keyboard-response","75","138671","0.0-6.0-1.35","610745dee13497549c9d6fba","bdp_trlrn","Tue Mar 14 2023 19:25:05 GMT-0400 (Eastern Daylight Time)","759178","Trustworthy,Untrustworthy","","2099","","","","rating","","trustrating_stim/white_mw056.bmp","7","","","","","","","","","","",""
"image-keyboard-response","76","138875","0.0-6.0-2.35","610745dee13497549c9d6fba","bdp_trlrn","Tue Mar 14 2023 19:25:05 GMT-0400 (Eastern Daylight Time)","759178","Trustworthy,Untrustworthy","","null","","","","ratingFB","","trustrating_stim/white_mw056.bmp","null","","","","","","","","","","",""
"image-keyboard-response","77","141328","0.0-6.0-1.36","610745dee13497549c9d6fba","bdp_trlrn","Tue Mar 14 2023 19:25:05 GMT-0400 (Eastern Daylight Time)","759178","Trustworthy,Untrustworthy","","2346","","","","rating","","trustrating_stim/white_mw089.bmp","5","","","","","","","","","","",""
"image-keyboard-response","78","141535","0.0-6.0-2.36","610745dee13497549c9d6fba","bdp_trlrn","Tue Mar 14 2023 19:25:05 GMT-0400 (Eastern Daylight Time)","759178","Trustworthy,Untrustworthy","","null","","","","ratingFB","","trustrating_stim/white_mw089.bmp","null","","","","","","","","","","",""
"image-keyboard-response","79","143214","0.0-6.0-1.37","610745dee13497549c9d6fba","bdp_trlrn","Tue Mar 14 2023 19:25:05 GMT-0400 (Eastern Daylight Time)","759178","Trustworthy,Untrustworthy","","1570","","","","rating","","trustrating_stim/white_00577_940928_fa_edt.bmp","8","","","","","","","","","","",""
"image-keyboard-response","80","143421","0.0-6.0-2.37","610745dee13497549c9d6fba","bdp_trlrn","Tue Mar 14 2023 19:25:05 GMT-0400 (Eastern Daylight Time)","759178","Trustworthy,Untrustworthy","","null","","","","ratingFB","","trustrating_stim/white_00577_940928_fa_edt.bmp","null","","","","","","","","","","",""
"image-keyboard-response","81","145590","0.0-6.0-1.38","610745dee13497549c9d6fba","bdp_trlrn","Tue Mar 14 2023 19:25:05 GMT-0400 (Eastern Daylight Time)","759178","Trustworthy,Untrustworthy","","2057","","","","rating","","trustrating_stim/white_00898_960530_fa_edt.bmp","3","","","","","","","","","","",""
"image-keyboard-response","82","145797","0.0-6.0-2.38","610745dee13497549c9d6fba","bdp_trlrn","Tue Mar 14 2023 19:25:05 GMT-0400 (Eastern Daylight Time)","759178","Trustworthy,Untrustworthy","","null","","","","ratingFB","","trustrating_stim/white_00898_960530_fa_edt.bmp","null","","","","","","","","","","",""
"image-keyboard-response","83","147451","0.0-6.0-1.39","610745dee13497549c9d6fba","bdp_trlrn","Tue Mar 14 2023 19:25:05 GMT-0400 (Eastern Daylight Time)","759178","Trustworthy,Untrustworthy","","1538","","","","rating","","trustrating_stim/white_00761_941201_fb_edt.bmp","8","","","","","","","","","","",""
"image-keyboard-response","84","147664","0.0-6.0-2.39","610745dee13497549c9d6fba","bdp_trlrn","Tue Mar 14 2023 19:25:05 GMT-0400 (Eastern Daylight Time)","759178","Trustworthy,Untrustworthy","","null","","","","ratingFB","","trustrating_stim/white_00761_941201_fb_edt.bmp","null","","","","","","","","","","",""
"image-keyboard-response","85","148783","0.0-6.0-1.40","610745dee13497549c9d6fba","bdp_trlrn","Tue Mar 14 2023 19:25:05 GMT-0400 (Eastern Daylight Time)","759178","Trustworthy,Untrustworthy","","1010","","","","rating","","trustrating_stim/white_00519_940519_fb_edt.bmp","9","","","","","","","","","","",""
"image-keyboard-response","86","148988","0.0-6.0-2.40","610745dee13497549c9d6fba","bdp_trlrn","Tue Mar 14 2023 19:25:05 GMT-0400 (Eastern Daylight Time)","759178","Trustworthy,Untrustworthy","","null","","","","ratingFB","","trustrating_stim/white_00519_940519_fb_edt.bmp","null","","","","","","","","","","",""
"image-keyboard-response","87","150523","0.0-6.0-1.41","610745dee13497549c9d6fba","bdp_trlrn","Tue Mar 14 2023 19:25:05 GMT-0400 (Eastern Daylight Time)","759178","Trustworthy,Untrustworthy","","1430","","","","rating","","trustrating_stim/white_mw063.bmp","8","","","","","","","","","","",""
"image-keyboard-response","88","150736","0.0-6.0-2.41","610745dee13497549c9d6fba","bdp_trlrn","Tue Mar 14 2023 19:25:05 GMT-0400 (Eastern Daylight Time)","759178","Trustworthy,Untrustworthy","","null","","","","ratingFB","","trustrating_stim/white_mw063.bmp","null","","","","","","","","","","",""
"image-keyboard-response","89","152850","0.0-6.0-1.42","610745dee13497549c9d6fba","bdp_trlrn","Tue Mar 14 2023 19:25:05 GMT-0400 (Eastern Daylight Time)","759178","Trustworthy,Untrustworthy","","2005","","","","rating","","trustrating_stim/white_00109_931230_fa_edt.bmp","4","","","","","","","","","","",""
"image-keyboard-response","90","153054","0.0-6.0-2.42","610745dee13497549c9d6fba","bdp_trlrn","Tue Mar 14 2023 19:25:05 GMT-0400 (Eastern Daylight Time)","759178","Trustworthy,Untrustworthy","","null","","","","ratingFB","","trustrating_stim/white_00109_931230_fa_edt.bmp","null","","","","","","","","","","",""
"image-keyboard-response","91","155072","0.0-6.0-1.43","610745dee13497549c9d6fba","bdp_trlrn","Tue Mar 14 2023 19:25:05 GMT-0400 (Eastern Daylight Time)","759178","Trustworthy,Untrustworthy","","1911","","","","rating","","trustrating_stim/white_mw060.bmp","7","","","","","","","","","","",""
"image-keyboard-response","92","155280","0.0-6.0-2.43","610745dee13497549c9d6fba","bdp_trlrn","Tue Mar 14 2023 19:25:05 GMT-0400 (Eastern Daylight Time)","759178","Trustworthy,Untrustworthy","","null","","","","ratingFB","","trustrating_stim/white_mw060.bmp","null","","","","","","","","","","",""
"image-keyboard-response","93","156622","0.0-6.0-1.44","610745dee13497549c9d6fba","bdp_trlrn","Tue Mar 14 2023 19:25:05 GMT-0400 (Eastern Daylight Time)","759178","Trustworthy,Untrustworthy","","1233","","","","rating","","trustrating_stim/white_mw097.bmp","9","","","","","","","","","","",""
"image-keyboard-response","94","156825","0.0-6.0-2.44","610745dee13497549c9d6fba","bdp_trlrn","Tue Mar 14 2023 19:25:05 GMT-0400 (Eastern Daylight Time)","759178","Trustworthy,Untrustworthy","","null","","","","ratingFB","","trustrating_stim/white_mw097.bmp","null","","","","","","","","","","",""
"image-keyboard-response","95","157921","0.0-6.0-1.45","610745dee13497549c9d6fba","bdp_trlrn","Tue Mar 14 2023 19:25:05 GMT-0400 (Eastern Daylight Time)","759178","Trustworthy,Untrustworthy","","987","","","","rating","","trustrating_stim/white_00785_941205_fb_edt.bmp","9","","","","","","","","","","",""
"image-keyboard-response","96","158123","0.0-6.0-2.45","610745dee13497549c9d6fba","bdp_trlrn","Tue Mar 14 2023 19:25:05 GMT-0400 (Eastern Daylight Time)","759178","Trustworthy,Untrustworthy","","null","","","","ratingFB","","trustrating_stim/white_00785_941205_fb_edt.bmp","null","","","","","","","","","","",""
"image-keyboard-response","97","160308","0.0-6.0-1.46","610745dee13497549c9d6fba","bdp_trlrn","Tue Mar 14 2023 19:25:05 GMT-0400 (Eastern Daylight Time)","759178","Trustworthy,Untrustworthy","","2074","","","","rating","","trustrating_stim/white_mw035.bmp","5","","","","","","","","","","",""
"image-keyboard-response","98","160515","0.0-6.0-2.46","610745dee13497549c9d6fba","bdp_trlrn","Tue Mar 14 2023 19:25:05 GMT-0400 (Eastern Daylight Time)","759178","Trustworthy,Untrustworthy","","null","","","","ratingFB","","trustrating_stim/white_mw035.bmp","null","","","","","","","","","","",""
"image-keyboard-response","99","161748","0.0-6.0-1.47","610745dee13497549c9d6fba","bdp_trlrn","Tue Mar 14 2023 19:25:05 GMT-0400 (Eastern Daylight Time)","759178","Trustworthy,Untrustworthy","","1126","","","","rating","","trustrating_stim/white_00659_941121_fa_edt.bmp","7","","","","","","","","","","",""
"image-keyboard-response","100","161956","0.0-6.0-2.47","610745dee13497549c9d6fba","bdp_trlrn","Tue Mar 14 2023 19:25:05 GMT-0400 (Eastern Daylight Time)","759178","Trustworthy,Untrustworthy","","null","","","","ratingFB","","trustrating_stim/white_00659_941121_fa_edt.bmp","null","","","","","","","","","","",""
"image-keyboard-response","101","163786","0.0-6.0-1.48","610745dee13497549c9d6fba","bdp_trlrn","Tue Mar 14 2023 19:25:05 GMT-0400 (Eastern Daylight Time)","759178","Trustworthy,Untrustworthy","","1723","","","","rating","","trustrating_stim/white_mw053.bmp","6","","","","","","","","","","",""
"image-keyboard-response","102","163996","0.0-6.0-2.48","610745dee13497549c9d6fba","bdp_trlrn","Tue Mar 14 2023 19:25:05 GMT-0400 (Eastern Daylight Time)","759178","Trustworthy,Untrustworthy","","null","","","","ratingFB","","trustrating_stim/white_mw053.bmp","null","","","","","","","","","","",""
"image-keyboard-response","103","165523","0.0-6.0-1.49","610745dee13497549c9d6fba","bdp_trlrn","Tue Mar 14 2023 19:25:05 GMT-0400 (Eastern Daylight Time)","759178","Trustworthy,Untrustworthy","","1420","","","","rating","","trustrating_stim/white_mw046.bmp","8","","","","","","","","","","",""
"image-keyboard-response","104","165736","0.0-6.0-2.49","610745dee13497549c9d6fba","bdp_trlrn","Tue Mar 14 2023 19:25:05 GMT-0400 (Eastern Daylight Time)","759178","Trustworthy,Untrustworthy","","null","","","","ratingFB","","trustrating_stim/white_mw046.bmp","null","","","","","","","","","","",""
"image-keyboard-response","105","166842","0.0-6.0-1.50","610745dee13497549c9d6fba","bdp_trlrn","Tue Mar 14 2023 19:25:05 GMT-0400 (Eastern Daylight Time)","759178","Trustworthy,Untrustworthy","","998","","","","rating","","trustrating_stim/white_mw084.bmp","8","","","","","","","","","","",""
"image-keyboard-response","106","167054","0.0-6.0-2.50","610745dee13497549c9d6fba","bdp_trlrn","Tue Mar 14 2023 19:25:05 GMT-0400 (Eastern Daylight Time)","759178","Trustworthy,Untrustworthy","","null","","","","ratingFB","","trustrating_stim/white_mw084.bmp","null","","","","","","","","","","",""
"image-keyboard-response","107","169024","0.0-6.0-1.51","610745dee13497549c9d6fba","bdp_trlrn","Tue Mar 14 2023 19:25:05 GMT-0400 (Eastern Daylight Time)","759178","Trustworthy,Untrustworthy","","1860","","","","rating","","trustrating_stim/white_00223_940128_fb_edt.bmp","7","","","","","","","","","","",""
"image-keyboard-response","108","169231","0.0-6.0-2.51","610745dee13497549c9d6fba","bdp_trlrn","Tue Mar 14 2023 19:25:05 GMT-0400 (Eastern Daylight Time)","759178","Trustworthy,Untrustworthy","","null","","","","ratingFB","","trustrating_stim/white_00223_940128_fb_edt.bmp","null","","","","","","","","","","",""
"image-keyboard-response","109","171113","0.0-6.0-1.52","610745dee13497549c9d6fba","bdp_trlrn","Tue Mar 14 2023 19:25:05 GMT-0400 (Eastern Daylight Time)","759178","Trustworthy,Untrustworthy","","1770","","","","rating","","trustrating_stim/white_00120_931230_fa_edt.bmp","4","","","","","","","","","","",""
"image-keyboard-response","110","171320","0.0-6.0-2.52","610745dee13497549c9d6fba","bdp_trlrn","Tue Mar 14 2023 19:25:05 GMT-0400 (Eastern Daylight Time)","759178","Trustworthy,Untrustworthy","","null","","","","ratingFB","","trustrating_stim/white_00120_931230_fa_edt.bmp","null","","","","","","","","","","",""
"image-keyboard-response","111","173568","0.0-6.0-1.53","610745dee13497549c9d6fba","bdp_trlrn","Tue Mar 14 2023 19:25:05 GMT-0400 (Eastern Daylight Time)","759178","Trustworthy,Untrustworthy","","2140","","","","rating","","trustrating_stim/white_00129_931230_fb_edt.bmp","6","","","","","","","","","","",""
"image-keyboard-response","112","173773","0.0-6.0-2.53","610745dee13497549c9d6fba","bdp_trlrn","Tue Mar 14 2023 19:25:05 GMT-0400 (Eastern Daylight Time)","759178","Trustworthy,Untrustworthy","","null","","","","ratingFB","","trustrating_stim/white_00129_931230_fb_edt.bmp","null","","","","","","","","","","",""
"image-keyboard-response","113","175074","0.0-6.0-1.54","610745dee13497549c9d6fba","bdp_trlrn","Tue Mar 14 2023 19:25:05 GMT-0400 (Eastern Daylight Time)","759178","Trustworthy,Untrustworthy","","1190","","","","rating","","trustrating_stim/white_00757_941201_fa_edt.bmp","8","","","","","","","","","","",""
"image-keyboard-response","114","175287","0.0-6.0-2.54","610745dee13497549c9d6fba","bdp_trlrn","Tue Mar 14 2023 19:25:05 GMT-0400 (Eastern Daylight Time)","759178","Trustworthy,Untrustworthy","","null","","","","ratingFB","","trustrating_stim/white_00757_941201_fa_edt.bmp","null","","","","","","","","","","",""
"image-keyboard-response","115","177443","0.0-6.0-1.55","610745dee13497549c9d6fba","bdp_trlrn","Tue Mar 14 2023 19:25:05 GMT-0400 (Eastern Daylight Time)","759178","Trustworthy,Untrustworthy","","2041","","","","rating","","trustrating_stim/white_00299_940422_fa_edt.bmp","8","","","","","","","","","","",""
"image-keyboard-response","116","177655","0.0-6.0-2.55","610745dee13497549c9d6fba","bdp_trlrn","Tue Mar 14 2023 19:25:05 GMT-0400 (Eastern Daylight Time)","759178","Trustworthy,Untrustworthy","","null","","","","ratingFB","","trustrating_stim/white_00299_940422_fa_edt.bmp","null","","","","","","","","","","",""
"image-keyboard-response","117","179864","0.0-6.0-1.56","610745dee13497549c9d6fba","bdp_trlrn","Tue Mar 14 2023 19:25:05 GMT-0400 (Eastern Daylight Time)","759178","Trustworthy,Untrustworthy","","2099","","","","rating","","trustrating_stim/white_mw049.bmp","5","","","","","","","","","","",""
"image-keyboard-response","118","180071","0.0-6.0-2.56","610745dee13497549c9d6fba","bdp_trlrn","Tue Mar 14 2023 19:25:05 GMT-0400 (Eastern Daylight Time)","759178","Trustworthy,Untrustworthy","","null","","","","ratingFB","","trustrating_stim/white_mw049.bmp","null","","","","","","","","","","",""
"image-keyboard-response","119","182030","0.0-6.0-1.57","610745dee13497549c9d6fba","bdp_trlrn","Tue Mar 14 2023 19:25:05 GMT-0400 (Eastern Daylight Time)","759178","Trustworthy,Untrustworthy","","1848","","","","rating","","trustrating_stim/white_00602_940928_fb_edt.bmp","4","","","","","","","","","","",""
"image-keyboard-response","120","182240","0.0-6.0-2.57","610745dee13497549c9d6fba","bdp_trlrn","Tue Mar 14 2023 19:25:05 GMT-0400 (Eastern Daylight Time)","759178","Trustworthy,Untrustworthy","","null","","","","ratingFB","","trustrating_stim/white_00602_940928_fb_edt.bmp","null","","","","","","","","","","",""
"image-keyboard-response","121","183850","0.0-6.0-1.58","610745dee13497549c9d6fba","bdp_trlrn","Tue Mar 14 2023 19:25:05 GMT-0400 (Eastern Daylight Time)","759178","Trustworthy,Untrustworthy","","1496","","","","rating","","trustrating_stim/white_mw048.bmp","8","","","","","","","","","","",""
"image-keyboard-response","122","184052","0.0-6.0-2.58","610745dee13497549c9d6fba","bdp_trlrn","Tue Mar 14 2023 19:25:05 GMT-0400 (Eastern Daylight Time)","759178","Trustworthy,Untrustworthy","","null","","","","ratingFB","","trustrating_stim/white_mw048.bmp","null","","","","","","","","","","",""
"image-keyboard-response","123","185107","0.0-6.0-1.59","610745dee13497549c9d6fba","bdp_trlrn","Tue Mar 14 2023 19:25:05 GMT-0400 (Eastern Daylight Time)","759178","Trustworthy,Untrustworthy","","942","","","","rating","","trustrating_stim/white_mw071.bmp","9","","","","","","","","","","",""
"image-keyboard-response","124","185316","0.0-6.0-2.59","610745dee13497549c9d6fba","bdp_trlrn","Tue Mar 14 2023 19:25:05 GMT-0400 (Eastern Daylight Time)","759178","Trustworthy,Untrustworthy","","null","","","","ratingFB","","trustrating_stim/white_mw071.bmp","null","","","","","","","","","","",""
"instructions","125","188798","0.0-7.0","610745dee13497549c9d6fba","bdp_trlrn","Tue Mar 14 2023 19:25:05 GMT-0400 (Eastern Daylight Time)","759178","Trustworthy,Untrustworthy","[{""page_index"":0,""viewing_time"":3376}]","3376","","","","","","","","","","","","","","","","","",""
"instructions","126","330780","0.0-8.0","610745dee13497549c9d6fba","bdp_trlrn","Tue Mar 14 2023 19:25:05 GMT-0400 (Eastern Daylight Time)","759178","Trustworthy,Untrustworthy","[{""page_index"":0,""viewing_time"":27191},{""page_index"":1,""viewing_time"":17607},{""page_index"":2,""viewing_time"":19980},{""page_index"":3,""viewing_time"":18570},{""page_index"":4,""viewing_time"":7889},{""page_index"":5,""viewing_time"":9323},{""page_index"":6,""viewing_time"":29219},{""page_index"":7,""viewing_time"":12101}]","141880","","","","","","","","","","","","","","","","","",""
"html-keyboard-response","127","338082","0.0-9.0","610745dee13497549c9d6fba","bdp_trlrn","Tue Mar 14 2023 19:25:05 GMT-0400 (Eastern Daylight Time)","759178","Trustworthy,Untrustworthy","","7299","","","","","","<div class='header' style='text-align:left; position: absolute; top: 5%; left: 5%;'><small>Task 2 of 5</small></div><div class='instruxDiv'><p><strong>1) What is the minimum number of points you can choose to send to your partner?</strong></p><p>a) 0</p><p>b) 1</p><p>c) 5</p>","A","","","","","","","","","","",""
"html-keyboard-response","128","340568","0.0-10.0","610745dee13497549c9d6fba","bdp_trlrn","Tue Mar 14 2023 19:25:05 GMT-0400 (Eastern Daylight Time)","759178","Trustworthy,Untrustworthy","","2374","","","","","","<div class='header' style='text-align:left; position: absolute; top: 5%; left: 5%;'><small>Task 2 of 5</small></div><div class='instruxDiv'><p><strong>1) What is the minimum number of points you can choose to send to your partner?</strong></p><p style='color:#FF0000'>a) 0</p><p>b) 1</p><p>c) 5</p><h3 style='color:#FF0000'>Incorrect!</h3><h3 class='center-content'>The correct response is b).</h3><h3 class='center-content'>The minimum number of points you can choose to send to your partner is 1 point.</h3><p><em>Press SPACEBAR to continue</em></p></div>"," ","","","","","","","","","","",""
"html-keyboard-response","129","344979","0.0-11.0","610745dee13497549c9d6fba","bdp_trlrn","Tue Mar 14 2023 19:25:05 GMT-0400 (Eastern Daylight Time)","759178","Trustworthy,Untrustworthy","","4302","","","","","","<div class='header' style='text-align:left; position: absolute; top: 5%; left: 5%;'><small>Task 2 of 5</small></div><div class='instruxDiv'><p><strong>2) What is the maximum number of points you can choose to send to your partner?</strong></p><p>a) 8</p><p>b) 5</p><p>c) 3</p>","B","","","","","","","","","","",""
"html-keyboard-response","130","346138","0.0-12.0","610745dee13497549c9d6fba","bdp_trlrn","Tue Mar 14 2023 19:25:05 GMT-0400 (Eastern Daylight Time)","759178","Trustworthy,Untrustworthy","","1049","","","","","","<div class='header' style='text-align:left; position: absolute; top: 5%; left: 5%;'><small>Task 2 of 5</small></div><div class='instruxDiv'><p><strong>2) What is the maximum number of points you can choose to send to your partner?</strong></p><p>a) 8</p><p style='color:#00FF00'>b) 5</p><p>c) 3</p><h3 style='color:#00FF00'>Correct!</h3><h3 class='center-content'>The correct response is b).</h3><h3 class='center-content'>The maximum number of points you can choose to send to your partner is 5 points.</h3><p><em>Press SPACEBAR to continue</em></p></div>"," ","","","","","","","","","","",""
"html-keyboard-response","131","351960","0.0-13.0","610745dee13497549c9d6fba","bdp_trlrn","Tue Mar 14 2023 19:25:05 GMT-0400 (Eastern Daylight Time)","759178","Trustworthy,Untrustworthy","","5714","","","","","","<div class='header' style='text-align:left; position: absolute; top: 5%; left: 5%;'><small>Task 2 of 5</small></div><div class='instruxDiv'><p><strong>3) What happens to the amount of points you send to your partner?</strong></p><p>a) Nothing</p><p>b) It doubles</p><p>c) It quadruples</p>","C","","","","","","","","","","",""
"html-keyboard-response","132","353334","0.0-14.0","610745dee13497549c9d6fba","bdp_trlrn","Tue Mar 14 2023 19:25:05 GMT-0400 (Eastern Daylight Time)","759178","Trustworthy,Untrustworthy","","1261","","","","","","<div class='header' style='text-align:left; position: absolute; top: 5%; left: 5%;'><small>Task 2 of 5</small></div><div class='instruxDiv'><p><strong>3) What happens to the amount of points you send to your partner?</strong></p><p>a) Nothing</p><p>b) It doubles</p><p style='color:#00FF00'>c) It quadruples</p><h3 style='color:#00FF00'>Correct!</h3><h3 class='center-content'>The correct response is c).</h3><h3 class='center-content'>The amount of points you send to your partner quadruples.</h3><p><em>Press SPACEBAR to continue</em></p></div>"," ","","","","","","","","","","",""
"html-keyboard-response","133","367975","0.0-15.0","610745dee13497549c9d6fba","bdp_trlrn","Tue Mar 14 2023 19:25:05 GMT-0400 (Eastern Daylight Time)","759178","Trustworthy,Untrustworthy","","14537","","","","","","<div class='header' style='text-align:left; position: absolute; top: 5%; left: 5%;'><small>Task 2 of 5</small></div><div class='instruxDiv'><p><strong>4) If you decided to share 4 out of 5 points with your partner, and they decided to share half of the amount they received with you, how many points would you receive back from them on this round?</strong></p><p>a) 16</p><p>b) 0</p><p>c) 8</p>","C","","","","","","","","","","",""
"html-keyboard-response","134","369487","0.0-16.0","610745dee13497549c9d6fba","bdp_trlrn","Tue Mar 14 2023 19:25:05 GMT-0400 (Eastern Daylight Time)","759178","Trustworthy,Untrustworthy","","1409","","","","","","<div class='header' style='text-align:left; position: absolute; top: 5%; left: 5%;'><small>Task 2 of 5</small></div><div class='instruxDiv'><p><strong>4) If you decided to share 4 out of 5 points with your partner, and they decided to share half of the amount they received with you, how many points would you receive back from them on this round?</strong></p><p>a) 16</p><p>b) 0</p><p style='color:#00FF00'>c) 8</p><h3 style='color:#00FF00'>Correct!</h3><h3 class='center-content'>The correct response is c).</h3><h3 class='center-content'>If you shared 4 out of 5 points with your partner and they decided to share half of the amount they received with you, you would receive 8 points back (i.e. (4 x 4)/2 = 8).</h3><p><em>Press SPACEBAR to continue</em></p></div>"," ","","","","","","","","","","",""
"html-keyboard-response","135","374600","0.0-17.0","610745dee13497549c9d6fba","bdp_trlrn","Tue Mar 14 2023 19:25:05 GMT-0400 (Eastern Daylight Time)","759178","Trustworthy,Untrustworthy","","null","","","","","","<div class='header' style='text-align:left; position: absolute; top: 5%; left: 5%;'><small>Task 2 of 5</small></div><div class='instruxDiv'><p>Thank you for completing the quiz<p>These are the actual partners you will be interacting with in the next block:<p><div class='tc' align='center'><img class='introPic' src='trustrating_stim/white_00898_960530_fa_edt.bmp'><br><strong>Jason</strong></div><div class='bl' align='center'><img class='introPic' src='trustrating_stim/white_00340_940422_fa_edt.bmp'><br><strong>Jacob</strong></div><div class='br' align='center'><img class='introPic' src='trustrating_stim/white_00785_941205_fb_edt.bmp'><br><strong>Chris</strong></div></div><p>Across <strong>66 rounds</strong> you will interact with each partner <strong>22 times</strong> (in random order).<p style='align:center; color:white'><font <em>Press SPACEBAR to continue</em></p>","null","","","","","","","","","","",""
"instructions","136","395865","0.0-18.0","610745dee13497549c9d6fba","bdp_trlrn","Tue Mar 14 2023 19:25:05 GMT-0400 (Eastern Daylight Time)","759178","Trustworthy,Untrustworthy","[{""page_index"":0,""viewing_time"":18032},{""page_index"":1,""viewing_time"":3233}]","21265","","","","","","","","","","","","","","","","","",""
"html-keyboard-response","137","398237","0.0-19.0-1.0","610745dee13497549c9d6fba","bdp_trlrn","Tue Mar 14 2023 19:25:05 GMT-0400 (Eastern Daylight Time)","759178","Trustworthy,Untrustworthy","","2260","","","","decision","","<div class='trialDiv'><img src='trustrating_stim/white_00785_941205_fb_edt.bmp'><br><font class='baseline'><strong>Chris</strong><p>Choose number of points to send.</font><div class='respPicDiv'><img src='img/responseButtonOffersNo0L.png' class='respPic'></div></div>","2","1","Chris","8","Shared","0.65,0.2","11","0.65","trustrating_stim/white_00785_941205_fb_edt.bmp","8.5","5","1"
"html-keyboard-response","138","398492","0.0-19.0-2.0","610745dee13497549c9d6fba","bdp_trlrn","Tue Mar 14 2023 19:25:05 GMT-0400 (Eastern Daylight Time)","759178","Trustworthy,Untrustworthy","","null","","","","decisionFB","","<div class='trialDiv'><img src='trustrating_stim/white_00785_941205_fb_edt.bmp'><br><font class='baseline'><strong>Chris</strong><p>Choose number of points to send.</font><div class='respPicDiv'><img src='img/responseButtonOffersNo0L2.png' class='respPic'></div></div>","null","1","Chris","8","Shared","0.65,0.2","11","0.65","trustrating_stim/white_00785_941205_fb_edt.bmp","8.5","3","1"
"html-keyboard-response","139","399503","0.0-19.0-3.0","610745dee13497549c9d6fba","bdp_trlrn","Tue Mar 14 2023 19:25:05 GMT-0400 (Eastern Daylight Time)","759178","Trustworthy,Untrustworthy","","null","","","","feedback","","<div class='trialDiv'><img src='trustrating_stim/white_00785_941205_fb_edt.bmp'><br><font class='baseline'><strong>Chris</strong><p>Received: <strong>8</strong></font> &nbsp; &nbsp; &nbsp; &nbsp; &nbsp; &nbsp;<font class='posOutcome'>Shared back: <strong>4</strong></font></font><div class='respPicDiv'><img src='img/responseButtonOffersNo0_wht.png' class='respPic'></div></div>","null","1","Chris","8","Shared","0.65,0.2","11","0.65","trustrating_stim/white_00785_941205_fb_edt.bmp","8.5","7","1"
"html-keyboard-response","140","402845","0.0-19.0-1.1","610745dee13497549c9d6fba","bdp_trlrn","Tue Mar 14 2023 19:25:05 GMT-0400 (Eastern Daylight Time)","759178","Trustworthy,Untrustworthy","","3341","","","","decision","","<div class='trialDiv'><img src='trustrating_stim/white_00340_940422_fa_edt.bmp'><br><font class='baseline'><strong>Jacob</strong><p>Choose number of points to send.</font><div class='respPicDiv'><img src='img/responseButtonOffersNo0L.png' class='respPic'></div></div>","2","1","Jacob","4","Shared","0.8,0.2","9","0.8","trustrating_stim/white_00340_940422_fa_edt.bmp","7","12","2"
"html-keyboard-response","141","403101","0.0-19.0-2.1","610745dee13497549c9d6fba","bdp_trlrn","Tue Mar 14 2023 19:25:05 GMT-0400 (Eastern Daylight Time)","759178","Trustworthy,Untrustworthy","","null","","","","decisionFB","","<div class='trialDiv'><img src='trustrating_stim/white_00340_940422_fa_edt.bmp'><br><font class='baseline'><strong>Jacob</strong><p>Choose number of points to send.</font><div class='respPicDiv'><img src='img/responseButtonOffersNo0L2.png' class='respPic'></div></div>","null","1","Jacob","4","Shared","0.8,0.2","9","0.8","trustrating_stim/white_00340_940422_fa_edt.bmp","7","10","2"
"html-keyboard-response","142","404112","0.0-19.0-3.1","610745dee13497549c9d6fba","bdp_trlrn","Tue Mar 14 2023 19:25:05 GMT-0400 (Eastern Daylight Time)","759178","Trustworthy,Untrustworthy","","null","","","","feedback","","<div class='trialDiv'><img src='trustrating_stim/white_00340_940422_fa_edt.bmp'><br><font class='baseline'><strong>Jacob</strong><p>Received: <strong>8</strong></font> &nbsp; &nbsp; &nbsp; &nbsp; &nbsp; &nbsp;<font class='posOutcome'>Shared back: <strong>4</strong></font></font><div class='respPicDiv'><img src='img/responseButtonOffersNo0_wht.png' class='respPic'></div></div>","null","1","Jacob","4","Shared","0.8,0.2","9","0.8","trustrating_stim/white_00340_940422_fa_edt.bmp","7","14","2"
"html-keyboard-response","143","405036","0.0-19.0-1.2","610745dee13497549c9d6fba","bdp_trlrn","Tue Mar 14 2023 19:25:05 GMT-0400 (Eastern Daylight Time)","759178","Trustworthy,Untrustworthy","","922","","","","decision","","<div class='trialDiv'><img src='trustrating_stim/white_00898_960530_fa_edt.bmp'><br><font class='baseline'><strong>Jason</strong><p>Choose number of points to send.</font><div class='respPicDiv'><img src='img/responseButtonOffersNo0L.png' class='respPic'></div></div>","2","1","Jason","0","Kept","0.2,0.65","12","0.2","trustrating_stim/white_00898_960530_fa_edt.bmp","3","19","3"
"html-keyboard-response","144","405289","0.0-19.0-2.2","610745dee13497549c9d6fba","bdp_trlrn","Tue Mar 14 2023 19:25:05 GMT-0400 (Eastern Daylight Time)","759178","Trustworthy,Untrustworthy","","null","","","","decisionFB","","<div class='trialDiv'><img src='trustrating_stim/white_00898_960530_fa_edt.bmp'><br><font class='baseline'><strong>Jason</strong><p>Choose number of points to send.</font><div class='respPicDiv'><img src='img/responseButtonOffersNo0L2.png' class='respPic'></div></div>","null","1","Jason","0","Kept","0.2,0.65","12","0.2","trustrating_stim/white_00898_960530_fa_edt.bmp","3","17","3"
"html-keyboard-response","145","406297","0.0-19.0-3.2","610745dee13497549c9d6fba","bdp_trlrn","Tue Mar 14 2023 19:25:05 GMT-0400 (Eastern Daylight Time)","759178","Trustworthy,Untrustworthy","","null","","","","feedback","","<div class='trialDiv'><img src='trustrating_stim/white_00898_960530_fa_edt.bmp'><br><font class='baseline'><strong>Jason</strong><p>Received: <strong>8</strong></font> &nbsp; &nbsp; &nbsp; &nbsp; &nbsp; &nbsp;<font class='negOutcome'>Shared back: <strong>0</strong></font></font><div class='respPicDiv'><img src='img/responseButtonOffersNo0_wht.png' class='respPic'></div></div>","null","1","Jason","0","Kept","0.2,0.65","12","0.2","trustrating_stim/white_00898_960530_fa_edt.bmp","3","17","3"
"html-keyboard-response","146","408036","0.0-19.0-1.3","610745dee13497549c9d6fba","bdp_trlrn","Tue Mar 14 2023 19:25:05 GMT-0400 (Eastern Daylight Time)","759178","Trustworthy,Untrustworthy","","1738","","","","decision","","<div class='trialDiv'><img src='trustrating_stim/white_00785_941205_fb_edt.bmp'><br><font class='baseline'><strong>Chris</strong><p>Choose number of points to send.</font><div class='respPicDiv'><img src='img/responseButtonOffersNo0L.png' class='respPic'></div></div>","3","2","Chris","8","Kept","0.65,0.2","11","0.65","trustrating_stim/white_00785_941205_fb_edt.bmp","8.5","22","4"
"html-keyboard-response","147","408292","0.0-19.0-2.3","610745dee13497549c9d6fba","bdp_trlrn","Tue Mar 14 2023 19:25:05 GMT-0400 (Eastern Daylight Time)","759178","Trustworthy,Untrustworthy","","null","","","","decisionFB","","<div class='trialDiv'><img src='trustrating_stim/white_00785_941205_fb_edt.bmp'><br><font class='baseline'><strong>Chris</strong><p>Choose number of points to send.</font><div class='respPicDiv'><img src='img/responseButtonOffersNo0L3.png' class='respPic'></div></div>","null","2","Chris","8","Kept","0.65,0.2","11","0.65","trustrating_stim/white_00785_941205_fb_edt.bmp","8.5","19","4"
"html-keyboard-response","148","409304","0.0-19.0-3.3","610745dee13497549c9d6fba","bdp_trlrn","Tue Mar 14 2023 19:25:05 GMT-0400 (Eastern Daylight Time)","759178","Trustworthy,Untrustworthy","","null","","","","feedback","","<div class='trialDiv'><img src='trustrating_stim/white_00785_941205_fb_edt.bmp'><br><font class='baseline'><strong>Chris</strong><p>Received: <strong>12</strong></font> &nbsp; &nbsp; &nbsp; &nbsp; &nbsp; &nbsp;<font class='negOutcome'>Shared back: <strong>0</strong></font></font><div class='respPicDiv'><img src='img/responseButtonOffersNo0_wht.png' class='respPic'></div></div>","null","2","Chris","8","Kept","0.65,0.2","11","0.65","trustrating_stim/white_00785_941205_fb_edt.bmp","8.5","19","4"
"html-keyboard-response","149","411261","0.0-19.0-1.4","610745dee13497549c9d6fba","bdp_trlrn","Tue Mar 14 2023 19:25:05 GMT-0400 (Eastern Daylight Time)","759178","Trustworthy,Untrustworthy","","1956","","","","decision","","<div class='trialDiv'><img src='trustrating_stim/white_00898_960530_fa_edt.bmp'><br><font class='baseline'><strong>Jason</strong><p>Choose number of points to send.</font><div class='respPicDiv'><img src='img/responseButtonOffersNo0L.png' class='respPic'></div></div>","1","2","Jason","0","Shared","0.2,0.65","12","0.2","trustrating_stim/white_00898_960530_fa_edt.bmp","3","24","5"
"html-keyboard-response","150","411518","0.0-19.0-2.4","610745dee13497549c9d6fba","bdp_trlrn","Tue Mar 14 2023 19:25:05 GMT-0400 (Eastern Daylight Time)","759178","Trustworthy,Untrustworthy","","null","","","","decisionFB","","<div class='trialDiv'><img src='trustrating_stim/white_00898_960530_fa_edt.bmp'><br><font class='baseline'><strong>Jason</strong><p>Choose number of points to send.</font><div class='respPicDiv'><img src='img/responseButtonOffersNo0L1.png' class='respPic'></div></div>","null","2","Jason","0","Shared","0.2,0.65","12","0.2","trustrating_stim/white_00898_960530_fa_edt.bmp","3","23","5"
"html-keyboard-response","151","412526","0.0-19.0-3.4","610745dee13497549c9d6fba","bdp_trlrn","Tue Mar 14 2023 19:25:05 GMT-0400 (Eastern Daylight Time)","759178","Trustworthy,Untrustworthy","","null","","","","feedback","","<div class='trialDiv'><img src='trustrating_stim/white_00898_960530_fa_edt.bmp'><br><font class='baseline'><strong>Jason</strong><p>Received: <strong>4</strong></font> &nbsp; &nbsp; &nbsp; &nbsp; &nbsp; &nbsp;<font class='posOutcome'>Shared back: <strong>2</strong></font></font><div class='respPicDiv'><img src='img/responseButtonOffersNo0_wht.png' class='respPic'></div></div>","null","2","Jason","0","Shared","0.2,0.65","12","0.2","trustrating_stim/white_00898_960530_fa_edt.bmp","3","25","5"
"html-keyboard-response","152","413338","0.0-19.0-1.5","610745dee13497549c9d6fba","bdp_trlrn","Tue Mar 14 2023 19:25:05 GMT-0400 (Eastern Daylight Time)","759178","Trustworthy,Untrustworthy","","811","","","","decision","","<div class='trialDiv'><img src='trustrating_stim/white_00340_940422_fa_edt.bmp'><br><font class='baseline'><strong>Jacob</strong><p>Choose number of points to send.</font><div class='respPicDiv'><img src='img/responseButtonOffersNo0L.png' class='respPic'></div></div>","2","2","Jacob","4","Kept","0.8,0.2","9","0.8","trustrating_stim/white_00340_940422_fa_edt.bmp","7","30","6"
"html-keyboard-response","153","413598","0.0-19.0-2.5","610745dee13497549c9d6fba","bdp_trlrn","Tue Mar 14 2023 19:25:05 GMT-0400 (Eastern Daylight Time)","759178","Trustworthy,Untrustworthy","","null","","","","decisionFB","","<div class='trialDiv'><img src='trustrating_stim/white_00340_940422_fa_edt.bmp'><br><font class='baseline'><strong>Jacob</strong><p>Choose number of points to send.</font><div class='respPicDiv'><img src='img/responseButtonOffersNo0L2.png' class='respPic'></div></div>","null","2","Jacob","4","Kept","0.8,0.2","9","0.8","trustrating_stim/white_00340_940422_fa_edt.bmp","7","28","6"
"html-keyboard-response","154","414607","0.0-19.0-3.5","610745dee13497549c9d6fba","bdp_trlrn","Tue Mar 14 2023 19:25:05 GMT-0400 (Eastern Daylight Time)","759178","Trustworthy,Untrustworthy","","null","","","","feedback","","<div class='trialDiv'><img src='trustrating_stim/white_00340_940422_fa_edt.bmp'><br><font class='baseline'><strong>Jacob</strong><p>Received: <strong>8</strong></font> &nbsp; &nbsp; &nbsp; &nbsp; &nbsp; &nbsp;<font class='negOutcome'>Shared back: <strong>0</strong></font></font><div class='respPicDiv'><img src='img/responseButtonOffersNo0_wht.png' class='respPic'></div></div>","null","2","Jacob","4","Kept","0.8,0.2","9","0.8","trustrating_stim/white_00340_940422_fa_edt.bmp","7","28","6"
"html-keyboard-response","155","416933","0.0-19.0-1.6","610745dee13497549c9d6fba","bdp_trlrn","Tue Mar 14 2023 19:25:05 GMT-0400 (Eastern Daylight Time)","759178","Trustworthy,Untrustworthy","","2325","","","","decision","","<div class='trialDiv'><img src='trustrating_stim/white_00785_941205_fb_edt.bmp'><br><font class='baseline'><strong>Chris</strong><p>Choose number of points to send.</font><div class='respPicDiv'><img src='img/responseButtonOffersNo0L.png' class='respPic'></div></div>","3","3","Chris","8","Kept","0.65,0.2","11","0.65","trustrating_stim/white_00785_941205_fb_edt.bmp","8.5","33","7"
"html-keyboard-response","156","417189","0.0-19.0-2.6","610745dee13497549c9d6fba","bdp_trlrn","Tue Mar 14 2023 19:25:05 GMT-0400 (Eastern Daylight Time)","759178","Trustworthy,Untrustworthy","","null","","","","decisionFB","","<div class='trialDiv'><img src='trustrating_stim/white_00785_941205_fb_edt.bmp'><br><font class='baseline'><strong>Chris</strong><p>Choose number of points to send.</font><div class='respPicDiv'><img src='img/responseButtonOffersNo0L3.png' class='respPic'></div></div>","null","3","Chris","8","Kept","0.65,0.2","11","0.65","trustrating_stim/white_00785_941205_fb_edt.bmp","8.5","30","7"
"html-keyboard-response","157","418197","0.0-19.0-3.6","610745dee13497549c9d6fba","bdp_trlrn","Tue Mar 14 2023 19:25:05 GMT-0400 (Eastern Daylight Time)","759178","Trustworthy,Untrustworthy","","null","","","","feedback","","<div class='trialDiv'><img src='trustrating_stim/white_00785_941205_fb_edt.bmp'><br><font class='baseline'><strong>Chris</strong><p>Received: <strong>12</strong></font> &nbsp; &nbsp; &nbsp; &nbsp; &nbsp; &nbsp;<font class='negOutcome'>Shared back: <strong>0</strong></font></font><div class='respPicDiv'><img src='img/responseButtonOffersNo0_wht.png' class='respPic'></div></div>","null","3","Chris","8","Kept","0.65,0.2","11","0.65","trustrating_stim/white_00785_941205_fb_edt.bmp","8.5","30","7"
"html-keyboard-response","158","418841","0.0-19.0-1.7","610745dee13497549c9d6fba","bdp_trlrn","Tue Mar 14 2023 19:25:05 GMT-0400 (Eastern Daylight Time)","759178","Trustworthy,Untrustworthy","","643","","","","decision","","<div class='trialDiv'><img src='trustrating_stim/white_00898_960530_fa_edt.bmp'><br><font class='baseline'><strong>Jason</strong><p>Choose number of points to send.</font><div class='respPicDiv'><img src='img/responseButtonOffersNo0L.png' class='respPic'></div></div>","2","3","Jason","0","Kept","0.2,0.65","12","0.2","trustrating_stim/white_00898_960530_fa_edt.bmp","3","35","8"
"html-keyboard-response","159","419101","0.0-19.0-2.7","610745dee13497549c9d6fba","bdp_trlrn","Tue Mar 14 2023 19:25:05 GMT-0400 (Eastern Daylight Time)","759178","Trustworthy,Untrustworthy","","null","","","","decisionFB","","<div class='trialDiv'><img src='trustrating_stim/white_00898_960530_fa_edt.bmp'><br><font class='baseline'><strong>Jason</strong><p>Choose number of points to send.</font><div class='respPicDiv'><img src='img/responseButtonOffersNo0L2.png' class='respPic'></div></div>","null","3","Jason","0","Kept","0.2,0.65","12","0.2","trustrating_stim/white_00898_960530_fa_edt.bmp","3","33","8"
"html-keyboard-response","160","420110","0.0-19.0-3.7","610745dee13497549c9d6fba","bdp_trlrn","Tue Mar 14 2023 19:25:05 GMT-0400 (Eastern Daylight Time)","759178","Trustworthy,Untrustworthy","","null","","","","feedback","","<div class='trialDiv'><img src='trustrating_stim/white_00898_960530_fa_edt.bmp'><br><font class='baseline'><strong>Jason</strong><p>Received: <strong>8</strong></font> &nbsp; &nbsp; &nbsp; &nbsp; &nbsp; &nbsp;<font class='negOutcome'>Shared back: <strong>0</strong></font></font><div class='respPicDiv'><img src='img/responseButtonOffersNo0_wht.png' class='respPic'></div></div>","null","3","Jason","0","Kept","0.2,0.65","12","0.2","trustrating_stim/white_00898_960530_fa_edt.bmp","3","33","8"
"html-keyboard-response","161","420697","0.0-19.0-1.8","610745dee13497549c9d6fba","bdp_trlrn","Tue Mar 14 2023 19:25:05 GMT-0400 (Eastern Daylight Time)","759178","Trustworthy,Untrustworthy","","584","","","","decision","","<div class='trialDiv'><img src='trustrating_stim/white_00340_940422_fa_edt.bmp'><br><font class='baseline'><strong>Jacob</strong><p>Choose number of points to send.</font><div class='respPicDiv'><img src='img/responseButtonOffersNo0L.png' class='respPic'></div></div>","1","3","Jacob","4","Kept","0.8,0.2","9","0.8","trustrating_stim/white_00340_940422_fa_edt.bmp","7","38","9"
"html-keyboard-response","162","420949","0.0-19.0-2.8","610745dee13497549c9d6fba","bdp_trlrn","Tue Mar 14 2023 19:25:05 GMT-0400 (Eastern Daylight Time)","759178","Trustworthy,Untrustworthy","","null","","","","decisionFB","","<div class='trialDiv'><img src='trustrating_stim/white_00340_940422_fa_edt.bmp'><br><font class='baseline'><strong>Jacob</strong><p>Choose number of points to send.</font><div class='respPicDiv'><img src='img/responseButtonOffersNo0L1.png' class='respPic'></div></div>","null","3","Jacob","4","Kept","0.8,0.2","9","0.8","trustrating_stim/white_00340_940422_fa_edt.bmp","7","37","9"
"html-keyboard-response","163","421961","0.0-19.0-3.8","610745dee13497549c9d6fba","bdp_trlrn","Tue Mar 14 2023 19:25:05 GMT-0400 (Eastern Daylight Time)","759178","Trustworthy,Untrustworthy","","null","","","","feedback","","<div class='trialDiv'><img src='trustrating_stim/white_00340_940422_fa_edt.bmp'><br><font class='baseline'><strong>Jacob</strong><p>Received: <strong>4</strong></font> &nbsp; &nbsp; &nbsp; &nbsp; &nbsp; &nbsp;<font class='negOutcome'>Shared back: <strong>0</strong></font></font><div class='respPicDiv'><img src='img/responseButtonOffersNo0_wht.png' class='respPic'></div></div>","null","3","Jacob","4","Kept","0.8,0.2","9","0.8","trustrating_stim/white_00340_940422_fa_edt.bmp","7","37","9"
"html-keyboard-response","164","422543","0.0-19.0-1.9","610745dee13497549c9d6fba","bdp_trlrn","Tue Mar 14 2023 19:25:05 GMT-0400 (Eastern Daylight Time)","759178","Trustworthy,Untrustworthy","","580","","","","decision","","<div class='trialDiv'><img src='trustrating_stim/white_00785_941205_fb_edt.bmp'><br><font class='baseline'><strong>Chris</strong><p>Choose number of points to send.</font><div class='respPicDiv'><img src='img/responseButtonOffersNo0L.png' class='respPic'></div></div>","1","4","Chris","8","Shared","0.65,0.2","11","0.65","trustrating_stim/white_00785_941205_fb_edt.bmp","8.5","42","10"
"html-keyboard-response","165","422796","0.0-19.0-2.9","610745dee13497549c9d6fba","bdp_trlrn","Tue Mar 14 2023 19:25:05 GMT-0400 (Eastern Daylight Time)","759178","Trustworthy,Untrustworthy","","null","","","","decisionFB","","<div class='trialDiv'><img src='trustrating_stim/white_00785_941205_fb_edt.bmp'><br><font class='baseline'><strong>Chris</strong><p>Choose number of points to send.</font><div class='respPicDiv'><img src='img/responseButtonOffersNo0L1.png' class='respPic'></div></div>","null","4","Chris","8","Shared","0.65,0.2","11","0.65","trustrating_stim/white_00785_941205_fb_edt.bmp","8.5","41","10"
"html-keyboard-response","166","423809","0.0-19.0-3.9","610745dee13497549c9d6fba","bdp_trlrn","Tue Mar 14 2023 19:25:05 GMT-0400 (Eastern Daylight Time)","759178","Trustworthy,Untrustworthy","","null","","","","feedback","","<div class='trialDiv'><img src='trustrating_stim/white_00785_941205_fb_edt.bmp'><br><font class='baseline'><strong>Chris</strong><p>Received: <strong>4</strong></font> &nbsp; &nbsp; &nbsp; &nbsp; &nbsp; &nbsp;<font class='posOutcome'>Shared back: <strong>2</strong></font></font><div class='respPicDiv'><img src='img/responseButtonOffersNo0_wht.png' class='respPic'></div></div>","null","4","Chris","8","Shared","0.65,0.2","11","0.65","trustrating_stim/white_00785_941205_fb_edt.bmp","8.5","43","10"
"html-keyboard-response","167","424723","0.0-19.0-1.10","610745dee13497549c9d6fba","bdp_trlrn","Tue Mar 14 2023 19:25:05 GMT-0400 (Eastern Daylight Time)","759178","Trustworthy,Untrustworthy","","913","","","","decision","","<div class='trialDiv'><img src='trustrating_stim/white_00898_960530_fa_edt.bmp'><br><font class='baseline'><strong>Jason</strong><p>Choose number of points to send.</font><div class='respPicDiv'><img src='img/responseButtonOffersNo0L.png' class='respPic'></div></div>","1","4","Jason","0","Kept","0.2,0.65","12","0.2","trustrating_stim/white_00898_960530_fa_edt.bmp","3","48","11"
"html-keyboard-response","168","424981","0.0-19.0-2.10","610745dee13497549c9d6fba","bdp_trlrn","Tue Mar 14 2023 19:25:05 GMT-0400 (Eastern Daylight Time)","759178","Trustworthy,Untrustworthy","","null","","","","decisionFB","","<div class='trialDiv'><img src='trustrating_stim/white_00898_960530_fa_edt.bmp'><br><font class='baseline'><strong>Jason</strong><p>Choose number of points to send.</font><div class='respPicDiv'><img src='img/responseButtonOffersNo0L1.png' class='respPic'></div></div>","null","4","Jason","0","Kept","0.2,0.65","12","0.2","trustrating_stim/white_00898_960530_fa_edt.bmp","3","47","11"
"html-keyboard-response","169","425989","0.0-19.0-3.10","610745dee13497549c9d6fba","bdp_trlrn","Tue Mar 14 2023 19:25:05 GMT-0400 (Eastern Daylight Time)","759178","Trustworthy,Untrustworthy","","null","","","","feedback","","<div class='trialDiv'><img src='trustrating_stim/white_00898_960530_fa_edt.bmp'><br><font class='baseline'><strong>Jason</strong><p>Received: <strong>4</strong></font> &nbsp; &nbsp; &nbsp; &nbsp; &nbsp; &nbsp;<font class='negOutcome'>Shared back: <strong>0</strong></font></font><div class='respPicDiv'><img src='img/responseButtonOffersNo0_wht.png' class='respPic'></div></div>","null","4","Jason","0","Kept","0.2,0.65","12","0.2","trustrating_stim/white_00898_960530_fa_edt.bmp","3","47","11"
"html-keyboard-response","170","427287","0.0-19.0-1.11","610745dee13497549c9d6fba","bdp_trlrn","Tue Mar 14 2023 19:25:05 GMT-0400 (Eastern Daylight Time)","759178","Trustworthy,Untrustworthy","","1296","","","","decision","","<div class='trialDiv'><img src='trustrating_stim/white_00340_940422_fa_edt.bmp'><br><font class='baseline'><strong>Jacob</strong><p>Choose number of points to send.</font><div class='respPicDiv'><img src='img/responseButtonOffersNo0L.png' class='respPic'></div></div>","1","4","Jacob","4","Shared","0.8,0.2","9","0.8","trustrating_stim/white_00340_940422_fa_edt.bmp","7","52","12"
"html-keyboard-response","171","427545","0.0-19.0-2.11","610745dee13497549c9d6fba","bdp_trlrn","Tue Mar 14 2023 19:25:05 GMT-0400 (Eastern Daylight Time)","759178","Trustworthy,Untrustworthy","","null","","","","decisionFB","","<div class='trialDiv'><img src='trustrating_stim/white_00340_940422_fa_edt.bmp'><br><font class='baseline'><strong>Jacob</strong><p>Choose number of points to send.</font><div class='respPicDiv'><img src='img/responseButtonOffersNo0L1.png' class='respPic'></div></div>","null","4","Jacob","4","Shared","0.8,0.2","9","0.8","trustrating_stim/white_00340_940422_fa_edt.bmp","7","51","12"
"html-keyboard-response","172","428553","0.0-19.0-3.11","610745dee13497549c9d6fba","bdp_trlrn","Tue Mar 14 2023 19:25:05 GMT-0400 (Eastern Daylight Time)","759178","Trustworthy,Untrustworthy","","null","","","","feedback","","<div class='trialDiv'><img src='trustrating_stim/white_00340_940422_fa_edt.bmp'><br><font class='baseline'><strong>Jacob</strong><p>Received: <strong>4</strong></font> &nbsp; &nbsp; &nbsp; &nbsp; &nbsp; &nbsp;<font class='posOutcome'>Shared back: <strong>2</strong></font></font><div class='respPicDiv'><img src='img/responseButtonOffersNo0_wht.png' class='respPic'></div></div>","null","4","Jacob","4","Shared","0.8,0.2","9","0.8","trustrating_stim/white_00340_940422_fa_edt.bmp","7","53","12"
"html-keyboard-response","173","429464","0.0-19.0-1.12","610745dee13497549c9d6fba","bdp_trlrn","Tue Mar 14 2023 19:25:05 GMT-0400 (Eastern Daylight Time)","759178","Trustworthy,Untrustworthy","","910","","","","decision","","<div class='trialDiv'><img src='trustrating_stim/white_00898_960530_fa_edt.bmp'><br><font class='baseline'><strong>Jason</strong><p>Choose number of points to send.</font><div class='respPicDiv'><img src='img/responseButtonOffersNo0L.png' class='respPic'></div></div>","1","5","Jason","0","Kept","0.2,0.65","12","0.2","trustrating_stim/white_00898_960530_fa_edt.bmp","3","58","13"
"html-keyboard-response","174","429716","0.0-19.0-2.12","610745dee13497549c9d6fba","bdp_trlrn","Tue Mar 14 2023 19:25:05 GMT-0400 (Eastern Daylight Time)","759178","Trustworthy,Untrustworthy","","null","","","","decisionFB","","<div class='trialDiv'><img src='trustrating_stim/white_00898_960530_fa_edt.bmp'><br><font class='baseline'><strong>Jason</strong><p>Choose number of points to send.</font><div class='respPicDiv'><img src='img/responseButtonOffersNo0L1.png' class='respPic'></div></div>","null","5","Jason","0","Kept","0.2,0.65","12","0.2","trustrating_stim/white_00898_960530_fa_edt.bmp","3","57","13"
"html-keyboard-response","175","430729","0.0-19.0-3.12","610745dee13497549c9d6fba","bdp_trlrn","Tue Mar 14 2023 19:25:05 GMT-0400 (Eastern Daylight Time)","759178","Trustworthy,Untrustworthy","","null","","","","feedback","","<div class='trialDiv'><img src='trustrating_stim/white_00898_960530_fa_edt.bmp'><br><font class='baseline'><strong>Jason</strong><p>Received: <strong>4</strong></font> &nbsp; &nbsp; &nbsp; &nbsp; &nbsp; &nbsp;<font class='negOutcome'>Shared back: <strong>0</strong></font></font><div class='respPicDiv'><img src='img/responseButtonOffersNo0_wht.png' class='respPic'></div></div>","null","5","Jason","0","Kept","0.2,0.65","12","0.2","trustrating_stim/white_00898_960530_fa_edt.bmp","3","57","13"
"html-keyboard-response","176","431958","0.0-19.0-1.13","610745dee13497549c9d6fba","bdp_trlrn","Tue Mar 14 2023 19:25:05 GMT-0400 (Eastern Daylight Time)","759178","Trustworthy,Untrustworthy","","1228","","","","decision","","<div class='trialDiv'><img src='trustrating_stim/white_00340_940422_fa_edt.bmp'><br><font class='baseline'><strong>Jacob</strong><p>Choose number of points to send.</font><div class='respPicDiv'><img src='img/responseButtonOffersNo0L.png' class='respPic'></div></div>","2","5","Jacob","4","Kept","0.8,0.2","9","0.8","trustrating_stim/white_00340_940422_fa_edt.bmp","7","62","14"
"html-keyboard-response","177","432217","0.0-19.0-2.13","610745dee13497549c9d6fba","bdp_trlrn","Tue Mar 14 2023 19:25:05 GMT-0400 (Eastern Daylight Time)","759178","Trustworthy,Untrustworthy","","null","","","","decisionFB","","<div class='trialDiv'><img src='trustrating_stim/white_00340_940422_fa_edt.bmp'><br><font class='baseline'><strong>Jacob</strong><p>Choose number of points to send.</font><div class='respPicDiv'><img src='img/responseButtonOffersNo0L2.png' class='respPic'></div></div>","null","5","Jacob","4","Kept","0.8,0.2","9","0.8","trustrating_stim/white_00340_940422_fa_edt.bmp","7","60","14"
"html-keyboard-response","178","433225","0.0-19.0-3.13","610745dee13497549c9d6fba","bdp_trlrn","Tue Mar 14 2023 19:25:05 GMT-0400 (Eastern Daylight Time)","759178","Trustworthy,Untrustworthy","","null","","","","feedback","","<div class='trialDiv'><img src='trustrating_stim/white_00340_940422_fa_edt.bmp'><br><font class='baseline'><strong>Jacob</strong><p>Received: <strong>8</strong></font> &nbsp; &nbsp; &nbsp; &nbsp; &nbsp; &nbsp;<font class='negOutcome'>Shared back: <strong>0</strong></font></font><div class='respPicDiv'><img src='img/responseButtonOffersNo0_wht.png' class='respPic'></div></div>","null","5","Jacob","4","Kept","0.8,0.2","9","0.8","trustrating_stim/white_00340_940422_fa_edt.bmp","7","60","14"
"html-keyboard-response","179","434176","0.0-19.0-1.14","610745dee13497549c9d6fba","bdp_trlrn","Tue Mar 14 2023 19:25:05 GMT-0400 (Eastern Daylight Time)","759178","Trustworthy,Untrustworthy","","950","","","","decision","","<div class='trialDiv'><img src='trustrating_stim/white_00785_941205_fb_edt.bmp'><br><font class='baseline'><strong>Chris</strong><p>Choose number of points to send.</font><div class='respPicDiv'><img src='img/responseButtonOffersNo0L.png' class='respPic'></div></div>","3","5","Chris","8","Shared","0.65,0.2","11","0.65","trustrating_stim/white_00785_941205_fb_edt.bmp","8.5","65","15"
"html-keyboard-response","180","434436","0.0-19.0-2.14","610745dee13497549c9d6fba","bdp_trlrn","Tue Mar 14 2023 19:25:05 GMT-0400 (Eastern Daylight Time)","759178","Trustworthy,Untrustworthy","","null","","","","decisionFB","","<div class='trialDiv'><img src='trustrating_stim/white_00785_941205_fb_edt.bmp'><br><font class='baseline'><strong>Chris</strong><p>Choose number of points to send.</font><div class='respPicDiv'><img src='img/responseButtonOffersNo0L3.png' class='respPic'></div></div>","null","5","Chris","8","Shared","0.65,0.2","11","0.65","trustrating_stim/white_00785_941205_fb_edt.bmp","8.5","62","15"
"html-keyboard-response","181","435447","0.0-19.0-3.14","610745dee13497549c9d6fba","bdp_trlrn","Tue Mar 14 2023 19:25:05 GMT-0400 (Eastern Daylight Time)","759178","Trustworthy,Untrustworthy","","null","","","","feedback","","<div class='trialDiv'><img src='trustrating_stim/white_00785_941205_fb_edt.bmp'><br><font class='baseline'><strong>Chris</strong><p>Received: <strong>12</strong></font> &nbsp; &nbsp; &nbsp; &nbsp; &nbsp; &nbsp;<font class='posOutcome'>Shared back: <strong>6</strong></font></font><div class='respPicDiv'><img src='img/responseButtonOffersNo0_wht.png' class='respPic'></div></div>","null","5","Chris","8","Shared","0.65,0.2","11","0.65","trustrating_stim/white_00785_941205_fb_edt.bmp","8.5","68","15"
"html-keyboard-response","182","436235","0.0-19.0-1.15","610745dee13497549c9d6fba","bdp_trlrn","Tue Mar 14 2023 19:25:05 GMT-0400 (Eastern Daylight Time)","759178","Trustworthy,Untrustworthy","","788","","","","decision","","<div class='trialDiv'><img src='trustrating_stim/white_00898_960530_fa_edt.bmp'><br><font class='baseline'><strong>Jason</strong><p>Choose number of points to send.</font><div class='respPicDiv'><img src='img/responseButtonOffersNo0L.png' class='respPic'></div></div>","1","6","Jason","0","Shared","0.2,0.65","12","0.2","trustrating_stim/white_00898_960530_fa_edt.bmp","3","73","16"
"html-keyboard-response","183","436496","0.0-19.0-2.15","610745dee13497549c9d6fba","bdp_trlrn","Tue Mar 14 2023 19:25:05 GMT-0400 (Eastern Daylight Time)","759178","Trustworthy,Untrustworthy","","null","","","","decisionFB","","<div class='trialDiv'><img src='trustrating_stim/white_00898_960530_fa_edt.bmp'><br><font class='baseline'><strong>Jason</strong><p>Choose number of points to send.</font><div class='respPicDiv'><img src='img/responseButtonOffersNo0L1.png' class='respPic'></div></div>","null","6","Jason","0","Shared","0.2,0.65","12","0.2","trustrating_stim/white_00898_960530_fa_edt.bmp","3","72","16"
"html-keyboard-response","184","437505","0.0-19.0-3.15","610745dee13497549c9d6fba","bdp_trlrn","Tue Mar 14 2023 19:25:05 GMT-0400 (Eastern Daylight Time)","759178","Trustworthy,Untrustworthy","","null","","","","feedback","","<div class='trialDiv'><img src='trustrating_stim/white_00898_960530_fa_edt.bmp'><br><font class='baseline'><strong>Jason</strong><p>Received: <strong>4</strong></font> &nbsp; &nbsp; &nbsp; &nbsp; &nbsp; &nbsp;<font class='posOutcome'>Shared back: <strong>2</strong></font></font><div class='respPicDiv'><img src='img/responseButtonOffersNo0_wht.png' class='respPic'></div></div>","null","6","Jason","0","Shared","0.2,0.65","12","0.2","trustrating_stim/white_00898_960530_fa_edt.bmp","3","74","16"
"html-keyboard-response","185","438302","0.0-19.0-1.16","610745dee13497549c9d6fba","bdp_trlrn","Tue Mar 14 2023 19:25:05 GMT-0400 (Eastern Daylight Time)","759178","Trustworthy,Untrustworthy","","796","","","","decision","","<div class='trialDiv'><img src='trustrating_stim/white_00340_940422_fa_edt.bmp'><br><font class='baseline'><strong>Jacob</strong><p>Choose number of points to send.</font><div class='respPicDiv'><img src='img/responseButtonOffersNo0L.png' class='respPic'></div></div>","1","6","Jacob","4","Shared","0.8,0.2","9","0.8","trustrating_stim/white_00340_940422_fa_edt.bmp","7","79","17"
"html-keyboard-response","186","438561","0.0-19.0-2.16","610745dee13497549c9d6fba","bdp_trlrn","Tue Mar 14 2023 19:25:05 GMT-0400 (Eastern Daylight Time)","759178","Trustworthy,Untrustworthy","","null","","","","decisionFB","","<div class='trialDiv'><img src='trustrating_stim/white_00340_940422_fa_edt.bmp'><br><font class='baseline'><strong>Jacob</strong><p>Choose number of points to send.</font><div class='respPicDiv'><img src='img/responseButtonOffersNo0L1.png' class='respPic'></div></div>","null","6","Jacob","4","Shared","0.8,0.2","9","0.8","trustrating_stim/white_00340_940422_fa_edt.bmp","7","78","17"
"html-keyboard-response","187","439565","0.0-19.0-3.16","610745dee13497549c9d6fba","bdp_trlrn","Tue Mar 14 2023 19:25:05 GMT-0400 (Eastern Daylight Time)","759178","Trustworthy,Untrustworthy","","null","","","","feedback","","<div class='trialDiv'><img src='trustrating_stim/white_00340_940422_fa_edt.bmp'><br><font class='baseline'><strong>Jacob</strong><p>Received: <strong>4</strong></font> &nbsp; &nbsp; &nbsp; &nbsp; &nbsp; &nbsp;<font class='posOutcome'>Shared back: <strong>2</strong></font></font><div class='respPicDiv'><img src='img/responseButtonOffersNo0_wht.png' class='respPic'></div></div>","null","6","Jacob","4","Shared","0.8,0.2","9","0.8","trustrating_stim/white_00340_940422_fa_edt.bmp","7","80","17"
"html-keyboard-response","188","441294","0.0-19.0-1.17","610745dee13497549c9d6fba","bdp_trlrn","Tue Mar 14 2023 19:25:05 GMT-0400 (Eastern Daylight Time)","759178","Trustworthy,Untrustworthy","","1728","","","","decision","","<div class='trialDiv'><img src='trustrating_stim/white_00785_941205_fb_edt.bmp'><br><font class='baseline'><strong>Chris</strong><p>Choose number of points to send.</font><div class='respPicDiv'><img src='img/responseButtonOffersNo0L.png' class='respPic'></div></div>","4","6","Chris","8","Kept","0.65,0.2","11","0.65","trustrating_stim/white_00785_941205_fb_edt.bmp","8.5","85","18"
"html-keyboard-response","189","441548","0.0-19.0-2.17","610745dee13497549c9d6fba","bdp_trlrn","Tue Mar 14 2023 19:25:05 GMT-0400 (Eastern Daylight Time)","759178","Trustworthy,Untrustworthy","","null","","","","decisionFB","","<div class='trialDiv'><img src='trustrating_stim/white_00785_941205_fb_edt.bmp'><br><font class='baseline'><strong>Chris</strong><p>Choose number of points to send.</font><div class='respPicDiv'><img src='img/responseButtonOffersNo0L4.png' class='respPic'></div></div>","null","6","Chris","8","Kept","0.65,0.2","11","0.65","trustrating_stim/white_00785_941205_fb_edt.bmp","8.5","81","18"
"html-keyboard-response","190","442557","0.0-19.0-3.17","610745dee13497549c9d6fba","bdp_trlrn","Tue Mar 14 2023 19:25:05 GMT-0400 (Eastern Daylight Time)","759178","Trustworthy,Untrustworthy","","null","","","","feedback","","<div class='trialDiv'><img src='trustrating_stim/white_00785_941205_fb_edt.bmp'><br><font class='baseline'><strong>Chris</strong><p>Received: <strong>16</strong></font> &nbsp; &nbsp; &nbsp; &nbsp; &nbsp; &nbsp;<font class='negOutcome'>Shared back: <strong>0</strong></font></font><div class='respPicDiv'><img src='img/responseButtonOffersNo0_wht.png' class='respPic'></div></div>","null","6","Chris","8","Kept","0.65,0.2","11","0.65","trustrating_stim/white_00785_941205_fb_edt.bmp","8.5","81","18"
"html-keyboard-response","191","443498","0.0-19.0-1.18","610745dee13497549c9d6fba","bdp_trlrn","Tue Mar 14 2023 19:25:05 GMT-0400 (Eastern Daylight Time)","759178","Trustworthy,Untrustworthy","","940","","","","decision","","<div class='trialDiv'><img src='trustrating_stim/white_00898_960530_fa_edt.bmp'><br><font class='baseline'><strong>Jason</strong><p>Choose number of points to send.</font><div class='respPicDiv'><img src='img/responseButtonOffersNo0L.png' class='respPic'></div></div>","1","7","Jason","0","Shared","0.2,0.65","12","0.2","trustrating_stim/white_00898_960530_fa_edt.bmp","3","86","19"
"html-keyboard-response","192","443761","0.0-19.0-2.18","610745dee13497549c9d6fba","bdp_trlrn","Tue Mar 14 2023 19:25:05 GMT-0400 (Eastern Daylight Time)","759178","Trustworthy,Untrustworthy","","null","","","","decisionFB","","<div class='trialDiv'><img src='trustrating_stim/white_00898_960530_fa_edt.bmp'><br><font class='baseline'><strong>Jason</strong><p>Choose number of points to send.</font><div class='respPicDiv'><img src='img/responseButtonOffersNo0L1.png' class='respPic'></div></div>","null","7","Jason","0","Shared","0.2,0.65","12","0.2","trustrating_stim/white_00898_960530_fa_edt.bmp","3","85","19"
"html-keyboard-response","193","444768","0.0-19.0-3.18","610745dee13497549c9d6fba","bdp_trlrn","Tue Mar 14 2023 19:25:05 GMT-0400 (Eastern Daylight Time)","759178","Trustworthy,Untrustworthy","","null","","","","feedback","","<div class='trialDiv'><img src='trustrating_stim/white_00898_960530_fa_edt.bmp'><br><font class='baseline'><strong>Jason</strong><p>Received: <strong>4</strong></font> &nbsp; &nbsp; &nbsp; &nbsp; &nbsp; &nbsp;<font class='posOutcome'>Shared back: <strong>2</strong></font></font><div class='respPicDiv'><img src='img/responseButtonOffersNo0_wht.png' class='respPic'></div></div>","null","7","Jason","0","Shared","0.2,0.65","12","0.2","trustrating_stim/white_00898_960530_fa_edt.bmp","3","87","19"
"html-keyboard-response","194","445581","0.0-19.0-1.19","610745dee13497549c9d6fba","bdp_trlrn","Tue Mar 14 2023 19:25:05 GMT-0400 (Eastern Daylight Time)","759178","Trustworthy,Untrustworthy","","811","","","","decision","","<div class='trialDiv'><img src='trustrating_stim/white_00340_940422_fa_edt.bmp'><br><font class='baseline'><strong>Jacob</strong><p>Choose number of points to send.</font><div class='respPicDiv'><img src='img/responseButtonOffersNo0L.png' class='respPic'></div></div>","2","7","Jacob","4","Shared","0.8,0.2","9","0.8","trustrating_stim/white_00340_940422_fa_edt.bmp","7","92","20"
"html-keyboard-response","195","445841","0.0-19.0-2.19","610745dee13497549c9d6fba","bdp_trlrn","Tue Mar 14 2023 19:25:05 GMT-0400 (Eastern Daylight Time)","759178","Trustworthy,Untrustworthy","","null","","","","decisionFB","","<div class='trialDiv'><img src='trustrating_stim/white_00340_940422_fa_edt.bmp'><br><font class='baseline'><strong>Jacob</strong><p>Choose number of points to send.</font><div class='respPicDiv'><img src='img/responseButtonOffersNo0L2.png' class='respPic'></div></div>","null","7","Jacob","4","Shared","0.8,0.2","9","0.8","trustrating_stim/white_00340_940422_fa_edt.bmp","7","90","20"
"html-keyboard-response","196","446845","0.0-19.0-3.19","610745dee13497549c9d6fba","bdp_trlrn","Tue Mar 14 2023 19:25:05 GMT-0400 (Eastern Daylight Time)","759178","Trustworthy,Untrustworthy","","null","","","","feedback","","<div class='trialDiv'><img src='trustrating_stim/white_00340_940422_fa_edt.bmp'><br><font class='baseline'><strong>Jacob</strong><p>Received: <strong>8</strong></font> &nbsp; &nbsp; &nbsp; &nbsp; &nbsp; &nbsp;<font class='posOutcome'>Shared back: <strong>4</strong></font></font><div class='respPicDiv'><img src='img/responseButtonOffersNo0_wht.png' class='respPic'></div></div>","null","7","Jacob","4","Shared","0.8,0.2","9","0.8","trustrating_stim/white_00340_940422_fa_edt.bmp","7","94","20"
"html-keyboard-response","197","447658","0.0-19.0-1.20","610745dee13497549c9d6fba","bdp_trlrn","Tue Mar 14 2023 19:25:05 GMT-0400 (Eastern Daylight Time)","759178","Trustworthy,Untrustworthy","","812","","","","decision","","<div class='trialDiv'><img src='trustrating_stim/white_00785_941205_fb_edt.bmp'><br><font class='baseline'><strong>Chris</strong><p>Choose number of points to send.</font><div class='respPicDiv'><img src='img/responseButtonOffersNo0L.png' class='respPic'></div></div>","3","7","Chris","8","Shared","0.65,0.2","11","0.65","trustrating_stim/white_00785_941205_fb_edt.bmp","8.5","99","21"
"html-keyboard-response","198","447921","0.0-19.0-2.20","610745dee13497549c9d6fba","bdp_trlrn","Tue Mar 14 2023 19:25:05 GMT-0400 (Eastern Daylight Time)","759178","Trustworthy,Untrustworthy","","null","","","","decisionFB","","<div class='trialDiv'><img src='trustrating_stim/white_00785_941205_fb_edt.bmp'><br><font class='baseline'><strong>Chris</strong><p>Choose number of points to send.</font><div class='respPicDiv'><img src='img/responseButtonOffersNo0L3.png' class='respPic'></div></div>","null","7","Chris","8","Shared","0.65,0.2","11","0.65","trustrating_stim/white_00785_941205_fb_edt.bmp","8.5","96","21"
"html-keyboard-response","199","448927","0.0-19.0-3.20","610745dee13497549c9d6fba","bdp_trlrn","Tue Mar 14 2023 19:25:05 GMT-0400 (Eastern Daylight Time)","759178","Trustworthy,Untrustworthy","","null","","","","feedback","","<div class='trialDiv'><img src='trustrating_stim/white_00785_941205_fb_edt.bmp'><br><font class='baseline'><strong>Chris</strong><p>Received: <strong>12</strong></font> &nbsp; &nbsp; &nbsp; &nbsp; &nbsp; &nbsp;<font class='posOutcome'>Shared back: <strong>6</strong></font></font><div class='respPicDiv'><img src='img/responseButtonOffersNo0_wht.png' class='respPic'></div></div>","null","7","Chris","8","Shared","0.65,0.2","11","0.65","trustrating_stim/white_00785_941205_fb_edt.bmp","8.5","102","21"
"html-keyboard-response","200","449668","0.0-19.0-1.21","610745dee13497549c9d6fba","bdp_trlrn","Tue Mar 14 2023 19:25:05 GMT-0400 (Eastern Daylight Time)","759178","Trustworthy,Untrustworthy","","739","","","","decision","","<div class='trialDiv'><img src='trustrating_stim/white_00898_960530_fa_edt.bmp'><br><font class='baseline'><strong>Jason</strong><p>Choose number of points to send.</font><div class='respPicDiv'><img src='img/responseButtonOffersNo0L.png' class='respPic'></div></div>","1","8","Jason","0","Kept","0.2,0.65","12","0.2","trustrating_stim/white_00898_960530_fa_edt.bmp","3","107","22"
"html-keyboard-response","201","449929","0.0-19.0-2.21","610745dee13497549c9d6fba","bdp_trlrn","Tue Mar 14 2023 19:25:05 GMT-0400 (Eastern Daylight Time)","759178","Trustworthy,Untrustworthy","","null","","","","decisionFB","","<div class='trialDiv'><img src='trustrating_stim/white_00898_960530_fa_edt.bmp'><br><font class='baseline'><strong>Jason</strong><p>Choose number of points to send.</font><div class='respPicDiv'><img src='img/responseButtonOffersNo0L1.png' class='respPic'></div></div>","null","8","Jason","0","Kept","0.2,0.65","12","0.2","trustrating_stim/white_00898_960530_fa_edt.bmp","3","106","22"
"html-keyboard-response","202","450935","0.0-19.0-3.21","610745dee13497549c9d6fba","bdp_trlrn","Tue Mar 14 2023 19:25:05 GMT-0400 (Eastern Daylight Time)","759178","Trustworthy,Untrustworthy","","null","","","","feedback","","<div class='trialDiv'><img src='trustrating_stim/white_00898_960530_fa_edt.bmp'><br><font class='baseline'><strong>Jason</strong><p>Received: <strong>4</strong></font> &nbsp; &nbsp; &nbsp; &nbsp; &nbsp; &nbsp;<font class='negOutcome'>Shared back: <strong>0</strong></font></font><div class='respPicDiv'><img src='img/responseButtonOffersNo0_wht.png' class='respPic'></div></div>","null","8","Jason","0","Kept","0.2,0.65","12","0.2","trustrating_stim/white_00898_960530_fa_edt.bmp","3","106","22"
"html-keyboard-response","203","451784","0.0-19.0-1.22","610745dee13497549c9d6fba","bdp_trlrn","Tue Mar 14 2023 19:25:05 GMT-0400 (Eastern Daylight Time)","759178","Trustworthy,Untrustworthy","","847","","","","decision","","<div class='trialDiv'><img src='trustrating_stim/white_00340_940422_fa_edt.bmp'><br><font class='baseline'><strong>Jacob</strong><p>Choose number of points to send.</font><div class='respPicDiv'><img src='img/responseButtonOffersNo0L.png' class='respPic'></div></div>","4","8","Jacob","4","Shared","0.8,0.2","9","0.8","trustrating_stim/white_00340_940422_fa_edt.bmp","7","111","23"
"html-keyboard-response","204","452041","0.0-19.0-2.22","610745dee13497549c9d6fba","bdp_trlrn","Tue Mar 14 2023 19:25:05 GMT-0400 (Eastern Daylight Time)","759178","Trustworthy,Untrustworthy","","null","","","","decisionFB","","<div class='trialDiv'><img src='trustrating_stim/white_00340_940422_fa_edt.bmp'><br><font class='baseline'><strong>Jacob</strong><p>Choose number of points to send.</font><div class='respPicDiv'><img src='img/responseButtonOffersNo0L4.png' class='respPic'></div></div>","null","8","Jacob","4","Shared","0.8,0.2","9","0.8","trustrating_stim/white_00340_940422_fa_edt.bmp","7","107","23"
"html-keyboard-response","205","453046","0.0-19.0-3.22","610745dee13497549c9d6fba","bdp_trlrn","Tue Mar 14 2023 19:25:05 GMT-0400 (Eastern Daylight Time)","759178","Trustworthy,Untrustworthy","","null","","","","feedback","","<div class='trialDiv'><img src='trustrating_stim/white_00340_940422_fa_edt.bmp'><br><font class='baseline'><strong>Jacob</strong><p>Received: <strong>16</strong></font> &nbsp; &nbsp; &nbsp; &nbsp; &nbsp; &nbsp;<font class='posOutcome'>Shared back: <strong>8</strong></font></font><div class='respPicDiv'><img src='img/responseButtonOffersNo0_wht.png' class='respPic'></div></div>","null","8","Jacob","4","Shared","0.8,0.2","9","0.8","trustrating_stim/white_00340_940422_fa_edt.bmp","7","115","23"
"html-keyboard-response","206","453528","0.0-19.0-1.23","610745dee13497549c9d6fba","bdp_trlrn","Tue Mar 14 2023 19:25:05 GMT-0400 (Eastern Daylight Time)","759178","Trustworthy,Untrustworthy","","481","","","","decision","","<div class='trialDiv'><img src='trustrating_stim/white_00785_941205_fb_edt.bmp'><br><font class='baseline'><strong>Chris</strong><p>Choose number of points to send.</font><div class='respPicDiv'><img src='img/responseButtonOffersNo0L.png' class='respPic'></div></div>","3","8","Chris","8","Shared","0.65,0.2","11","0.65","trustrating_stim/white_00785_941205_fb_edt.bmp","8.5","120","24"
"html-keyboard-response","207","453781","0.0-19.0-2.23","610745dee13497549c9d6fba","bdp_trlrn","Tue Mar 14 2023 19:25:05 GMT-0400 (Eastern Daylight Time)","759178","Trustworthy,Untrustworthy","","null","","","","decisionFB","","<div class='trialDiv'><img src='trustrating_stim/white_00785_941205_fb_edt.bmp'><br><font class='baseline'><strong>Chris</strong><p>Choose number of points to send.</font><div class='respPicDiv'><img src='img/responseButtonOffersNo0L3.png' class='respPic'></div></div>","null","8","Chris","8","Shared","0.65,0.2","11","0.65","trustrating_stim/white_00785_941205_fb_edt.bmp","8.5","117","24"
"html-keyboard-response","208","454790","0.0-19.0-3.23","610745dee13497549c9d6fba","bdp_trlrn","Tue Mar 14 2023 19:25:05 GMT-0400 (Eastern Daylight Time)","759178","Trustworthy,Untrustworthy","","null","","","","feedback","","<div class='trialDiv'><img src='trustrating_stim/white_00785_941205_fb_edt.bmp'><br><font class='baseline'><strong>Chris</strong><p>Received: <strong>12</strong></font> &nbsp; &nbsp; &nbsp; &nbsp; &nbsp; &nbsp;<font class='posOutcome'>Shared back: <strong>6</strong></font></font><div class='respPicDiv'><img src='img/responseButtonOffersNo0_wht.png' class='respPic'></div></div>","null","8","Chris","8","Shared","0.65,0.2","11","0.65","trustrating_stim/white_00785_941205_fb_edt.bmp","8.5","123","24"
"html-keyboard-response","209","455374","0.0-19.0-1.24","610745dee13497549c9d6fba","bdp_trlrn","Tue Mar 14 2023 19:25:05 GMT-0400 (Eastern Daylight Time)","759178","Trustworthy,Untrustworthy","","583","","","","decision","","<div class='trialDiv'><img src='trustrating_stim/white_00898_960530_fa_edt.bmp'><br><font class='baseline'><strong>Jason</strong><p>Choose number of points to send.</font><div class='respPicDiv'><img src='img/responseButtonOffersNo0L.png' class='respPic'></div></div>","2","9","Jason","0","Shared","0.2,0.65","12","0.2","trustrating_stim/white_00898_960530_fa_edt.bmp","3","128","25"
"html-keyboard-response","210","455631","0.0-19.0-2.24","610745dee13497549c9d6fba","bdp_trlrn","Tue Mar 14 2023 19:25:05 GMT-0400 (Eastern Daylight Time)","759178","Trustworthy,Untrustworthy","","null","","","","decisionFB","","<div class='trialDiv'><img src='trustrating_stim/white_00898_960530_fa_edt.bmp'><br><font class='baseline'><strong>Jason</strong><p>Choose number of points to send.</font><div class='respPicDiv'><img src='img/responseButtonOffersNo0L2.png' class='respPic'></div></div>","null","9","Jason","0","Shared","0.2,0.65","12","0.2","trustrating_stim/white_00898_960530_fa_edt.bmp","3","126","25"
"html-keyboard-response","211","456638","0.0-19.0-3.24","610745dee13497549c9d6fba","bdp_trlrn","Tue Mar 14 2023 19:25:05 GMT-0400 (Eastern Daylight Time)","759178","Trustworthy,Untrustworthy","","null","","","","feedback","","<div class='trialDiv'><img src='trustrating_stim/white_00898_960530_fa_edt.bmp'><br><font class='baseline'><strong>Jason</strong><p>Received: <strong>8</strong></font> &nbsp; &nbsp; &nbsp; &nbsp; &nbsp; &nbsp;<font class='posOutcome'>Shared back: <strong>4</strong></font></font><div class='respPicDiv'><img src='img/responseButtonOffersNo0_wht.png' class='respPic'></div></div>","null","9","Jason","0","Shared","0.2,0.65","12","0.2","trustrating_stim/white_00898_960530_fa_edt.bmp","3","130","25"
"html-keyboard-response","212","457900","0.0-19.0-1.25","610745dee13497549c9d6fba","bdp_trlrn","Tue Mar 14 2023 19:25:05 GMT-0400 (Eastern Daylight Time)","759178","Trustworthy,Untrustworthy","","1261","","","","decision","","<div class='trialDiv'><img src='trustrating_stim/white_00785_941205_fb_edt.bmp'><br><font class='baseline'><strong>Chris</strong><p>Choose number of points to send.</font><div class='respPicDiv'><img src='img/responseButtonOffersNo0L.png' class='respPic'></div></div>","3","9","Chris","8","Kept","0.65,0.2","11","0.65","trustrating_stim/white_00785_941205_fb_edt.bmp","8.5","135","26"
"html-keyboard-response","213","458158","0.0-19.0-2.25","610745dee13497549c9d6fba","bdp_trlrn","Tue Mar 14 2023 19:25:05 GMT-0400 (Eastern Daylight Time)","759178","Trustworthy,Untrustworthy","","null","","","","decisionFB","","<div class='trialDiv'><img src='trustrating_stim/white_00785_941205_fb_edt.bmp'><br><font class='baseline'><strong>Chris</strong><p>Choose number of points to send.</font><div class='respPicDiv'><img src='img/responseButtonOffersNo0L3.png' class='respPic'></div></div>","null","9","Chris","8","Kept","0.65,0.2","11","0.65","trustrating_stim/white_00785_941205_fb_edt.bmp","8.5","132","26"
"html-keyboard-response","214","459166","0.0-19.0-3.25","610745dee13497549c9d6fba","bdp_trlrn","Tue Mar 14 2023 19:25:05 GMT-0400 (Eastern Daylight Time)","759178","Trustworthy,Untrustworthy","","null","","","","feedback","","<div class='trialDiv'><img src='trustrating_stim/white_00785_941205_fb_edt.bmp'><br><font class='baseline'><strong>Chris</strong><p>Received: <strong>12</strong></font> &nbsp; &nbsp; &nbsp; &nbsp; &nbsp; &nbsp;<font class='negOutcome'>Shared back: <strong>0</strong></font></font><div class='respPicDiv'><img src='img/responseButtonOffersNo0_wht.png' class='respPic'></div></div>","null","9","Chris","8","Kept","0.65,0.2","11","0.65","trustrating_stim/white_00785_941205_fb_edt.bmp","8.5","132","26"
"html-keyboard-response","215","460242","0.0-19.0-1.26","610745dee13497549c9d6fba","bdp_trlrn","Tue Mar 14 2023 19:25:05 GMT-0400 (Eastern Daylight Time)","759178","Trustworthy,Untrustworthy","","1074","","","","decision","","<div class='trialDiv'><img src='trustrating_stim/white_00340_940422_fa_edt.bmp'><br><font class='baseline'><strong>Jacob</strong><p>Choose number of points to send.</font><div class='respPicDiv'><img src='img/responseButtonOffersNo0L.png' class='respPic'></div></div>","2","9","Jacob","4","Kept","0.8,0.2","9","0.8","trustrating_stim/white_00340_940422_fa_edt.bmp","7","137","27"
"html-keyboard-response","216","460500","0.0-19.0-2.26","610745dee13497549c9d6fba","bdp_trlrn","Tue Mar 14 2023 19:25:05 GMT-0400 (Eastern Daylight Time)","759178","Trustworthy,Untrustworthy","","null","","","","decisionFB","","<div class='trialDiv'><img src='trustrating_stim/white_00340_940422_fa_edt.bmp'><br><font class='baseline'><strong>Jacob</strong><p>Choose number of points to send.</font><div class='respPicDiv'><img src='img/responseButtonOffersNo0L2.png' class='respPic'></div></div>","null","9","Jacob","4","Kept","0.8,0.2","9","0.8","trustrating_stim/white_00340_940422_fa_edt.bmp","7","135","27"
"html-keyboard-response","217","461513","0.0-19.0-3.26","610745dee13497549c9d6fba","bdp_trlrn","Tue Mar 14 2023 19:25:05 GMT-0400 (Eastern Daylight Time)","759178","Trustworthy,Untrustworthy","","null","","","","feedback","","<div class='trialDiv'><img src='trustrating_stim/white_00340_940422_fa_edt.bmp'><br><font class='baseline'><strong>Jacob</strong><p>Received: <strong>8</strong></font> &nbsp; &nbsp; &nbsp; &nbsp; &nbsp; &nbsp;<font class='negOutcome'>Shared back: <strong>0</strong></font></font><div class='respPicDiv'><img src='img/responseButtonOffersNo0_wht.png' class='respPic'></div></div>","null","9","Jacob","4","Kept","0.8,0.2","9","0.8","trustrating_stim/white_00340_940422_fa_edt.bmp","7","135","27"
"html-keyboard-response","218","462342","0.0-19.0-1.27","610745dee13497549c9d6fba","bdp_trlrn","Tue Mar 14 2023 19:25:05 GMT-0400 (Eastern Daylight Time)","759178","Trustworthy,Untrustworthy","","827","","","","decision","","<div class='trialDiv'><img src='trustrating_stim/white_00785_941205_fb_edt.bmp'><br><font class='baseline'><strong>Chris</strong><p>Choose number of points to send.</font><div class='respPicDiv'><img src='img/responseButtonOffersNo0L.png' class='respPic'></div></div>","2","10","Chris","8","Shared","0.65,0.2","11","0.65","trustrating_stim/white_00785_941205_fb_edt.bmp","8.5","140","28"
"html-keyboard-response","219","462601","0.0-19.0-2.27","610745dee13497549c9d6fba","bdp_trlrn","Tue Mar 14 2023 19:25:05 GMT-0400 (Eastern Daylight Time)","759178","Trustworthy,Untrustworthy","","null","","","","decisionFB","","<div class='trialDiv'><img src='trustrating_stim/white_00785_941205_fb_edt.bmp'><br><font class='baseline'><strong>Chris</strong><p>Choose number of points to send.</font><div class='respPicDiv'><img src='img/responseButtonOffersNo0L2.png' class='respPic'></div></div>","null","10","Chris","8","Shared","0.65,0.2","11","0.65","trustrating_stim/white_00785_941205_fb_edt.bmp","8.5","138","28"
