"trial_type","trial_index","time_elapsed","internal_node_id","subject_id","task","startTime","totalTime","labels","view_history","rt","event","trial","time","trialtype","success","stimulus","key_press","numBlurs","aground","name","faceID","outcome","agenttype","agentswpt","agentcurrpshare","face","avgRating","point_total","round"
"pavlovia","0","3","0.0-0.0","63f0fb9941434d10e8e4909b","bdp_trlrn","Sat Apr 08 2023 12:16:53 GMT-0400 (Eastern Daylight Time)","1210128","Untrustworthy,Trustworthy","","","","","","","","","","","","","","","","","","","","",""
"instructions","1","3174","0.0-1.0","63f0fb9941434d10e8e4909b","bdp_trlrn","Sat Apr 08 2023 12:16:53 GMT-0400 (Eastern Daylight Time)","1210128","Untrustworthy,Trustworthy","[{""page_index"":0,""viewing_time"":3171}]","3171","","","","","","","","","","","","","","","","","","",""
"","","","","63f0fb9941434d10e8e4909b","bdp_trlrn","Sat Apr 08 2023 12:16:53 GMT-0400 (Eastern Daylight Time)","1210128","Untrustworthy,Trustworthy","","","fullscreenenter","2","8890","fullscreenenter","","","","","","","","","","","","","","",""
"fullscreen","2","9838","0.0-2.0","63f0fb9941434d10e8e4909b","bdp_trlrn","Sat Apr 08 2023 12:16:53 GMT-0400 (Eastern Daylight Time)","1210128","Untrustworthy,Trustworthy","","","","","","","true","","","","","","","","","","","","","",""
"instructions","3","20293","0.0-4.0","63f0fb9941434d10e8e4909b","bdp_trlrn","Sat Apr 08 2023 12:16:53 GMT-0400 (Eastern Daylight Time)","1210128","Untrustworthy,Trustworthy","[{""page_index"":0,""viewing_time"":8366},{""page_index"":1,""viewing_time"":2088}]","10454","","","","","","","","","","","","","","","","","","",""
"instructions","4","22837","0.0-5.0","63f0fb9941434d10e8e4909b","bdp_trlrn","Sat Apr 08 2023 12:16:53 GMT-0400 (Eastern Daylight Time)","1210128","Untrustworthy,Trustworthy","[{""page_index"":0,""viewing_time"":2544}]","2544","","","","","","","","","","","","","","","","","","",""
"image-keyboard-response","5","28750","0.0-6.0-1.0","63f0fb9941434d10e8e4909b","bdp_trlrn","Sat Apr 08 2023 12:16:53 GMT-0400 (Eastern Daylight Time)","1210128","Untrustworthy,Trustworthy","","5808","","","","rating","","trustrating_stim/white_00659_941121_fa_edt.bmp","8","","","","","","","","","","","",""
"image-keyboard-response","6","28963","0.0-6.0-2.0","63f0fb9941434d10e8e4909b","bdp_trlrn","Sat Apr 08 2023 12:16:53 GMT-0400 (Eastern Daylight Time)","1210128","Untrustworthy,Trustworthy","","null","","","","ratingFB","","trustrating_stim/white_00659_941121_fa_edt.bmp","null","","","","","","","","","","","",""
"image-keyboard-response","7","31636","0.0-6.0-1.1","63f0fb9941434d10e8e4909b","bdp_trlrn","Sat Apr 08 2023 12:16:53 GMT-0400 (Eastern Daylight Time)","1210128","Untrustworthy,Trustworthy","","2572","","","","rating","","trustrating_stim/white_mw063.bmp","3","","","","","","","","","","","",""
"image-keyboard-response","8","31838","0.0-6.0-2.1","63f0fb9941434d10e8e4909b","bdp_trlrn","Sat Apr 08 2023 12:16:53 GMT-0400 (Eastern Daylight Time)","1210128","Untrustworthy,Trustworthy","","null","","","","ratingFB","","trustrating_stim/white_mw063.bmp","null","","","","","","","","","","","",""
"image-keyboard-response","9","34420","0.0-6.0-1.2","63f0fb9941434d10e8e4909b","bdp_trlrn","Sat Apr 08 2023 12:16:53 GMT-0400 (Eastern Daylight Time)","1210128","Untrustworthy,Trustworthy","","2481","","","","rating","","trustrating_stim/white_00519_940519_fb_edt.bmp","7","","","","","","","","","","","",""
"image-keyboard-response","10","34623","0.0-6.0-2.2","63f0fb9941434d10e8e4909b","bdp_trlrn","Sat Apr 08 2023 12:16:53 GMT-0400 (Eastern Daylight Time)","1210128","Untrustworthy,Trustworthy","","null","","","","ratingFB","","trustrating_stim/white_00519_940519_fb_edt.bmp","null","","","","","","","","","","","",""
"image-keyboard-response","11","37125","0.0-6.0-1.3","63f0fb9941434d10e8e4909b","bdp_trlrn","Sat Apr 08 2023 12:16:53 GMT-0400 (Eastern Daylight Time)","1210128","Untrustworthy,Trustworthy","","2401","","","","rating","","trustrating_stim/white_mw033.bmp","5","","","","","","","","","","","",""
"image-keyboard-response","12","37334","0.0-6.0-2.3","63f0fb9941434d10e8e4909b","bdp_trlrn","Sat Apr 08 2023 12:16:53 GMT-0400 (Eastern Daylight Time)","1210128","Untrustworthy,Trustworthy","","null","","","","ratingFB","","trustrating_stim/white_mw033.bmp","null","","","","","","","","","","","",""
"image-keyboard-response","13","39254","0.0-6.0-1.4","63f0fb9941434d10e8e4909b","bdp_trlrn","Sat Apr 08 2023 12:16:53 GMT-0400 (Eastern Daylight Time)","1210128","Untrustworthy,Trustworthy","","1818","","","","rating","","trustrating_stim/white_mw089.bmp","5","","","","","","","","","","","",""
"image-keyboard-response","14","39455","0.0-6.0-2.4","63f0fb9941434d10e8e4909b","bdp_trlrn","Sat Apr 08 2023 12:16:53 GMT-0400 (Eastern Daylight Time)","1210128","Untrustworthy,Trustworthy","","null","","","","ratingFB","","trustrating_stim/white_mw089.bmp","null","","","","","","","","","","","",""
"image-keyboard-response","15","41701","0.0-6.0-1.5","63f0fb9941434d10e8e4909b","bdp_trlrn","Sat Apr 08 2023 12:16:53 GMT-0400 (Eastern Daylight Time)","1210128","Untrustworthy,Trustworthy","","2143","","","","rating","","trustrating_stim/white_00109_931230_fa_edt.bmp","7","","","","","","","","","","","",""
"image-keyboard-response","16","41902","0.0-6.0-2.5","63f0fb9941434d10e8e4909b","bdp_trlrn","Sat Apr 08 2023 12:16:53 GMT-0400 (Eastern Daylight Time)","1210128","Untrustworthy,Trustworthy","","null","","","","ratingFB","","trustrating_stim/white_00109_931230_fa_edt.bmp","null","","","","","","","","","","","",""
"image-keyboard-response","17","45133","0.0-6.0-1.6","63f0fb9941434d10e8e4909b","bdp_trlrn","Sat Apr 08 2023 12:16:53 GMT-0400 (Eastern Daylight Time)","1210128","Untrustworthy,Trustworthy","","3128","","","","rating","","trustrating_stim/white_mw035.bmp","7","","","","","","","","","","","",""
"image-keyboard-response","18","45334","0.0-6.0-2.6","63f0fb9941434d10e8e4909b","bdp_trlrn","Sat Apr 08 2023 12:16:53 GMT-0400 (Eastern Daylight Time)","1210128","Untrustworthy,Trustworthy","","null","","","","ratingFB","","trustrating_stim/white_mw035.bmp","null","","","","","","","","","","","",""
"image-keyboard-response","19","47725","0.0-6.0-1.7","63f0fb9941434d10e8e4909b","bdp_trlrn","Sat Apr 08 2023 12:16:53 GMT-0400 (Eastern Daylight Time)","1210128","Untrustworthy,Trustworthy","","2288","","","","rating","","trustrating_stim/white_mw053.bmp","7","","","","","","","","","","","",""
"image-keyboard-response","20","47925","0.0-6.0-2.7","63f0fb9941434d10e8e4909b","bdp_trlrn","Sat Apr 08 2023 12:16:53 GMT-0400 (Eastern Daylight Time)","1210128","Untrustworthy,Trustworthy","","null","","","","ratingFB","","trustrating_stim/white_mw053.bmp","null","","","","","","","","","","","",""
"image-keyboard-response","21","50309","0.0-6.0-1.8","63f0fb9941434d10e8e4909b","bdp_trlrn","Sat Apr 08 2023 12:16:53 GMT-0400 (Eastern Daylight Time)","1210128","Untrustworthy,Trustworthy","","2283","","","","rating","","trustrating_stim/white_00785_941205_fb_edt.bmp","6","","","","","","","","","","","",""
"image-keyboard-response","22","50511","0.0-6.0-2.8","63f0fb9941434d10e8e4909b","bdp_trlrn","Sat Apr 08 2023 12:16:53 GMT-0400 (Eastern Daylight Time)","1210128","Untrustworthy,Trustworthy","","null","","","","ratingFB","","trustrating_stim/white_00785_941205_fb_edt.bmp","null","","","","","","","","","","","",""
"image-keyboard-response","23","53141","0.0-6.0-1.9","63f0fb9941434d10e8e4909b","bdp_trlrn","Sat Apr 08 2023 12:16:53 GMT-0400 (Eastern Daylight Time)","1210128","Untrustworthy,Trustworthy","","2527","","","","rating","","trustrating_stim/white_00577_940928_fa_edt.bmp","4","","","","","","","","","","","",""
"image-keyboard-response","24","53342","0.0-6.0-2.9","63f0fb9941434d10e8e4909b","bdp_trlrn","Sat Apr 08 2023 12:16:53 GMT-0400 (Eastern Daylight Time)","1210128","Untrustworthy,Trustworthy","","null","","","","ratingFB","","trustrating_stim/white_00577_940928_fa_edt.bmp","null","","","","","","","","","","","",""
"image-keyboard-response","25","55461","0.0-6.0-1.10","63f0fb9941434d10e8e4909b","bdp_trlrn","Sat Apr 08 2023 12:16:53 GMT-0400 (Eastern Daylight Time)","1210128","Untrustworthy,Trustworthy","","2018","","","","rating","","trustrating_stim/white_mw071.bmp","5","","","","","","","","","","","",""
"image-keyboard-response","26","55663","0.0-6.0-2.10","63f0fb9941434d10e8e4909b","bdp_trlrn","Sat Apr 08 2023 12:16:53 GMT-0400 (Eastern Daylight Time)","1210128","Untrustworthy,Trustworthy","","null","","","","ratingFB","","trustrating_stim/white_mw071.bmp","null","","","","","","","","","","","",""
"image-keyboard-response","27","59565","0.0-6.0-1.11","63f0fb9941434d10e8e4909b","bdp_trlrn","Sat Apr 08 2023 12:16:53 GMT-0400 (Eastern Daylight Time)","1210128","Untrustworthy,Trustworthy","","3800","","","","rating","","trustrating_stim/white_00761_941201_fb_edt.bmp","7","","","","","","","","","","","",""
"image-keyboard-response","28","59773","0.0-6.0-2.11","63f0fb9941434d10e8e4909b","bdp_trlrn","Sat Apr 08 2023 12:16:53 GMT-0400 (Eastern Daylight Time)","1210128","Untrustworthy,Trustworthy","","null","","","","ratingFB","","trustrating_stim/white_00761_941201_fb_edt.bmp","null","","","","","","","","","","","",""
"image-keyboard-response","29","62141","0.0-6.0-1.12","63f0fb9941434d10e8e4909b","bdp_trlrn","Sat Apr 08 2023 12:16:53 GMT-0400 (Eastern Daylight Time)","1210128","Untrustworthy,Trustworthy","","2267","","","","rating","","trustrating_stim/white_00898_960530_fa_edt.bmp","7","","","","","","","","","","","",""
"image-keyboard-response","30","62342","0.0-6.0-2.12","63f0fb9941434d10e8e4909b","bdp_trlrn","Sat Apr 08 2023 12:16:53 GMT-0400 (Eastern Daylight Time)","1210128","Untrustworthy,Trustworthy","","null","","","","ratingFB","","trustrating_stim/white_00898_960530_fa_edt.bmp","null","","","","","","","","","","","",""
"image-keyboard-response","31","63876","0.0-6.0-1.13","63f0fb9941434d10e8e4909b","bdp_trlrn","Sat Apr 08 2023 12:16:53 GMT-0400 (Eastern Daylight Time)","1210128","Untrustworthy,Trustworthy","","1432","","","","rating","","trustrating_stim/white_00129_931230_fb_edt.bmp","6","","","","","","","","","","","",""
"image-keyboard-response","32","64078","0.0-6.0-2.13","63f0fb9941434d10e8e4909b","bdp_trlrn","Sat Apr 08 2023 12:16:53 GMT-0400 (Eastern Daylight Time)","1210128","Untrustworthy,Trustworthy","","null","","","","ratingFB","","trustrating_stim/white_00129_931230_fb_edt.bmp","null","","","","","","","","","","","",""
"image-keyboard-response","33","65941","0.0-6.0-1.14","63f0fb9941434d10e8e4909b","bdp_trlrn","Sat Apr 08 2023 12:16:53 GMT-0400 (Eastern Daylight Time)","1210128","Untrustworthy,Trustworthy","","1752","","","","rating","","trustrating_stim/white_mw066.bmp","5","","","","","","","","","","","",""
"image-keyboard-response","34","66143","0.0-6.0-2.14","63f0fb9941434d10e8e4909b","bdp_trlrn","Sat Apr 08 2023 12:16:53 GMT-0400 (Eastern Daylight Time)","1210128","Untrustworthy,Trustworthy","","null","","","","ratingFB","","trustrating_stim/white_mw066.bmp","null","","","","","","","","","","","",""
"image-keyboard-response","35","68076","0.0-6.0-1.15","63f0fb9941434d10e8e4909b","bdp_trlrn","Sat Apr 08 2023 12:16:53 GMT-0400 (Eastern Daylight Time)","1210128","Untrustworthy,Trustworthy","","1832","","","","rating","","trustrating_stim/white_mw060.bmp","3","","","","","","","","","","","",""
"image-keyboard-response","36","68278","0.0-6.0-2.15","63f0fb9941434d10e8e4909b","bdp_trlrn","Sat Apr 08 2023 12:16:53 GMT-0400 (Eastern Daylight Time)","1210128","Untrustworthy,Trustworthy","","null","","","","ratingFB","","trustrating_stim/white_mw060.bmp","null","","","","","","","","","","","",""
"image-keyboard-response","37","69981","0.0-6.0-1.16","63f0fb9941434d10e8e4909b","bdp_trlrn","Sat Apr 08 2023 12:16:53 GMT-0400 (Eastern Daylight Time)","1210128","Untrustworthy,Trustworthy","","1600","","","","rating","","trustrating_stim/white_mw049.bmp","5","","","","","","","","","","","",""
"image-keyboard-response","38","70182","0.0-6.0-2.16","63f0fb9941434d10e8e4909b","bdp_trlrn","Sat Apr 08 2023 12:16:53 GMT-0400 (Eastern Daylight Time)","1210128","Untrustworthy,Trustworthy","","null","","","","ratingFB","","trustrating_stim/white_mw049.bmp","null","","","","","","","","","","","",""
"image-keyboard-response","39","71828","0.0-6.0-1.17","63f0fb9941434d10e8e4909b","bdp_trlrn","Sat Apr 08 2023 12:16:53 GMT-0400 (Eastern Daylight Time)","1210128","Untrustworthy,Trustworthy","","1545","","","","rating","","trustrating_stim/white_00602_940928_fb_edt.bmp","6","","","","","","","","","","","",""
"image-keyboard-response","40","72029","0.0-6.0-2.17","63f0fb9941434d10e8e4909b","bdp_trlrn","Sat Apr 08 2023 12:16:53 GMT-0400 (Eastern Daylight Time)","1210128","Untrustworthy,Trustworthy","","null","","","","ratingFB","","trustrating_stim/white_00602_940928_fb_edt.bmp","null","","","","","","","","","","","",""
"image-keyboard-response","41","74373","0.0-6.0-1.18","63f0fb9941434d10e8e4909b","bdp_trlrn","Sat Apr 08 2023 12:16:53 GMT-0400 (Eastern Daylight Time)","1210128","Untrustworthy,Trustworthy","","2242","","","","rating","","trustrating_stim/white_mw097.bmp","6","","","","","","","","","","","",""
"image-keyboard-response","42","74574","0.0-6.0-2.18","63f0fb9941434d10e8e4909b","bdp_trlrn","Sat Apr 08 2023 12:16:53 GMT-0400 (Eastern Daylight Time)","1210128","Untrustworthy,Trustworthy","","null","","","","ratingFB","","trustrating_stim/white_mw097.bmp","null","","","","","","","","","","","",""
"image-keyboard-response","43","76364","0.0-6.0-1.19","63f0fb9941434d10e8e4909b","bdp_trlrn","Sat Apr 08 2023 12:16:53 GMT-0400 (Eastern Daylight Time)","1210128","Untrustworthy,Trustworthy","","1689","","","","rating","","trustrating_stim/white_00340_940422_fa_edt.bmp","4","","","","","","","","","","","",""
"image-keyboard-response","44","76566","0.0-6.0-2.19","63f0fb9941434d10e8e4909b","bdp_trlrn","Sat Apr 08 2023 12:16:53 GMT-0400 (Eastern Daylight Time)","1210128","Untrustworthy,Trustworthy","","null","","","","ratingFB","","trustrating_stim/white_00340_940422_fa_edt.bmp","null","","","","","","","","","","","",""
"image-keyboard-response","45","78909","0.0-6.0-1.20","63f0fb9941434d10e8e4909b","bdp_trlrn","Sat Apr 08 2023 12:16:53 GMT-0400 (Eastern Daylight Time)","1210128","Untrustworthy,Trustworthy","","2241","","","","rating","","trustrating_stim/white_00807_941205_fb_edt.bmp","5","","","","","","","","","","","",""
"image-keyboard-response","46","79110","0.0-6.0-2.20","63f0fb9941434d10e8e4909b","bdp_trlrn","Sat Apr 08 2023 12:16:53 GMT-0400 (Eastern Daylight Time)","1210128","Untrustworthy,Trustworthy","","null","","","","ratingFB","","trustrating_stim/white_00807_941205_fb_edt.bmp","null","","","","","","","","","","","",""
"image-keyboard-response","47","83605","0.0-6.0-1.21","63f0fb9941434d10e8e4909b","bdp_trlrn","Sat Apr 08 2023 12:16:53 GMT-0400 (Eastern Daylight Time)","1210128","Untrustworthy,Trustworthy","","4394","","","","rating","","trustrating_stim/white_00120_931230_fa_edt.bmp","5","","","","","","","","","","","",""
"image-keyboard-response","48","83816","0.0-6.0-2.21","63f0fb9941434d10e8e4909b","bdp_trlrn","Sat Apr 08 2023 12:16:53 GMT-0400 (Eastern Daylight Time)","1210128","Untrustworthy,Trustworthy","","null","","","","ratingFB","","trustrating_stim/white_00120_931230_fa_edt.bmp","null","","","","","","","","","","","",""
"image-keyboard-response","49","85469","0.0-6.0-1.22","63f0fb9941434d10e8e4909b","bdp_trlrn","Sat Apr 08 2023 12:16:53 GMT-0400 (Eastern Daylight Time)","1210128","Untrustworthy,Trustworthy","","1552","","","","rating","","trustrating_stim/white_00299_940422_fa_edt.bmp","4","","","","","","","","","","","",""
"image-keyboard-response","50","85670","0.0-6.0-2.22","63f0fb9941434d10e8e4909b","bdp_trlrn","Sat Apr 08 2023 12:16:53 GMT-0400 (Eastern Daylight Time)","1210128","Untrustworthy,Trustworthy","","null","","","","ratingFB","","trustrating_stim/white_00299_940422_fa_edt.bmp","null","","","","","","","","","","","",""
"image-keyboard-response","51","87165","0.0-6.0-1.23","63f0fb9941434d10e8e4909b","bdp_trlrn","Sat Apr 08 2023 12:16:53 GMT-0400 (Eastern Daylight Time)","1210128","Untrustworthy,Trustworthy","","1392","","","","rating","","trustrating_stim/white_00223_940128_fb_edt.bmp","3","","","","","","","","","","","",""
"image-keyboard-response","52","87379","0.0-6.0-2.23","63f0fb9941434d10e8e4909b","bdp_trlrn","Sat Apr 08 2023 12:16:53 GMT-0400 (Eastern Daylight Time)","1210128","Untrustworthy,Trustworthy","","null","","","","ratingFB","","trustrating_stim/white_00223_940128_fb_edt.bmp","null","","","","","","","","","","","",""
"image-keyboard-response","53","89453","0.0-6.0-1.24","63f0fb9941434d10e8e4909b","bdp_trlrn","Sat Apr 08 2023 12:16:53 GMT-0400 (Eastern Daylight Time)","1210128","Untrustworthy,Trustworthy","","1971","","","","rating","","trustrating_stim/white_mw056.bmp","6","","","","","","","","","","","",""
"image-keyboard-response","54","89654","0.0-6.0-2.24","63f0fb9941434d10e8e4909b","bdp_trlrn","Sat Apr 08 2023 12:16:53 GMT-0400 (Eastern Daylight Time)","1210128","Untrustworthy,Trustworthy","","null","","","","ratingFB","","trustrating_stim/white_mw056.bmp","null","","","","","","","","","","","",""
"image-keyboard-response","55","92549","0.0-6.0-1.25","63f0fb9941434d10e8e4909b","bdp_trlrn","Sat Apr 08 2023 12:16:53 GMT-0400 (Eastern Daylight Time)","1210128","Untrustworthy,Trustworthy","","2793","","","","rating","","trustrating_stim/white_mw099.bmp","5","","","","","","","","","","","",""
"image-keyboard-response","56","92751","0.0-6.0-2.25","63f0fb9941434d10e8e4909b","bdp_trlrn","Sat Apr 08 2023 12:16:53 GMT-0400 (Eastern Daylight Time)","1210128","Untrustworthy,Trustworthy","","null","","","","ratingFB","","trustrating_stim/white_mw099.bmp","null","","","","","","","","","","","",""
"image-keyboard-response","57","94397","0.0-6.0-1.26","63f0fb9941434d10e8e4909b","bdp_trlrn","Sat Apr 08 2023 12:16:53 GMT-0400 (Eastern Daylight Time)","1210128","Untrustworthy,Trustworthy","","1543","","","","rating","","trustrating_stim/white_mw084.bmp","5","","","","","","","","","","","",""
"image-keyboard-response","58","94599","0.0-6.0-2.26","63f0fb9941434d10e8e4909b","bdp_trlrn","Sat Apr 08 2023 12:16:53 GMT-0400 (Eastern Daylight Time)","1210128","Untrustworthy,Trustworthy","","null","","","","ratingFB","","trustrating_stim/white_mw084.bmp","null","","","","","","","","","","","",""
"image-keyboard-response","59","96749","0.0-6.0-1.27","63f0fb9941434d10e8e4909b","bdp_trlrn","Sat Apr 08 2023 12:16:53 GMT-0400 (Eastern Daylight Time)","1210128","Untrustworthy,Trustworthy","","2048","","","","rating","","trustrating_stim/white_00757_941201_fa_edt.bmp","2","","","","","","","","","","","",""
"image-keyboard-response","60","96950","0.0-6.0-2.27","63f0fb9941434d10e8e4909b","bdp_trlrn","Sat Apr 08 2023 12:16:53 GMT-0400 (Eastern Daylight Time)","1210128","Untrustworthy,Trustworthy","","null","","","","ratingFB","","trustrating_stim/white_00757_941201_fa_edt.bmp","null","","","","","","","","","","","",""
"image-keyboard-response","61","100541","0.0-6.0-1.28","63f0fb9941434d10e8e4909b","bdp_trlrn","Sat Apr 08 2023 12:16:53 GMT-0400 (Eastern Daylight Time)","1210128","Untrustworthy,Trustworthy","","3488","","","","rating","","trustrating_stim/white_mw046.bmp","4","","","","","","","","","","","",""
"image-keyboard-response","62","100742","0.0-6.0-2.28","63f0fb9941434d10e8e4909b","bdp_trlrn","Sat Apr 08 2023 12:16:53 GMT-0400 (Eastern Daylight Time)","1210128","Untrustworthy,Trustworthy","","null","","","","ratingFB","","trustrating_stim/white_mw046.bmp","null","","","","","","","","","","","",""
"image-keyboard-response","63","103261","0.0-6.0-1.29","63f0fb9941434d10e8e4909b","bdp_trlrn","Sat Apr 08 2023 12:16:53 GMT-0400 (Eastern Daylight Time)","1210128","Untrustworthy,Trustworthy","","2417","","","","rating","","trustrating_stim/white_mw048.bmp","4","","","","","","","","","","","",""
"image-keyboard-response","64","103462","0.0-6.0-2.29","63f0fb9941434d10e8e4909b","bdp_trlrn","Sat Apr 08 2023 12:16:53 GMT-0400 (Eastern Daylight Time)","1210128","Untrustworthy,Trustworthy","","null","","","","ratingFB","","trustrating_stim/white_mw048.bmp","null","","","","","","","","","","","",""
"image-keyboard-response","65","106045","0.0-6.0-1.30","63f0fb9941434d10e8e4909b","bdp_trlrn","Sat Apr 08 2023 12:16:53 GMT-0400 (Eastern Daylight Time)","1210128","Untrustworthy,Trustworthy","","2481","","","","rating","","trustrating_stim/white_00807_941205_fb_edt.bmp","4","","","","","","","","","","","",""
"image-keyboard-response","66","106259","0.0-6.0-2.30","63f0fb9941434d10e8e4909b","bdp_trlrn","Sat Apr 08 2023 12:16:53 GMT-0400 (Eastern Daylight Time)","1210128","Untrustworthy,Trustworthy","","null","","","","ratingFB","","trustrating_stim/white_00807_941205_fb_edt.bmp","null","","","","","","","","","","","",""
"image-keyboard-response","67","111205","0.0-6.0-1.31","63f0fb9941434d10e8e4909b","bdp_trlrn","Sat Apr 08 2023 12:16:53 GMT-0400 (Eastern Daylight Time)","1210128","Untrustworthy,Trustworthy","","4844","","","","rating","","trustrating_stim/white_00299_940422_fa_edt.bmp","5","","","","","","","","","","","",""
"image-keyboard-response","68","111408","0.0-6.0-2.31","63f0fb9941434d10e8e4909b","bdp_trlrn","Sat Apr 08 2023 12:16:53 GMT-0400 (Eastern Daylight Time)","1210128","Untrustworthy,Trustworthy","","null","","","","ratingFB","","trustrating_stim/white_00299_940422_fa_edt.bmp","null","","","","","","","","","","","",""
"image-keyboard-response","69","115933","0.0-6.0-1.32","63f0fb9941434d10e8e4909b","bdp_trlrn","Sat Apr 08 2023 12:16:53 GMT-0400 (Eastern Daylight Time)","1210128","Untrustworthy,Trustworthy","","4423","","","","rating","","trustrating_stim/white_00659_941121_fa_edt.bmp","7","","","","","","","","","","","",""
"image-keyboard-response","70","116134","0.0-6.0-2.32","63f0fb9941434d10e8e4909b","bdp_trlrn","Sat Apr 08 2023 12:16:53 GMT-0400 (Eastern Daylight Time)","1210128","Untrustworthy,Trustworthy","","null","","","","ratingFB","","trustrating_stim/white_00659_941121_fa_edt.bmp","null","","","","","","","","","","","",""
"image-keyboard-response","71","119989","0.0-6.0-1.33","63f0fb9941434d10e8e4909b","bdp_trlrn","Sat Apr 08 2023 12:16:53 GMT-0400 (Eastern Daylight Time)","1210128","Untrustworthy,Trustworthy","","3753","","","","rating","","trustrating_stim/white_mw071.bmp","5","","","","","","","","","","","",""
"image-keyboard-response","72","120190","0.0-6.0-2.33","63f0fb9941434d10e8e4909b","bdp_trlrn","Sat Apr 08 2023 12:16:53 GMT-0400 (Eastern Daylight Time)","1210128","Untrustworthy,Trustworthy","","null","","","","ratingFB","","trustrating_stim/white_mw071.bmp","null","","","","","","","","","","","",""
"image-keyboard-response","73","121709","0.0-6.0-1.34","63f0fb9941434d10e8e4909b","bdp_trlrn","Sat Apr 08 2023 12:16:53 GMT-0400 (Eastern Daylight Time)","1210128","Untrustworthy,Trustworthy","","1417","","","","rating","","trustrating_stim/white_00109_931230_fa_edt.bmp","7","","","","","","","","","","","",""
"image-keyboard-response","74","121910","0.0-6.0-2.34","63f0fb9941434d10e8e4909b","bdp_trlrn","Sat Apr 08 2023 12:16:53 GMT-0400 (Eastern Daylight Time)","1210128","Untrustworthy,Trustworthy","","null","","","","ratingFB","","trustrating_stim/white_00109_931230_fa_edt.bmp","null","","","","","","","","","","","",""
"image-keyboard-response","75","126084","0.0-6.0-1.35","63f0fb9941434d10e8e4909b","bdp_trlrn","Sat Apr 08 2023 12:16:53 GMT-0400 (Eastern Daylight Time)","1210128","Untrustworthy,Trustworthy","","4072","","","","rating","","trustrating_stim/white_mw097.bmp","4","","","","","","","","","","","",""
"image-keyboard-response","76","126286","0.0-6.0-2.35","63f0fb9941434d10e8e4909b","bdp_trlrn","Sat Apr 08 2023 12:16:53 GMT-0400 (Eastern Daylight Time)","1210128","Untrustworthy,Trustworthy","","null","","","","ratingFB","","trustrating_stim/white_mw097.bmp","null","","","","","","","","","","","",""
"image-keyboard-response","77","129828","0.0-6.0-1.36","63f0fb9941434d10e8e4909b","bdp_trlrn","Sat Apr 08 2023 12:16:53 GMT-0400 (Eastern Daylight Time)","1210128","Untrustworthy,Trustworthy","","3440","","","","rating","","trustrating_stim/white_mw046.bmp","5","","","","","","","","","","","",""
"image-keyboard-response","78","130031","0.0-6.0-2.36","63f0fb9941434d10e8e4909b","bdp_trlrn","Sat Apr 08 2023 12:16:53 GMT-0400 (Eastern Daylight Time)","1210128","Untrustworthy,Trustworthy","","null","","","","ratingFB","","trustrating_stim/white_mw046.bmp","null","","","","","","","","","","","",""
"image-keyboard-response","79","131628","0.0-6.0-1.37","63f0fb9941434d10e8e4909b","bdp_trlrn","Sat Apr 08 2023 12:16:53 GMT-0400 (Eastern Daylight Time)","1210128","Untrustworthy,Trustworthy","","1495","","","","rating","","trustrating_stim/white_mw099.bmp","5","","","","","","","","","","","",""
"image-keyboard-response","80","131830","0.0-6.0-2.37","63f0fb9941434d10e8e4909b","bdp_trlrn","Sat Apr 08 2023 12:16:53 GMT-0400 (Eastern Daylight Time)","1210128","Untrustworthy,Trustworthy","","null","","","","ratingFB","","trustrating_stim/white_mw099.bmp","null","","","","","","","","","","","",""
"image-keyboard-response","81","133357","0.0-6.0-1.38","63f0fb9941434d10e8e4909b","bdp_trlrn","Sat Apr 08 2023 12:16:53 GMT-0400 (Eastern Daylight Time)","1210128","Untrustworthy,Trustworthy","","1426","","","","rating","","trustrating_stim/white_00757_941201_fa_edt.bmp","4","","","","","","","","","","","",""
"image-keyboard-response","82","133558","0.0-6.0-2.38","63f0fb9941434d10e8e4909b","bdp_trlrn","Sat Apr 08 2023 12:16:53 GMT-0400 (Eastern Daylight Time)","1210128","Untrustworthy,Trustworthy","","null","","","","ratingFB","","trustrating_stim/white_00757_941201_fa_edt.bmp","null","","","","","","","","","","","",""
"image-keyboard-response","83","136132","0.0-6.0-1.39","63f0fb9941434d10e8e4909b","bdp_trlrn","Sat Apr 08 2023 12:16:53 GMT-0400 (Eastern Daylight Time)","1210128","Untrustworthy,Trustworthy","","2472","","","","rating","","trustrating_stim/white_mw089.bmp","6","","","","","","","","","","","",""
"image-keyboard-response","84","136333","0.0-6.0-2.39","63f0fb9941434d10e8e4909b","bdp_trlrn","Sat Apr 08 2023 12:16:53 GMT-0400 (Eastern Daylight Time)","1210128","Untrustworthy,Trustworthy","","null","","","","ratingFB","","trustrating_stim/white_mw089.bmp","null","","","","","","","","","","","",""
"image-keyboard-response","85","138508","0.0-6.0-1.40","63f0fb9941434d10e8e4909b","bdp_trlrn","Sat Apr 08 2023 12:16:53 GMT-0400 (Eastern Daylight Time)","1210128","Untrustworthy,Trustworthy","","2073","","","","rating","","trustrating_stim/white_mw048.bmp","4","","","","","","","","","","","",""
"image-keyboard-response","86","138709","0.0-6.0-2.40","63f0fb9941434d10e8e4909b","bdp_trlrn","Sat Apr 08 2023 12:16:53 GMT-0400 (Eastern Daylight Time)","1210128","Untrustworthy,Trustworthy","","null","","","","ratingFB","","trustrating_stim/white_mw048.bmp","null","","","","","","","","","","","",""
"image-keyboard-response","87","140356","0.0-6.0-1.41","63f0fb9941434d10e8e4909b","bdp_trlrn","Sat Apr 08 2023 12:16:53 GMT-0400 (Eastern Daylight Time)","1210128","Untrustworthy,Trustworthy","","1546","","","","rating","","trustrating_stim/white_mw033.bmp","4","","","","","","","","","","","",""
"image-keyboard-response","88","140558","0.0-6.0-2.41","63f0fb9941434d10e8e4909b","bdp_trlrn","Sat Apr 08 2023 12:16:53 GMT-0400 (Eastern Daylight Time)","1210128","Untrustworthy,Trustworthy","","null","","","","ratingFB","","trustrating_stim/white_mw033.bmp","null","","","","","","","","","","","",""
"image-keyboard-response","89","142068","0.0-6.0-1.42","63f0fb9941434d10e8e4909b","bdp_trlrn","Sat Apr 08 2023 12:16:53 GMT-0400 (Eastern Daylight Time)","1210128","Untrustworthy,Trustworthy","","1408","","","","rating","","trustrating_stim/white_mw056.bmp","5","","","","","","","","","","","",""
"image-keyboard-response","90","142269","0.0-6.0-2.42","63f0fb9941434d10e8e4909b","bdp_trlrn","Sat Apr 08 2023 12:16:53 GMT-0400 (Eastern Daylight Time)","1210128","Untrustworthy,Trustworthy","","null","","","","ratingFB","","trustrating_stim/white_mw056.bmp","null","","","","","","","","","","","",""
"image-keyboard-response","91","145037","0.0-6.0-1.43","63f0fb9941434d10e8e4909b","bdp_trlrn","Sat Apr 08 2023 12:16:53 GMT-0400 (Eastern Daylight Time)","1210128","Untrustworthy,Trustworthy","","2665","","","","rating","","trustrating_stim/white_00223_940128_fb_edt.bmp","4","","","","","","","","","","","",""
"image-keyboard-response","92","145238","0.0-6.0-2.43","63f0fb9941434d10e8e4909b","bdp_trlrn","Sat Apr 08 2023 12:16:53 GMT-0400 (Eastern Daylight Time)","1210128","Untrustworthy,Trustworthy","","null","","","","ratingFB","","trustrating_stim/white_00223_940128_fb_edt.bmp","null","","","","","","","","","","","",""
"image-keyboard-response","93","146820","0.0-6.0-1.44","63f0fb9941434d10e8e4909b","bdp_trlrn","Sat Apr 08 2023 12:16:53 GMT-0400 (Eastern Daylight Time)","1210128","Untrustworthy,Trustworthy","","1481","","","","rating","","trustrating_stim/white_mw053.bmp","7","","","","","","","","","","","",""
"image-keyboard-response","94","147021","0.0-6.0-2.44","63f0fb9941434d10e8e4909b","bdp_trlrn","Sat Apr 08 2023 12:16:53 GMT-0400 (Eastern Daylight Time)","1210128","Untrustworthy,Trustworthy","","null","","","","ratingFB","","trustrating_stim/white_mw053.bmp","null","","","","","","","","","","","",""
"image-keyboard-response","95","150156","0.0-6.0-1.45","63f0fb9941434d10e8e4909b","bdp_trlrn","Sat Apr 08 2023 12:16:53 GMT-0400 (Eastern Daylight Time)","1210128","Untrustworthy,Trustworthy","","3034","","","","rating","","trustrating_stim/white_mw035.bmp","6","","","","","","","","","","","",""
"image-keyboard-response","96","150358","0.0-6.0-2.45","63f0fb9941434d10e8e4909b","bdp_trlrn","Sat Apr 08 2023 12:16:53 GMT-0400 (Eastern Daylight Time)","1210128","Untrustworthy,Trustworthy","","null","","","","ratingFB","","trustrating_stim/white_mw035.bmp","null","","","","","","","","","","","",""
"image-keyboard-response","97","153100","0.0-6.0-1.46","63f0fb9941434d10e8e4909b","bdp_trlrn","Sat Apr 08 2023 12:16:53 GMT-0400 (Eastern Daylight Time)","1210128","Untrustworthy,Trustworthy","","2641","","","","rating","","trustrating_stim/white_mw084.bmp","5","","","","","","","","","","","",""
"image-keyboard-response","98","153302","0.0-6.0-2.46","63f0fb9941434d10e8e4909b","bdp_trlrn","Sat Apr 08 2023 12:16:53 GMT-0400 (Eastern Daylight Time)","1210128","Untrustworthy,Trustworthy","","null","","","","ratingFB","","trustrating_stim/white_mw084.bmp","null","","","","","","","","","","","",""
"image-keyboard-response","99","154636","0.0-6.0-1.47","63f0fb9941434d10e8e4909b","bdp_trlrn","Sat Apr 08 2023 12:16:53 GMT-0400 (Eastern Daylight Time)","1210128","Untrustworthy,Trustworthy","","1233","","","","rating","","trustrating_stim/white_00120_931230_fa_edt.bmp","5","","","","","","","","","","","",""
"image-keyboard-response","100","154837","0.0-6.0-2.47","63f0fb9941434d10e8e4909b","bdp_trlrn","Sat Apr 08 2023 12:16:53 GMT-0400 (Eastern Daylight Time)","1210128","Untrustworthy,Trustworthy","","null","","","","ratingFB","","trustrating_stim/white_00120_931230_fa_edt.bmp","null","","","","","","","","","","","",""
"image-keyboard-response","101","157636","0.0-6.0-1.48","63f0fb9941434d10e8e4909b","bdp_trlrn","Sat Apr 08 2023 12:16:53 GMT-0400 (Eastern Daylight Time)","1210128","Untrustworthy,Trustworthy","","2697","","","","rating","","trustrating_stim/white_00785_941205_fb_edt.bmp","7","","","","","","","","","","","",""
"image-keyboard-response","102","157838","0.0-6.0-2.48","63f0fb9941434d10e8e4909b","bdp_trlrn","Sat Apr 08 2023 12:16:53 GMT-0400 (Eastern Daylight Time)","1210128","Untrustworthy,Trustworthy","","null","","","","ratingFB","","trustrating_stim/white_00785_941205_fb_edt.bmp","null","","","","","","","","","","","",""
"image-keyboard-response","103","160108","0.0-6.0-1.49","63f0fb9941434d10e8e4909b","bdp_trlrn","Sat Apr 08 2023 12:16:53 GMT-0400 (Eastern Daylight Time)","1210128","Untrustworthy,Trustworthy","","2168","","","","rating","","trustrating_stim/white_mw063.bmp","4","","","","","","","","","","","",""
"image-keyboard-response","104","160310","0.0-6.0-2.49","63f0fb9941434d10e8e4909b","bdp_trlrn","Sat Apr 08 2023 12:16:53 GMT-0400 (Eastern Daylight Time)","1210128","Untrustworthy,Trustworthy","","null","","","","ratingFB","","trustrating_stim/white_mw063.bmp","null","","","","","","","","","","","",""
"image-keyboard-response","105","162508","0.0-6.0-1.50","63f0fb9941434d10e8e4909b","bdp_trlrn","Sat Apr 08 2023 12:16:53 GMT-0400 (Eastern Daylight Time)","1210128","Untrustworthy,Trustworthy","","2096","","","","rating","","trustrating_stim/white_00602_940928_fb_edt.bmp","6","","","","","","","","","","","",""
"image-keyboard-response","106","162709","0.0-6.0-2.50","63f0fb9941434d10e8e4909b","bdp_trlrn","Sat Apr 08 2023 12:16:53 GMT-0400 (Eastern Daylight Time)","1210128","Untrustworthy,Trustworthy","","null","","","","ratingFB","","trustrating_stim/white_00602_940928_fb_edt.bmp","null","","","","","","","","","","","",""
"image-keyboard-response","107","166956","0.0-6.0-1.51","63f0fb9941434d10e8e4909b","bdp_trlrn","Sat Apr 08 2023 12:16:53 GMT-0400 (Eastern Daylight Time)","1210128","Untrustworthy,Trustworthy","","4146","","","","rating","","trustrating_stim/white_00577_940928_fa_edt.bmp","4","","","","","","","","","","","",""
"image-keyboard-response","108","167158","0.0-6.0-2.51","63f0fb9941434d10e8e4909b","bdp_trlrn","Sat Apr 08 2023 12:16:53 GMT-0400 (Eastern Daylight Time)","1210128","Untrustworthy,Trustworthy","","null","","","","ratingFB","","trustrating_stim/white_00577_940928_fa_edt.bmp","null","","","","","","","","","","","",""
"image-keyboard-response","109","168780","0.0-6.0-1.52","63f0fb9941434d10e8e4909b","bdp_trlrn","Sat Apr 08 2023 12:16:53 GMT-0400 (Eastern Daylight Time)","1210128","Untrustworthy,Trustworthy","","1520","","","","rating","","trustrating_stim/white_00129_931230_fb_edt.bmp","6","","","","","","","","","","","",""
"image-keyboard-response","110","168982","0.0-6.0-2.52","63f0fb9941434d10e8e4909b","bdp_trlrn","Sat Apr 08 2023 12:16:53 GMT-0400 (Eastern Daylight Time)","1210128","Untrustworthy,Trustworthy","","null","","","","ratingFB","","trustrating_stim/white_00129_931230_fb_edt.bmp","null","","","","","","","","","","","",""
"image-keyboard-response","111","170972","0.0-6.0-1.53","63f0fb9941434d10e8e4909b","bdp_trlrn","Sat Apr 08 2023 12:16:53 GMT-0400 (Eastern Daylight Time)","1210128","Untrustworthy,Trustworthy","","1889","","","","rating","","trustrating_stim/white_mw049.bmp","7","","","","","","","","","","","",""
"image-keyboard-response","112","171173","0.0-6.0-2.53","63f0fb9941434d10e8e4909b","bdp_trlrn","Sat Apr 08 2023 12:16:53 GMT-0400 (Eastern Daylight Time)","1210128","Untrustworthy,Trustworthy","","null","","","","ratingFB","","trustrating_stim/white_mw049.bmp","null","","","","","","","","","","","",""
"image-keyboard-response","113","174332","0.0-6.0-1.54","63f0fb9941434d10e8e4909b","bdp_trlrn","Sat Apr 08 2023 12:16:53 GMT-0400 (Eastern Daylight Time)","1210128","Untrustworthy,Trustworthy","","3057","","","","rating","","trustrating_stim/white_00340_940422_fa_edt.bmp","5","","","","","","","","","","","",""
"image-keyboard-response","114","174533","0.0-6.0-2.54","63f0fb9941434d10e8e4909b","bdp_trlrn","Sat Apr 08 2023 12:16:53 GMT-0400 (Eastern Daylight Time)","1210128","Untrustworthy,Trustworthy","","null","","","","ratingFB","","trustrating_stim/white_00340_940422_fa_edt.bmp","null","","","","","","","","","","","",""
"image-keyboard-response","115","175964","0.0-6.0-1.55","63f0fb9941434d10e8e4909b","bdp_trlrn","Sat Apr 08 2023 12:16:53 GMT-0400 (Eastern Daylight Time)","1210128","Untrustworthy,Trustworthy","","1329","","","","rating","","trustrating_stim/white_mw066.bmp","5","","","","","","","","","","","",""
"image-keyboard-response","116","176165","0.0-6.0-2.55","63f0fb9941434d10e8e4909b","bdp_trlrn","Sat Apr 08 2023 12:16:53 GMT-0400 (Eastern Daylight Time)","1210128","Untrustworthy,Trustworthy","","null","","","","ratingFB","","trustrating_stim/white_mw066.bmp","null","","","","","","","","","","","",""
"image-keyboard-response","117","178092","0.0-6.0-1.56","63f0fb9941434d10e8e4909b","bdp_trlrn","Sat Apr 08 2023 12:16:53 GMT-0400 (Eastern Daylight Time)","1210128","Untrustworthy,Trustworthy","","1824","","","","rating","","trustrating_stim/white_00519_940519_fb_edt.bmp","7","","","","","","","","","","","",""
"image-keyboard-response","118","178293","0.0-6.0-2.56","63f0fb9941434d10e8e4909b","bdp_trlrn","Sat Apr 08 2023 12:16:53 GMT-0400 (Eastern Daylight Time)","1210128","Untrustworthy,Trustworthy","","null","","","","ratingFB","","trustrating_stim/white_00519_940519_fb_edt.bmp","null","","","","","","","","","","","",""
"image-keyboard-response","119","180468","0.0-6.0-1.57","63f0fb9941434d10e8e4909b","bdp_trlrn","Sat Apr 08 2023 12:16:53 GMT-0400 (Eastern Daylight Time)","1210128","Untrustworthy,Trustworthy","","2073","","","","rating","","trustrating_stim/white_00898_960530_fa_edt.bmp","7","","","","","","","","","","","",""
"image-keyboard-response","120","180670","0.0-6.0-2.57","63f0fb9941434d10e8e4909b","bdp_trlrn","Sat Apr 08 2023 12:16:53 GMT-0400 (Eastern Daylight Time)","1210128","Untrustworthy,Trustworthy","","null","","","","ratingFB","","trustrating_stim/white_00898_960530_fa_edt.bmp","null","","","","","","","","","","","",""
"image-keyboard-response","121","183764","0.0-6.0-1.58","63f0fb9941434d10e8e4909b","bdp_trlrn","Sat Apr 08 2023 12:16:53 GMT-0400 (Eastern Daylight Time)","1210128","Untrustworthy,Trustworthy","","2993","","","","rating","","trustrating_stim/white_mw060.bmp","3","","","","","","","","","","","",""
"image-keyboard-response","122","183965","0.0-6.0-2.58","63f0fb9941434d10e8e4909b","bdp_trlrn","Sat Apr 08 2023 12:16:53 GMT-0400 (Eastern Daylight Time)","1210128","Untrustworthy,Trustworthy","","null","","","","ratingFB","","trustrating_stim/white_mw060.bmp","null","","","","","","","","","","","",""
"image-keyboard-response","123","187836","0.0-6.0-1.59","63f0fb9941434d10e8e4909b","bdp_trlrn","Sat Apr 08 2023 12:16:53 GMT-0400 (Eastern Daylight Time)","1210128","Untrustworthy,Trustworthy","","3769","","","","rating","","trustrating_stim/white_00761_941201_fb_edt.bmp","7","","","","","","","","","","","",""
"image-keyboard-response","124","188038","0.0-6.0-2.59","63f0fb9941434d10e8e4909b","bdp_trlrn","Sat Apr 08 2023 12:16:53 GMT-0400 (Eastern Daylight Time)","1210128","Untrustworthy,Trustworthy","","null","","","","ratingFB","","trustrating_stim/white_00761_941201_fb_edt.bmp","null","","","","","","","","","","","",""
"instructions","125","189548","0.0-7.0","63f0fb9941434d10e8e4909b","bdp_trlrn","Sat Apr 08 2023 12:16:53 GMT-0400 (Eastern Daylight Time)","1210128","Untrustworthy,Trustworthy","[{""page_index"":0,""viewing_time"":1409}]","1409","","","","","","","","","","","","","","","","","","",""
"instructions","126","389812","0.0-8.0","63f0fb9941434d10e8e4909b","bdp_trlrn","Sat Apr 08 2023 12:16:53 GMT-0400 (Eastern Daylight Time)","1210128","Untrustworthy,Trustworthy","[{""page_index"":0,""viewing_time"":89187},{""page_index"":1,""viewing_time"":16904},{""page_index"":2,""viewing_time"":41120},{""page_index"":3,""viewing_time"":15152},{""page_index"":4,""viewing_time"":3888},{""page_index"":5,""viewing_time"":7328},{""page_index"":6,""viewing_time"":22304},{""page_index"":7,""viewing_time"":4279}]","200163","","","","","","","","","","","","","","","","","","",""
"html-keyboard-response","127","393780","0.0-9.0","63f0fb9941434d10e8e4909b","bdp_trlrn","Sat Apr 08 2023 12:16:53 GMT-0400 (Eastern Daylight Time)","1210128","Untrustworthy,Trustworthy","","3967","","","","","","<div class='header' style='text-align:left; position: absolute; top: 5%; left: 5%;'><small>Task 3 of 5</small></div><div class='instruxDiv'><p><strong>1) What is the minimum number of points you can choose to send to your partner?</strong></p><p>a) 0</p><p>b) 1</p><p>c) 5</p>","C","","","","","","","","","","","",""
"html-keyboard-response","128","396636","0.0-10.0","63f0fb9941434d10e8e4909b","bdp_trlrn","Sat Apr 08 2023 12:16:53 GMT-0400 (Eastern Daylight Time)","1210128","Untrustworthy,Trustworthy","","2755","","","","","","<div class='header' style='text-align:left; position: absolute; top: 5%; left: 5%;'><small>Task 3 of 5</small></div><div class='instruxDiv'><p><strong>1) What is the minimum number of points you can choose to send to your partner?</strong></p><p>a) 1</p><p>b) 1</p><p style='color:#FF0000'>c) 5</p><h3 style='color:#FF0000'>Incorrect!</h3><h3 class='center-content'>The correct response is b).</h3><h3 class='center-content'>The minimum number of points you can choose to send to your partner is 1 point.</h3><p><em>Press SPACEBAR to continue</em></p></div>"," ","","","","","","","","","","","",""
"html-keyboard-response","129","419275","0.0-11.0","63f0fb9941434d10e8e4909b","bdp_trlrn","Sat Apr 08 2023 12:16:53 GMT-0400 (Eastern Daylight Time)","1210128","Untrustworthy,Trustworthy","","22539","","","","","","<div class='header' style='text-align:left; position: absolute; top: 5%; left: 5%;'><small>Task 3 of 5</small></div><div class='instruxDiv'><p><strong>2) What is the maximum number of points you can choose to send to your partner?</strong></p><p>a) 8</p><p>b) 5</p><p>c) 3</p>","B","","","","","","","","","","","",""
"html-keyboard-response","130","421395","0.0-12.0","63f0fb9941434d10e8e4909b","bdp_trlrn","Sat Apr 08 2023 12:16:53 GMT-0400 (Eastern Daylight Time)","1210128","Untrustworthy,Trustworthy","","2015","","","","","","<div class='header' style='text-align:left; position: absolute; top: 5%; left: 5%;'><small>Task 3 of 5</small></div><div class='instruxDiv'><p><strong>2) What is the maximum number of points you can choose to send to your partner?</strong></p><p>a) 8</p><p style='color:#00FF00'>b) 5</p><p>c) 3</p><h3 style='color:#00FF00'>Correct!</h3><h3 class='center-content'>The correct response is b).</h3><h3 class='center-content'>The maximum number of points you can choose to send to your partner is 5 points.</h3><p><em>Press SPACEBAR to continue</em></p></div>"," ","","","","","","","","","","","",""
"html-keyboard-response","131","425635","0.0-13.0","63f0fb9941434d10e8e4909b","bdp_trlrn","Sat Apr 08 2023 12:16:53 GMT-0400 (Eastern Daylight Time)","1210128","Untrustworthy,Trustworthy","","4134","","","","","","<div class='header' style='text-align:left; position: absolute; top: 5%; left: 5%;'><small>Task 3 of 5</small></div><div class='instruxDiv'><p><strong>3) What happens to the amount of points you send to your partner?</strong></p><p>a) Nothing</p><p>b) It doubles</p><p>c) It quadruples</p>","C","","","","","","","","","","","",""
"html-keyboard-response","132","426803","0.0-14.0","63f0fb9941434d10e8e4909b","bdp_trlrn","Sat Apr 08 2023 12:16:53 GMT-0400 (Eastern Daylight Time)","1210128","Untrustworthy,Trustworthy","","1067","","","","","","<div class='header' style='text-align:left; position: absolute; top: 5%; left: 5%;'><small>Task 3 of 5</small></div><div class='instruxDiv'><p><strong>3) What happens to the amount of points you send to your partner?</strong></p><p>a) Nothing</p><p>b) It doubles</p><p style='color:#00FF00'>c) It quadruples</p><h3 style='color:#00FF00'>Correct!</h3><h3 class='center-content'>The correct response is c).</h3><h3 class='center-content'>The amount of points you send to your partner quadruples.</h3><p><em>Press SPACEBAR to continue</em></p></div>"," ","","","","","","","","","","","",""
"html-keyboard-response","133","447411","0.0-15.0","63f0fb9941434d10e8e4909b","bdp_trlrn","Sat Apr 08 2023 12:16:53 GMT-0400 (Eastern Daylight Time)","1210128","Untrustworthy,Trustworthy","","20507","","","","","","<div class='header' style='text-align:left; position: absolute; top: 5%; left: 5%;'><small>Task 3 of 5</small></div><div class='instruxDiv'><p><strong>4) If you decided to share 4 out of 5 points with your partner, and they decided to share half of the amount they received with you, how many points would you receive back from them on this round?</strong></p><p>a) 16</p><p>b) 0</p><p>c) 8</p>","C","","","","","","","","","","","",""
"html-keyboard-response","134","449227","0.0-16.0","63f0fb9941434d10e8e4909b","bdp_trlrn","Sat Apr 08 2023 12:16:53 GMT-0400 (Eastern Daylight Time)","1210128","Untrustworthy,Trustworthy","","1714","","","","","","<div class='header' style='text-align:left; position: absolute; top: 5%; left: 5%;'><small>Task 3 of 5</small></div><div class='instruxDiv'><p><strong>4) If you decided to share 4 out of 5 points with your partner, and they decided to share half of the amount they received with you, how many points would you receive back from them on this round?</strong></p><p>a) 16</p><p>b) 0</p><p style='color:#00FF00'>c) 8</p><h3 style='color:#00FF00'>Correct!</h3><h3 class='center-content'>The correct response is c).</h3><h3 class='center-content'>If you shared 4 out of 5 points with your partner and they decided to share half of the amount they received with you, you would receive 8 points back (i.e. (4 x 4)/2 = 8).</h3><p><em>Press SPACEBAR to continue</em></p></div>"," ","","","","","","","","","","","",""
"html-keyboard-response","135","454329","0.0-17.0","63f0fb9941434d10e8e4909b","bdp_trlrn","Sat Apr 08 2023 12:16:53 GMT-0400 (Eastern Daylight Time)","1210128","Untrustworthy,Trustworthy","","null","","","","","","<div class='header' style='text-align:left; position: absolute; top: 5%; left: 5%;'><small>Task 3 of 5</small></div><div class='instruxDiv'><p>Thank you for completing the quiz<p>These are the actual partners you will be interacting with in the next block:<p><div class='tc' align='center'><img class='introPic' src='trustrating_stim/white_00757_941201_fa_edt.bmp'><br><strong>Matthew</strong></div><div class='bl' align='center'><img class='introPic' src='trustrating_stim/white_mw066.bmp'><br><strong>Nathan</strong></div><div class='br' align='center'><img class='introPic' src='trustrating_stim/white_00761_941201_fb_edt.bmp'><br><strong>Chris</strong></div></div><p>Across <strong>66 rounds</strong> you will interact with each partner <strong>22 times</strong> (in random order).<p style='align:center; color:white'><font <em>Press SPACEBAR to continue</em></p>","null","","","","","","","","","","","",""
"","","","","63f0fb9941434d10e8e4909b","bdp_trlrn","Sat Apr 08 2023 12:16:53 GMT-0400 (Eastern Daylight Time)","1210128","Untrustworthy,Trustworthy","","","blur","136","472931","blurevent","","","","1","","","","","","","","","","",""
"","","","","63f0fb9941434d10e8e4909b","bdp_trlrn","Sat Apr 08 2023 12:16:53 GMT-0400 (Eastern Daylight Time)","1210128","Untrustworthy,Trustworthy","","","focus","136","476650","focusevent","","","","","","","","","","","","","","",""
"instructions","136","486067","0.0-18.0","63f0fb9941434d10e8e4909b","bdp_trlrn","Sat Apr 08 2023 12:16:53 GMT-0400 (Eastern Daylight Time)","1210128","Untrustworthy,Trustworthy","[{""page_index"":0,""viewing_time"":29514},{""page_index"":1,""viewing_time"":2224}]","31738","","","","","","","","","","","","","","","","","","",""
"html-keyboard-response","137","493603","0.0-19.0-1.0","63f0fb9941434d10e8e4909b","bdp_trlrn","Sat Apr 08 2023 12:16:53 GMT-0400 (Eastern Daylight Time)","1210128","Untrustworthy,Trustworthy","","7434","","","","decision","","<div class='trialDiv'><img src='trustrating_stim/white_mw066.bmp'><br><font class='baseline'><strong>Nathan</strong><p>Choose number of points to send.</font><div class='respPicDiv'><img src='img/responseButtonOffersNo0L.png' class='respPic'></div></div>","5","","1","Nathan","6","Kept","0.65,0.35","13","0.65","trustrating_stim/white_mw066.bmp","5","5","1"
"html-keyboard-response","138","493855","0.0-19.0-2.0","63f0fb9941434d10e8e4909b","bdp_trlrn","Sat Apr 08 2023 12:16:53 GMT-0400 (Eastern Daylight Time)","1210128","Untrustworthy,Trustworthy","","null","","","","decisionFB","","<div class='trialDiv'><img src='trustrating_stim/white_mw066.bmp'><br><font class='baseline'><strong>Nathan</strong><p>Choose number of points to send.</font><div class='respPicDiv'><img src='img/responseButtonOffersNo0L5.png' class='respPic'></div></div>","null","","1","Nathan","6","Kept","0.65,0.35","13","0.65","trustrating_stim/white_mw066.bmp","5","0","1"
"html-keyboard-response","139","494860","0.0-19.0-3.0","63f0fb9941434d10e8e4909b","bdp_trlrn","Sat Apr 08 2023 12:16:53 GMT-0400 (Eastern Daylight Time)","1210128","Untrustworthy,Trustworthy","","null","","","","feedback","","<div class='trialDiv'><img src='trustrating_stim/white_mw066.bmp'><br><font class='baseline'><strong>Nathan</strong><p>Received: <strong>20</strong></font> &nbsp; &nbsp; &nbsp; &nbsp; &nbsp; &nbsp;<font class='negOutcome'>Shared back: <strong>0</strong></font></font><div class='respPicDiv'><img src='img/responseButtonOffersNo0_wht.png' class='respPic'></div></div>","null","","1","Nathan","6","Kept","0.65,0.35","13","0.65","trustrating_stim/white_mw066.bmp","5","0","1"
"html-keyboard-response","140","504203","0.0-19.0-1.1","63f0fb9941434d10e8e4909b","bdp_trlrn","Sat Apr 08 2023 12:16:53 GMT-0400 (Eastern Daylight Time)","1210128","Untrustworthy,Trustworthy","","9342","","","","decision","","<div class='trialDiv'><img src='trustrating_stim/white_00761_941201_fb_edt.bmp'><br><font class='baseline'><strong>Chris</strong><p>Choose number of points to send.</font><div class='respPicDiv'><img src='img/responseButtonOffersNo0L.png' class='respPic'></div></div>","5","","1","Chris","8","Kept","0.35,0.8","9","0.35","trustrating_stim/white_00761_941201_fb_edt.bmp","7","5","2"
"html-keyboard-response","141","504454","0.0-19.0-2.1","63f0fb9941434d10e8e4909b","bdp_trlrn","Sat Apr 08 2023 12:16:53 GMT-0400 (Eastern Daylight Time)","1210128","Untrustworthy,Trustworthy","","null","","","","decisionFB","","<div class='trialDiv'><img src='trustrating_stim/white_00761_941201_fb_edt.bmp'><br><font class='baseline'><strong>Chris</strong><p>Choose number of points to send.</font><div class='respPicDiv'><img src='img/responseButtonOffersNo0L5.png' class='respPic'></div></div>","null","","1","Chris","8","Kept","0.35,0.8","9","0.35","trustrating_stim/white_00761_941201_fb_edt.bmp","7","0","2"
"html-keyboard-response","142","505456","0.0-19.0-3.1","63f0fb9941434d10e8e4909b","bdp_trlrn","Sat Apr 08 2023 12:16:53 GMT-0400 (Eastern Daylight Time)","1210128","Untrustworthy,Trustworthy","","null","","","","feedback","","<div class='trialDiv'><img src='trustrating_stim/white_00761_941201_fb_edt.bmp'><br><font class='baseline'><strong>Chris</strong><p>Received: <strong>20</strong></font> &nbsp; &nbsp; &nbsp; &nbsp; &nbsp; &nbsp;<font class='negOutcome'>Shared back: <strong>0</strong></font></font><div class='respPicDiv'><img src='img/responseButtonOffersNo0_wht.png' class='respPic'></div></div>","null","","1","Chris","8","Kept","0.35,0.8","9","0.35","trustrating_stim/white_00761_941201_fb_edt.bmp","7","0","2"
"html-keyboard-response","143","509475","0.0-19.0-1.2","63f0fb9941434d10e8e4909b","bdp_trlrn","Sat Apr 08 2023 12:16:53 GMT-0400 (Eastern Daylight Time)","1210128","Untrustworthy,Trustworthy","","4018","","","","decision","","<div class='trialDiv'><img src='trustrating_stim/white_00757_941201_fa_edt.bmp'><br><font class='baseline'><strong>Matthew</strong><p>Choose number of points to send.</font><div class='respPicDiv'><img src='img/responseButtonOffersNo0L.png' class='respPic'></div></div>","2","","1","Matthew","1","Shared","0.65,0.2","13","0.65","trustrating_stim/white_00757_941201_fa_edt.bmp","3","5","3"
"html-keyboard-response","144","509726","0.0-19.0-2.2","63f0fb9941434d10e8e4909b","bdp_trlrn","Sat Apr 08 2023 12:16:53 GMT-0400 (Eastern Daylight Time)","1210128","Untrustworthy,Trustworthy","","null","","","","decisionFB","","<div class='trialDiv'><img src='trustrating_stim/white_00757_941201_fa_edt.bmp'><br><font class='baseline'><strong>Matthew</strong><p>Choose number of points to send.</font><div class='respPicDiv'><img src='img/responseButtonOffersNo0L2.png' class='respPic'></div></div>","null","","1","Matthew","1","Shared","0.65,0.2","13","0.65","trustrating_stim/white_00757_941201_fa_edt.bmp","3","3","3"
"html-keyboard-response","145","510729","0.0-19.0-3.2","63f0fb9941434d10e8e4909b","bdp_trlrn","Sat Apr 08 2023 12:16:53 GMT-0400 (Eastern Daylight Time)","1210128","Untrustworthy,Trustworthy","","null","","","","feedback","","<div class='trialDiv'><img src='trustrating_stim/white_00757_941201_fa_edt.bmp'><br><font class='baseline'><strong>Matthew</strong><p>Received: <strong>8</strong></font> &nbsp; &nbsp; &nbsp; &nbsp; &nbsp; &nbsp;<font class='posOutcome'>Shared back: <strong>4</strong></font></font><div class='respPicDiv'><img src='img/responseButtonOffersNo0_wht.png' class='respPic'></div></div>","null","","1","Matthew","1","Shared","0.65,0.2","13","0.65","trustrating_stim/white_00757_941201_fa_edt.bmp","3","7","3"
"html-keyboard-response","146","522475","0.0-19.0-1.3","63f0fb9941434d10e8e4909b","bdp_trlrn","Sat Apr 08 2023 12:16:53 GMT-0400 (Eastern Daylight Time)","1210128","Untrustworthy,Trustworthy","","11745","","","","decision","","<div class='trialDiv'><img src='trustrating_stim/white_00761_941201_fb_edt.bmp'><br><font class='baseline'><strong>Chris</strong><p>Choose number of points to send.</font><div class='respPicDiv'><img src='img/responseButtonOffersNo0L.png' class='respPic'></div></div>","2","","2","Chris","8","Kept","0.35,0.8","9","0.35","trustrating_stim/white_00761_941201_fb_edt.bmp","7","12","4"
"html-keyboard-response","147","522727","0.0-19.0-2.3","63f0fb9941434d10e8e4909b","bdp_trlrn","Sat Apr 08 2023 12:16:53 GMT-0400 (Eastern Daylight Time)","1210128","Untrustworthy,Trustworthy","","null","","","","decisionFB","","<div class='trialDiv'><img src='trustrating_stim/white_00761_941201_fb_edt.bmp'><br><font class='baseline'><strong>Chris</strong><p>Choose number of points to send.</font><div class='respPicDiv'><img src='img/responseButtonOffersNo0L2.png' class='respPic'></div></div>","null","","2","Chris","8","Kept","0.35,0.8","9","0.35","trustrating_stim/white_00761_941201_fb_edt.bmp","7","10","4"
"html-keyboard-response","148","523729","0.0-19.0-3.3","63f0fb9941434d10e8e4909b","bdp_trlrn","Sat Apr 08 2023 12:16:53 GMT-0400 (Eastern Daylight Time)","1210128","Untrustworthy,Trustworthy","","null","","","","feedback","","<div class='trialDiv'><img src='trustrating_stim/white_00761_941201_fb_edt.bmp'><br><font class='baseline'><strong>Chris</strong><p>Received: <strong>8</strong></font> &nbsp; &nbsp; &nbsp; &nbsp; &nbsp; &nbsp;<font class='negOutcome'>Shared back: <strong>0</strong></font></font><div class='respPicDiv'><img src='img/responseButtonOffersNo0_wht.png' class='respPic'></div></div>","null","","2","Chris","8","Kept","0.35,0.8","9","0.35","trustrating_stim/white_00761_941201_fb_edt.bmp","7","10","4"
"html-keyboard-response","149","526379","0.0-19.0-1.4","63f0fb9941434d10e8e4909b","bdp_trlrn","Sat Apr 08 2023 12:16:53 GMT-0400 (Eastern Daylight Time)","1210128","Untrustworthy,Trustworthy","","2650","","","","decision","","<div class='trialDiv'><img src='trustrating_stim/white_mw066.bmp'><br><font class='baseline'><strong>Nathan</strong><p>Choose number of points to send.</font><div class='respPicDiv'><img src='img/responseButtonOffersNo0L.png' class='respPic'></div></div>","1","","2","Nathan","6","Shared","0.65,0.35","13","0.65","trustrating_stim/white_mw066.bmp","5","15","5"
"html-keyboard-response","150","526631","0.0-19.0-2.4","63f0fb9941434d10e8e4909b","bdp_trlrn","Sat Apr 08 2023 12:16:53 GMT-0400 (Eastern Daylight Time)","1210128","Untrustworthy,Trustworthy","","null","","","","decisionFB","","<div class='trialDiv'><img src='trustrating_stim/white_mw066.bmp'><br><font class='baseline'><strong>Nathan</strong><p>Choose number of points to send.</font><div class='respPicDiv'><img src='img/responseButtonOffersNo0L1.png' class='respPic'></div></div>","null","","2","Nathan","6","Shared","0.65,0.35","13","0.65","trustrating_stim/white_mw066.bmp","5","14","5"
"html-keyboard-response","151","527633","0.0-19.0-3.4","63f0fb9941434d10e8e4909b","bdp_trlrn","Sat Apr 08 2023 12:16:53 GMT-0400 (Eastern Daylight Time)","1210128","Untrustworthy,Trustworthy","","null","","","","feedback","","<div class='trialDiv'><img src='trustrating_stim/white_mw066.bmp'><br><font class='baseline'><strong>Nathan</strong><p>Received: <strong>4</strong></font> &nbsp; &nbsp; &nbsp; &nbsp; &nbsp; &nbsp;<font class='posOutcome'>Shared back: <strong>2</strong></font></font><div class='respPicDiv'><img src='img/responseButtonOffersNo0_wht.png' class='respPic'></div></div>","null","","2","Nathan","6","Shared","0.65,0.35","13","0.65","trustrating_stim/white_mw066.bmp","5","16","5"
"html-keyboard-response","152","533971","0.0-19.0-1.5","63f0fb9941434d10e8e4909b","bdp_trlrn","Sat Apr 08 2023 12:16:53 GMT-0400 (Eastern Daylight Time)","1210128","Untrustworthy,Trustworthy","","6337","","","","decision","","<div class='trialDiv'><img src='trustrating_stim/white_00757_941201_fa_edt.bmp'><br><font class='baseline'><strong>Matthew</strong><p>Choose number of points to send.</font><div class='respPicDiv'><img src='img/responseButtonOffersNo0L.png' class='respPic'></div></div>","5","","2","Matthew","1","Kept","0.65,0.2","13","0.65","trustrating_stim/white_00757_941201_fa_edt.bmp","3","21","6"
"html-keyboard-response","153","534223","0.0-19.0-2.5","63f0fb9941434d10e8e4909b","bdp_trlrn","Sat Apr 08 2023 12:16:53 GMT-0400 (Eastern Daylight Time)","1210128","Untrustworthy,Trustworthy","","null","","","","decisionFB","","<div class='trialDiv'><img src='trustrating_stim/white_00757_941201_fa_edt.bmp'><br><font class='baseline'><strong>Matthew</strong><p>Choose number of points to send.</font><div class='respPicDiv'><img src='img/responseButtonOffersNo0L5.png' class='respPic'></div></div>","null","","2","Matthew","1","Kept","0.65,0.2","13","0.65","trustrating_stim/white_00757_941201_fa_edt.bmp","3","16","6"
"html-keyboard-response","154","535226","0.0-19.0-3.5","63f0fb9941434d10e8e4909b","bdp_trlrn","Sat Apr 08 2023 12:16:53 GMT-0400 (Eastern Daylight Time)","1210128","Untrustworthy,Trustworthy","","null","","","","feedback","","<div class='trialDiv'><img src='trustrating_stim/white_00757_941201_fa_edt.bmp'><br><font class='baseline'><strong>Matthew</strong><p>Received: <strong>20</strong></font> &nbsp; &nbsp; &nbsp; &nbsp; &nbsp; &nbsp;<font class='negOutcome'>Shared back: <strong>0</strong></font></font><div class='respPicDiv'><img src='img/responseButtonOffersNo0_wht.png' class='respPic'></div></div>","null","","2","Matthew","1","Kept","0.65,0.2","13","0.65","trustrating_stim/white_00757_941201_fa_edt.bmp","3","16","6"
"html-keyboard-response","155","540891","0.0-19.0-1.6","63f0fb9941434d10e8e4909b","bdp_trlrn","Sat Apr 08 2023 12:16:53 GMT-0400 (Eastern Daylight Time)","1210128","Untrustworthy,Trustworthy","","5665","","","","decision","","<div class='trialDiv'><img src='trustrating_stim/white_mw066.bmp'><br><font class='baseline'><strong>Nathan</strong><p>Choose number of points to send.</font><div class='respPicDiv'><img src='img/responseButtonOffersNo0L.png' class='respPic'></div></div>","3","","3","Nathan","6","Shared","0.65,0.35","13","0.65","trustrating_stim/white_mw066.bmp","5","21","7"
"html-keyboard-response","156","541143","0.0-19.0-2.6","63f0fb9941434d10e8e4909b","bdp_trlrn","Sat Apr 08 2023 12:16:53 GMT-0400 (Eastern Daylight Time)","1210128","Untrustworthy,Trustworthy","","null","","","","decisionFB","","<div class='trialDiv'><img src='trustrating_stim/white_mw066.bmp'><br><font class='baseline'><strong>Nathan</strong><p>Choose number of points to send.</font><div class='respPicDiv'><img src='img/responseButtonOffersNo0L3.png' class='respPic'></div></div>","null","","3","Nathan","6","Shared","0.65,0.35","13","0.65","trustrating_stim/white_mw066.bmp","5","18","7"
"html-keyboard-response","157","542145","0.0-19.0-3.6","63f0fb9941434d10e8e4909b","bdp_trlrn","Sat Apr 08 2023 12:16:53 GMT-0400 (Eastern Daylight Time)","1210128","Untrustworthy,Trustworthy","","null","","","","feedback","","<div class='trialDiv'><img src='trustrating_stim/white_mw066.bmp'><br><font class='baseline'><strong>Nathan</strong><p>Received: <strong>12</strong></font> &nbsp; &nbsp; &nbsp; &nbsp; &nbsp; &nbsp;<font class='posOutcome'>Shared back: <strong>6</strong></font></font><div class='respPicDiv'><img src='img/responseButtonOffersNo0_wht.png' class='respPic'></div></div>","null","","3","Nathan","6","Shared","0.65,0.35","13","0.65","trustrating_stim/white_mw066.bmp","5","24","7"
"html-keyboard-response","158","544099","0.0-19.0-1.7","63f0fb9941434d10e8e4909b","bdp_trlrn","Sat Apr 08 2023 12:16:53 GMT-0400 (Eastern Daylight Time)","1210128","Untrustworthy,Trustworthy","","1953","","","","decision","","<div class='trialDiv'><img src='trustrating_stim/white_00761_941201_fb_edt.bmp'><br><font class='baseline'><strong>Chris</strong><p>Choose number of points to send.</font><div class='respPicDiv'><img src='img/responseButtonOffersNo0L.png' class='respPic'></div></div>","3","","3","Chris","8","Kept","0.35,0.8","9","0.35","trustrating_stim/white_00761_941201_fb_edt.bmp","7","29","8"
"html-keyboard-response","159","544350","0.0-19.0-2.7","63f0fb9941434d10e8e4909b","bdp_trlrn","Sat Apr 08 2023 12:16:53 GMT-0400 (Eastern Daylight Time)","1210128","Untrustworthy,Trustworthy","","null","","","","decisionFB","","<div class='trialDiv'><img src='trustrating_stim/white_00761_941201_fb_edt.bmp'><br><font class='baseline'><strong>Chris</strong><p>Choose number of points to send.</font><div class='respPicDiv'><img src='img/responseButtonOffersNo0L3.png' class='respPic'></div></div>","null","","3","Chris","8","Kept","0.35,0.8","9","0.35","trustrating_stim/white_00761_941201_fb_edt.bmp","7","26","8"
"html-keyboard-response","160","545352","0.0-19.0-3.7","63f0fb9941434d10e8e4909b","bdp_trlrn","Sat Apr 08 2023 12:16:53 GMT-0400 (Eastern Daylight Time)","1210128","Untrustworthy,Trustworthy","","null","","","","feedback","","<div class='trialDiv'><img src='trustrating_stim/white_00761_941201_fb_edt.bmp'><br><font class='baseline'><strong>Chris</strong><p>Received: <strong>12</strong></font> &nbsp; &nbsp; &nbsp; &nbsp; &nbsp; &nbsp;<font class='negOutcome'>Shared back: <strong>0</strong></font></font><div class='respPicDiv'><img src='img/responseButtonOffersNo0_wht.png' class='respPic'></div></div>","null","","3","Chris","8","Kept","0.35,0.8","9","0.35","trustrating_stim/white_00761_941201_fb_edt.bmp","7","26","8"
"html-keyboard-response","161","550194","0.0-19.0-1.8","63f0fb9941434d10e8e4909b","bdp_trlrn","Sat Apr 08 2023 12:16:53 GMT-0400 (Eastern Daylight Time)","1210128","Untrustworthy,Trustworthy","","4841","","","","decision","","<div class='trialDiv'><img src='trustrating_stim/white_00757_941201_fa_edt.bmp'><br><font class='baseline'><strong>Matthew</strong><p>Choose number of points to send.</font><div class='respPicDiv'><img src='img/responseButtonOffersNo0L.png' class='respPic'></div></div>","3","","3","Matthew","1","Kept","0.65,0.2","13","0.65","trustrating_stim/white_00757_941201_fa_edt.bmp","3","31","9"
"html-keyboard-response","162","550446","0.0-19.0-2.8","63f0fb9941434d10e8e4909b","bdp_trlrn","Sat Apr 08 2023 12:16:53 GMT-0400 (Eastern Daylight Time)","1210128","Untrustworthy,Trustworthy","","null","","","","decisionFB","","<div class='trialDiv'><img src='trustrating_stim/white_00757_941201_fa_edt.bmp'><br><font class='baseline'><strong>Matthew</strong><p>Choose number of points to send.</font><div class='respPicDiv'><img src='img/responseButtonOffersNo0L3.png' class='respPic'></div></div>","null","","3","Matthew","1","Kept","0.65,0.2","13","0.65","trustrating_stim/white_00757_941201_fa_edt.bmp","3","28","9"
"html-keyboard-response","163","551449","0.0-19.0-3.8","63f0fb9941434d10e8e4909b","bdp_trlrn","Sat Apr 08 2023 12:16:53 GMT-0400 (Eastern Daylight Time)","1210128","Untrustworthy,Trustworthy","","null","","","","feedback","","<div class='trialDiv'><img src='trustrating_stim/white_00757_941201_fa_edt.bmp'><br><font class='baseline'><strong>Matthew</strong><p>Received: <strong>12</strong></font> &nbsp; &nbsp; &nbsp; &nbsp; &nbsp; &nbsp;<font class='negOutcome'>Shared back: <strong>0</strong></font></font><div class='respPicDiv'><img src='img/responseButtonOffersNo0_wht.png' class='respPic'></div></div>","null","","3","Matthew","1","Kept","0.65,0.2","13","0.65","trustrating_stim/white_00757_941201_fa_edt.bmp","3","28","9"
"html-keyboard-response","164","553266","0.0-19.0-1.9","63f0fb9941434d10e8e4909b","bdp_trlrn","Sat Apr 08 2023 12:16:53 GMT-0400 (Eastern Daylight Time)","1210128","Untrustworthy,Trustworthy","","1817","","","","decision","","<div class='trialDiv'><img src='trustrating_stim/white_00761_941201_fb_edt.bmp'><br><font class='baseline'><strong>Chris</strong><p>Choose number of points to send.</font><div class='respPicDiv'><img src='img/responseButtonOffersNo0L.png' class='respPic'></div></div>","1","","4","Chris","8","Kept","0.35,0.8","9","0.35","trustrating_stim/white_00761_941201_fb_edt.bmp","7","33","10"
"html-keyboard-response","165","553518","0.0-19.0-2.9","63f0fb9941434d10e8e4909b","bdp_trlrn","Sat Apr 08 2023 12:16:53 GMT-0400 (Eastern Daylight Time)","1210128","Untrustworthy,Trustworthy","","null","","","","decisionFB","","<div class='trialDiv'><img src='trustrating_stim/white_00761_941201_fb_edt.bmp'><br><font class='baseline'><strong>Chris</strong><p>Choose number of points to send.</font><div class='respPicDiv'><img src='img/responseButtonOffersNo0L1.png' class='respPic'></div></div>","null","","4","Chris","8","Kept","0.35,0.8","9","0.35","trustrating_stim/white_00761_941201_fb_edt.bmp","7","32","10"
"html-keyboard-response","166","554521","0.0-19.0-3.9","63f0fb9941434d10e8e4909b","bdp_trlrn","Sat Apr 08 2023 12:16:53 GMT-0400 (Eastern Daylight Time)","1210128","Untrustworthy,Trustworthy","","null","","","","feedback","","<div class='trialDiv'><img src='trustrating_stim/white_00761_941201_fb_edt.bmp'><br><font class='baseline'><strong>Chris</strong><p>Received: <strong>4</strong></font> &nbsp; &nbsp; &nbsp; &nbsp; &nbsp; &nbsp;<font class='negOutcome'>Shared back: <strong>0</strong></font></font><div class='respPicDiv'><img src='img/responseButtonOffersNo0_wht.png' class='respPic'></div></div>","null","","4","Chris","8","Kept","0.35,0.8","9","0.35","trustrating_stim/white_00761_941201_fb_edt.bmp","7","32","10"
"html-keyboard-response","167","559123","0.0-19.0-1.10","63f0fb9941434d10e8e4909b","bdp_trlrn","Sat Apr 08 2023 12:16:53 GMT-0400 (Eastern Daylight Time)","1210128","Untrustworthy,Trustworthy","","4601","","","","decision","","<div class='trialDiv'><img src='trustrating_stim/white_mw066.bmp'><br><font class='baseline'><strong>Nathan</strong><p>Choose number of points to send.</font><div class='respPicDiv'><img src='img/responseButtonOffersNo0L.png' class='respPic'></div></div>","4","","4","Nathan","6","Shared","0.65,0.35","13","0.65","trustrating_stim/white_mw066.bmp","5","37","11"
"html-keyboard-response","168","559374","0.0-19.0-2.10","63f0fb9941434d10e8e4909b","bdp_trlrn","Sat Apr 08 2023 12:16:53 GMT-0400 (Eastern Daylight Time)","1210128","Untrustworthy,Trustworthy","","null","","","","decisionFB","","<div class='trialDiv'><img src='trustrating_stim/white_mw066.bmp'><br><font class='baseline'><strong>Nathan</strong><p>Choose number of points to send.</font><div class='respPicDiv'><img src='img/responseButtonOffersNo0L4.png' class='respPic'></div></div>","null","","4","Nathan","6","Shared","0.65,0.35","13","0.65","trustrating_stim/white_mw066.bmp","5","33","11"
"html-keyboard-response","169","560375","0.0-19.0-3.10","63f0fb9941434d10e8e4909b","bdp_trlrn","Sat Apr 08 2023 12:16:53 GMT-0400 (Eastern Daylight Time)","1210128","Untrustworthy,Trustworthy","","null","","","","feedback","","<div class='trialDiv'><img src='trustrating_stim/white_mw066.bmp'><br><font class='baseline'><strong>Nathan</strong><p>Received: <strong>16</strong></font> &nbsp; &nbsp; &nbsp; &nbsp; &nbsp; &nbsp;<font class='posOutcome'>Shared back: <strong>8</strong></font></font><div class='respPicDiv'><img src='img/responseButtonOffersNo0_wht.png' class='respPic'></div></div>","null","","4","Nathan","6","Shared","0.65,0.35","13","0.65","trustrating_stim/white_mw066.bmp","5","41","11"
"html-keyboard-response","170","563698","0.0-19.0-1.11","63f0fb9941434d10e8e4909b","bdp_trlrn","Sat Apr 08 2023 12:16:53 GMT-0400 (Eastern Daylight Time)","1210128","Untrustworthy,Trustworthy","","3323","","","","decision","","<div class='trialDiv'><img src='trustrating_stim/white_00757_941201_fa_edt.bmp'><br><font class='baseline'><strong>Matthew</strong><p>Choose number of points to send.</font><div class='respPicDiv'><img src='img/responseButtonOffersNo0L.png' class='respPic'></div></div>","3","","4","Matthew","1","Kept","0.65,0.2","13","0.65","trustrating_stim/white_00757_941201_fa_edt.bmp","3","46","12"
"html-keyboard-response","171","563950","0.0-19.0-2.11","63f0fb9941434d10e8e4909b","bdp_trlrn","Sat Apr 08 2023 12:16:53 GMT-0400 (Eastern Daylight Time)","1210128","Untrustworthy,Trustworthy","","null","","","","decisionFB","","<div class='trialDiv'><img src='trustrating_stim/white_00757_941201_fa_edt.bmp'><br><font class='baseline'><strong>Matthew</strong><p>Choose number of points to send.</font><div class='respPicDiv'><img src='img/responseButtonOffersNo0L3.png' class='respPic'></div></div>","null","","4","Matthew","1","Kept","0.65,0.2","13","0.65","trustrating_stim/white_00757_941201_fa_edt.bmp","3","43","12"
"html-keyboard-response","172","564951","0.0-19.0-3.11","63f0fb9941434d10e8e4909b","bdp_trlrn","Sat Apr 08 2023 12:16:53 GMT-0400 (Eastern Daylight Time)","1210128","Untrustworthy,Trustworthy","","null","","","","feedback","","<div class='trialDiv'><img src='trustrating_stim/white_00757_941201_fa_edt.bmp'><br><font class='baseline'><strong>Matthew</strong><p>Received: <strong>12</strong></font> &nbsp; &nbsp; &nbsp; &nbsp; &nbsp; &nbsp;<font class='negOutcome'>Shared back: <strong>0</strong></font></font><div class='respPicDiv'><img src='img/responseButtonOffersNo0_wht.png' class='respPic'></div></div>","null","","4","Matthew","1","Kept","0.65,0.2","13","0.65","trustrating_stim/white_00757_941201_fa_edt.bmp","3","43","12"
"html-keyboard-response","173","566218","0.0-19.0-1.12","63f0fb9941434d10e8e4909b","bdp_trlrn","Sat Apr 08 2023 12:16:53 GMT-0400 (Eastern Daylight Time)","1210128","Untrustworthy,Trustworthy","","1266","","","","decision","","<div class='trialDiv'><img src='trustrating_stim/white_00761_941201_fb_edt.bmp'><br><font class='baseline'><strong>Chris</strong><p>Choose number of points to send.</font><div class='respPicDiv'><img src='img/responseButtonOffersNo0L.png' class='respPic'></div></div>","1","","5","Chris","8","Kept","0.35,0.8","9","0.35","trustrating_stim/white_00761_941201_fb_edt.bmp","7","48","13"
"html-keyboard-response","174","566470","0.0-19.0-2.12","63f0fb9941434d10e8e4909b","bdp_trlrn","Sat Apr 08 2023 12:16:53 GMT-0400 (Eastern Daylight Time)","1210128","Untrustworthy,Trustworthy","","null","","","","decisionFB","","<div class='trialDiv'><img src='trustrating_stim/white_00761_941201_fb_edt.bmp'><br><font class='baseline'><strong>Chris</strong><p>Choose number of points to send.</font><div class='respPicDiv'><img src='img/responseButtonOffersNo0L1.png' class='respPic'></div></div>","null","","5","Chris","8","Kept","0.35,0.8","9","0.35","trustrating_stim/white_00761_941201_fb_edt.bmp","7","47","13"
"html-keyboard-response","175","567472","0.0-19.0-3.12","63f0fb9941434d10e8e4909b","bdp_trlrn","Sat Apr 08 2023 12:16:53 GMT-0400 (Eastern Daylight Time)","1210128","Untrustworthy,Trustworthy","","null","","","","feedback","","<div class='trialDiv'><img src='trustrating_stim/white_00761_941201_fb_edt.bmp'><br><font class='baseline'><strong>Chris</strong><p>Received: <strong>4</strong></font> &nbsp; &nbsp; &nbsp; &nbsp; &nbsp; &nbsp;<font class='negOutcome'>Shared back: <strong>0</strong></font></font><div class='respPicDiv'><img src='img/responseButtonOffersNo0_wht.png' class='respPic'></div></div>","null","","5","Chris","8","Kept","0.35,0.8","9","0.35","trustrating_stim/white_00761_941201_fb_edt.bmp","7","47","13"
"html-keyboard-response","176","570339","0.0-19.0-1.13","63f0fb9941434d10e8e4909b","bdp_trlrn","Sat Apr 08 2023 12:16:53 GMT-0400 (Eastern Daylight Time)","1210128","Untrustworthy,Trustworthy","","2865","","","","decision","","<div class='trialDiv'><img src='trustrating_stim/white_00757_941201_fa_edt.bmp'><br><font class='baseline'><strong>Matthew</strong><p>Choose number of points to send.</font><div class='respPicDiv'><img src='img/responseButtonOffersNo0L.png' class='respPic'></div></div>","1","","5","Matthew","1","Shared","0.65,0.2","13","0.65","trustrating_stim/white_00757_941201_fa_edt.bmp","3","52","14"
"html-keyboard-response","177","570590","0.0-19.0-2.13","63f0fb9941434d10e8e4909b","bdp_trlrn","Sat Apr 08 2023 12:16:53 GMT-0400 (Eastern Daylight Time)","1210128","Untrustworthy,Trustworthy","","null","","","","decisionFB","","<div class='trialDiv'><img src='trustrating_stim/white_00757_941201_fa_edt.bmp'><br><font class='baseline'><strong>Matthew</strong><p>Choose number of points to send.</font><div class='respPicDiv'><img src='img/responseButtonOffersNo0L1.png' class='respPic'></div></div>","null","","5","Matthew","1","Shared","0.65,0.2","13","0.65","trustrating_stim/white_00757_941201_fa_edt.bmp","3","51","14"
"html-keyboard-response","178","571592","0.0-19.0-3.13","63f0fb9941434d10e8e4909b","bdp_trlrn","Sat Apr 08 2023 12:16:53 GMT-0400 (Eastern Daylight Time)","1210128","Untrustworthy,Trustworthy","","null","","","","feedback","","<div class='trialDiv'><img src='trustrating_stim/white_00757_941201_fa_edt.bmp'><br><font class='baseline'><strong>Matthew</strong><p>Received: <strong>4</strong></font> &nbsp; &nbsp; &nbsp; &nbsp; &nbsp; &nbsp;<font class='posOutcome'>Shared back: <strong>2</strong></font></font><div class='respPicDiv'><img src='img/responseButtonOffersNo0_wht.png' class='respPic'></div></div>","null","","5","Matthew","1","Shared","0.65,0.2","13","0.65","trustrating_stim/white_00757_941201_fa_edt.bmp","3","53","14"
"html-keyboard-response","179","576666","0.0-19.0-1.14","63f0fb9941434d10e8e4909b","bdp_trlrn","Sat Apr 08 2023 12:16:53 GMT-0400 (Eastern Daylight Time)","1210128","Untrustworthy,Trustworthy","","5073","","","","decision","","<div class='trialDiv'><img src='trustrating_stim/white_mw066.bmp'><br><font class='baseline'><strong>Nathan</strong><p>Choose number of points to send.</font><div class='respPicDiv'><img src='img/responseButtonOffersNo0L.png' class='respPic'></div></div>","4","","5","Nathan","6","Shared","0.65,0.35","13","0.65","trustrating_stim/white_mw066.bmp","5","58","15"
"html-keyboard-response","180","576917","0.0-19.0-2.14","63f0fb9941434d10e8e4909b","bdp_trlrn","Sat Apr 08 2023 12:16:53 GMT-0400 (Eastern Daylight Time)","1210128","Untrustworthy,Trustworthy","","null","","","","decisionFB","","<div class='trialDiv'><img src='trustrating_stim/white_mw066.bmp'><br><font class='baseline'><strong>Nathan</strong><p>Choose number of points to send.</font><div class='respPicDiv'><img src='img/responseButtonOffersNo0L4.png' class='respPic'></div></div>","null","","5","Nathan","6","Shared","0.65,0.35","13","0.65","trustrating_stim/white_mw066.bmp","5","54","15"
"html-keyboard-response","181","577919","0.0-19.0-3.14","63f0fb9941434d10e8e4909b","bdp_trlrn","Sat Apr 08 2023 12:16:53 GMT-0400 (Eastern Daylight Time)","1210128","Untrustworthy,Trustworthy","","null","","","","feedback","","<div class='trialDiv'><img src='trustrating_stim/white_mw066.bmp'><br><font class='baseline'><strong>Nathan</strong><p>Received: <strong>16</strong></font> &nbsp; &nbsp; &nbsp; &nbsp; &nbsp; &nbsp;<font class='posOutcome'>Shared back: <strong>8</strong></font></font><div class='respPicDiv'><img src='img/responseButtonOffersNo0_wht.png' class='respPic'></div></div>","null","","5","Nathan","6","Shared","0.65,0.35","13","0.65","trustrating_stim/white_mw066.bmp","5","62","15"
"html-keyboard-response","182","581699","0.0-19.0-1.15","63f0fb9941434d10e8e4909b","bdp_trlrn","Sat Apr 08 2023 12:16:53 GMT-0400 (Eastern Daylight Time)","1210128","Untrustworthy,Trustworthy","","3778","","","","decision","","<div class='trialDiv'><img src='trustrating_stim/white_00757_941201_fa_edt.bmp'><br><font class='baseline'><strong>Matthew</strong><p>Choose number of points to send.</font><div class='respPicDiv'><img src='img/responseButtonOffersNo0L.png' class='respPic'></div></div>","3","","6","Matthew","1","Shared","0.65,0.2","13","0.65","trustrating_stim/white_00757_941201_fa_edt.bmp","3","67","16"
"html-keyboard-response","183","581951","0.0-19.0-2.15","63f0fb9941434d10e8e4909b","bdp_trlrn","Sat Apr 08 2023 12:16:53 GMT-0400 (Eastern Daylight Time)","1210128","Untrustworthy,Trustworthy","","null","","","","decisionFB","","<div class='trialDiv'><img src='trustrating_stim/white_00757_941201_fa_edt.bmp'><br><font class='baseline'><strong>Matthew</strong><p>Choose number of points to send.</font><div class='respPicDiv'><img src='img/responseButtonOffersNo0L3.png' class='respPic'></div></div>","null","","6","Matthew","1","Shared","0.65,0.2","13","0.65","trustrating_stim/white_00757_941201_fa_edt.bmp","3","64","16"
"html-keyboard-response","184","582952","0.0-19.0-3.15","63f0fb9941434d10e8e4909b","bdp_trlrn","Sat Apr 08 2023 12:16:53 GMT-0400 (Eastern Daylight Time)","1210128","Untrustworthy,Trustworthy","","null","","","","feedback","","<div class='trialDiv'><img src='trustrating_stim/white_00757_941201_fa_edt.bmp'><br><font class='baseline'><strong>Matthew</strong><p>Received: <strong>12</strong></font> &nbsp; &nbsp; &nbsp; &nbsp; &nbsp; &nbsp;<font class='posOutcome'>Shared back: <strong>6</strong></font></font><div class='respPicDiv'><img src='img/responseButtonOffersNo0_wht.png' class='respPic'></div></div>","null","","6","Matthew","1","Shared","0.65,0.2","13","0.65","trustrating_stim/white_00757_941201_fa_edt.bmp","3","70","16"
"html-keyboard-response","185","588930","0.0-19.0-1.16","63f0fb9941434d10e8e4909b","bdp_trlrn","Sat Apr 08 2023 12:16:53 GMT-0400 (Eastern Daylight Time)","1210128","Untrustworthy,Trustworthy","","5978","","","","decision","","<div class='trialDiv'><img src='trustrating_stim/white_mw066.bmp'><br><font class='baseline'><strong>Nathan</strong><p>Choose number of points to send.</font><div class='respPicDiv'><img src='img/responseButtonOffersNo0L.png' class='respPic'></div></div>","3","","6","Nathan","6","Kept","0.65,0.35","13","0.65","trustrating_stim/white_mw066.bmp","5","75","17"
"html-keyboard-response","186","589183","0.0-19.0-2.16","63f0fb9941434d10e8e4909b","bdp_trlrn","Sat Apr 08 2023 12:16:53 GMT-0400 (Eastern Daylight Time)","1210128","Untrustworthy,Trustworthy","","null","","","","decisionFB","","<div class='trialDiv'><img src='trustrating_stim/white_mw066.bmp'><br><font class='baseline'><strong>Nathan</strong><p>Choose number of points to send.</font><div class='respPicDiv'><img src='img/responseButtonOffersNo0L3.png' class='respPic'></div></div>","null","","6","Nathan","6","Kept","0.65,0.35","13","0.65","trustrating_stim/white_mw066.bmp","5","72","17"
"html-keyboard-response","187","590185","0.0-19.0-3.16","63f0fb9941434d10e8e4909b","bdp_trlrn","Sat Apr 08 2023 12:16:53 GMT-0400 (Eastern Daylight Time)","1210128","Untrustworthy,Trustworthy","","null","","","","feedback","","<div class='trialDiv'><img src='trustrating_stim/white_mw066.bmp'><br><font class='baseline'><strong>Nathan</strong><p>Received: <strong>12</strong></font> &nbsp; &nbsp; &nbsp; &nbsp; &nbsp; &nbsp;<font class='negOutcome'>Shared back: <strong>0</strong></font></font><div class='respPicDiv'><img src='img/responseButtonOffersNo0_wht.png' class='respPic'></div></div>","null","","6","Nathan","6","Kept","0.65,0.35","13","0.65","trustrating_stim/white_mw066.bmp","5","72","17"
"html-keyboard-response","188","591947","0.0-19.0-1.17","63f0fb9941434d10e8e4909b","bdp_trlrn","Sat Apr 08 2023 12:16:53 GMT-0400 (Eastern Daylight Time)","1210128","Untrustworthy,Trustworthy","","1761","","","","decision","","<div class='trialDiv'><img src='trustrating_stim/white_00761_941201_fb_edt.bmp'><br><font class='baseline'><strong>Chris</strong><p>Choose number of points to send.</font><div class='respPicDiv'><img src='img/responseButtonOffersNo0L.png' class='respPic'></div></div>","1","","6","Chris","8","Shared","0.35,0.8","9","0.35","trustrating_stim/white_00761_941201_fb_edt.bmp","7","77","18"
"html-keyboard-response","189","592207","0.0-19.0-2.17","63f0fb9941434d10e8e4909b","bdp_trlrn","Sat Apr 08 2023 12:16:53 GMT-0400 (Eastern Daylight Time)","1210128","Untrustworthy,Trustworthy","","null","","","","decisionFB","","<div class='trialDiv'><img src='trustrating_stim/white_00761_941201_fb_edt.bmp'><br><font class='baseline'><strong>Chris</strong><p>Choose number of points to send.</font><div class='respPicDiv'><img src='img/responseButtonOffersNo0L1.png' class='respPic'></div></div>","null","","6","Chris","8","Shared","0.35,0.8","9","0.35","trustrating_stim/white_00761_941201_fb_edt.bmp","7","76","18"
"html-keyboard-response","190","593208","0.0-19.0-3.17","63f0fb9941434d10e8e4909b","bdp_trlrn","Sat Apr 08 2023 12:16:53 GMT-0400 (Eastern Daylight Time)","1210128","Untrustworthy,Trustworthy","","null","","","","feedback","","<div class='trialDiv'><img src='trustrating_stim/white_00761_941201_fb_edt.bmp'><br><font class='baseline'><strong>Chris</strong><p>Received: <strong>4</strong></font> &nbsp; &nbsp; &nbsp; &nbsp; &nbsp; &nbsp;<font class='posOutcome'>Shared back: <strong>2</strong></font></font><div class='respPicDiv'><img src='img/responseButtonOffersNo0_wht.png' class='respPic'></div></div>","null","","6","Chris","8","Shared","0.35,0.8","9","0.35","trustrating_stim/white_00761_941201_fb_edt.bmp","7","78","18"
"html-keyboard-response","191","606426","0.0-19.0-1.18","63f0fb9941434d10e8e4909b","bdp_trlrn","Sat Apr 08 2023 12:16:53 GMT-0400 (Eastern Daylight Time)","1210128","Untrustworthy,Trustworthy","","13217","","","","decision","","<div class='trialDiv'><img src='trustrating_stim/white_00757_941201_fa_edt.bmp'><br><font class='baseline'><strong>Matthew</strong><p>Choose number of points to send.</font><div class='respPicDiv'><img src='img/responseButtonOffersNo0L.png' class='respPic'></div></div>","4","","7","Matthew","1","Kept","0.65,0.2","13","0.65","trustrating_stim/white_00757_941201_fa_edt.bmp","3","83","19"
"html-keyboard-response","192","606678","0.0-19.0-2.18","63f0fb9941434d10e8e4909b","bdp_trlrn","Sat Apr 08 2023 12:16:53 GMT-0400 (Eastern Daylight Time)","1210128","Untrustworthy,Trustworthy","","null","","","","decisionFB","","<div class='trialDiv'><img src='trustrating_stim/white_00757_941201_fa_edt.bmp'><br><font class='baseline'><strong>Matthew</strong><p>Choose number of points to send.</font><div class='respPicDiv'><img src='img/responseButtonOffersNo0L4.png' class='respPic'></div></div>","null","","7","Matthew","1","Kept","0.65,0.2","13","0.65","trustrating_stim/white_00757_941201_fa_edt.bmp","3","79","19"
"html-keyboard-response","193","607680","0.0-19.0-3.18","63f0fb9941434d10e8e4909b","bdp_trlrn","Sat Apr 08 2023 12:16:53 GMT-0400 (Eastern Daylight Time)","1210128","Untrustworthy,Trustworthy","","null","","","","feedback","","<div class='trialDiv'><img src='trustrating_stim/white_00757_941201_fa_edt.bmp'><br><font class='baseline'><strong>Matthew</strong><p>Received: <strong>16</strong></font> &nbsp; &nbsp; &nbsp; &nbsp; &nbsp; &nbsp;<font class='negOutcome'>Shared back: <strong>0</strong></font></font><div class='respPicDiv'><img src='img/responseButtonOffersNo0_wht.png' class='respPic'></div></div>","null","","7","Matthew","1","Kept","0.65,0.2","13","0.65","trustrating_stim/white_00757_941201_fa_edt.bmp","3","79","19"
"html-keyboard-response","194","610953","0.0-19.0-1.19","63f0fb9941434d10e8e4909b","bdp_trlrn","Sat Apr 08 2023 12:16:53 GMT-0400 (Eastern Daylight Time)","1210128","Untrustworthy,Trustworthy","","3273","","","","decision","","<div class='trialDiv'><img src='trustrating_stim/white_00761_941201_fb_edt.bmp'><br><font class='baseline'><strong>Chris</strong><p>Choose number of points to send.</font><div class='respPicDiv'><img src='img/responseButtonOffersNo0L.png' class='respPic'></div></div>","3","","7","Chris","8","Kept","0.35,0.8","9","0.35","trustrating_stim/white_00761_941201_fb_edt.bmp","7","84","20"
"html-keyboard-response","195","611206","0.0-19.0-2.19","63f0fb9941434d10e8e4909b","bdp_trlrn","Sat Apr 08 2023 12:16:53 GMT-0400 (Eastern Daylight Time)","1210128","Untrustworthy,Trustworthy","","null","","","","decisionFB","","<div class='trialDiv'><img src='trustrating_stim/white_00761_941201_fb_edt.bmp'><br><font class='baseline'><strong>Chris</strong><p>Choose number of points to send.</font><div class='respPicDiv'><img src='img/responseButtonOffersNo0L3.png' class='respPic'></div></div>","null","","7","Chris","8","Kept","0.35,0.8","9","0.35","trustrating_stim/white_00761_941201_fb_edt.bmp","7","81","20"
"html-keyboard-response","196","612208","0.0-19.0-3.19","63f0fb9941434d10e8e4909b","bdp_trlrn","Sat Apr 08 2023 12:16:53 GMT-0400 (Eastern Daylight Time)","1210128","Untrustworthy,Trustworthy","","null","","","","feedback","","<div class='trialDiv'><img src='trustrating_stim/white_00761_941201_fb_edt.bmp'><br><font class='baseline'><strong>Chris</strong><p>Received: <strong>12</strong></font> &nbsp; &nbsp; &nbsp; &nbsp; &nbsp; &nbsp;<font class='negOutcome'>Shared back: <strong>0</strong></font></font><div class='respPicDiv'><img src='img/responseButtonOffersNo0_wht.png' class='respPic'></div></div>","null","","7","Chris","8","Kept","0.35,0.8","9","0.35","trustrating_stim/white_00761_941201_fb_edt.bmp","7","81","20"
"html-keyboard-response","197","614602","0.0-19.0-1.20","63f0fb9941434d10e8e4909b","bdp_trlrn","Sat Apr 08 2023 12:16:53 GMT-0400 (Eastern Daylight Time)","1210128","Untrustworthy,Trustworthy","","2393","","","","decision","","<div class='trialDiv'><img src='trustrating_stim/white_mw066.bmp'><br><font class='baseline'><strong>Nathan</strong><p>Choose number of points to send.</font><div class='respPicDiv'><img src='img/responseButtonOffersNo0L.png' class='respPic'></div></div>","5","","7","Nathan","6","Kept","0.65,0.35","13","0.65","trustrating_stim/white_mw066.bmp","5","86","21"
"html-keyboard-response","198","614854","0.0-19.0-2.20","63f0fb9941434d10e8e4909b","bdp_trlrn","Sat Apr 08 2023 12:16:53 GMT-0400 (Eastern Daylight Time)","1210128","Untrustworthy,Trustworthy","","null","","","","decisionFB","","<div class='trialDiv'><img src='trustrating_stim/white_mw066.bmp'><br><font class='baseline'><strong>Nathan</strong><p>Choose number of points to send.</font><div class='respPicDiv'><img src='img/responseButtonOffersNo0L5.png' class='respPic'></div></div>","null","","7","Nathan","6","Kept","0.65,0.35","13","0.65","trustrating_stim/white_mw066.bmp","5","81","21"
"html-keyboard-response","199","615859","0.0-19.0-3.20","63f0fb9941434d10e8e4909b","bdp_trlrn","Sat Apr 08 2023 12:16:53 GMT-0400 (Eastern Daylight Time)","1210128","Untrustworthy,Trustworthy","","null","","","","feedback","","<div class='trialDiv'><img src='trustrating_stim/white_mw066.bmp'><br><font class='baseline'><strong>Nathan</strong><p>Received: <strong>20</strong></font> &nbsp; &nbsp; &nbsp; &nbsp; &nbsp; &nbsp;<font class='negOutcome'>Shared back: <strong>0</strong></font></font><div class='respPicDiv'><img src='img/responseButtonOffersNo0_wht.png' class='respPic'></div></div>","null","","7","Nathan","6","Kept","0.65,0.35","13","0.65","trustrating_stim/white_mw066.bmp","5","81","21"
"html-keyboard-response","200","617394","0.0-19.0-1.21","63f0fb9941434d10e8e4909b","bdp_trlrn","Sat Apr 08 2023 12:16:53 GMT-0400 (Eastern Daylight Time)","1210128","Untrustworthy,Trustworthy","","1535","","","","decision","","<div class='trialDiv'><img src='trustrating_stim/white_00761_941201_fb_edt.bmp'><br><font class='baseline'><strong>Chris</strong><p>Choose number of points to send.</font><div class='respPicDiv'><img src='img/responseButtonOffersNo0L.png' class='respPic'></div></div>","1","","8","Chris","8","Kept","0.35,0.8","9","0.35","trustrating_stim/white_00761_941201_fb_edt.bmp","7","86","22"
"html-keyboard-response","201","617652","0.0-19.0-2.21","63f0fb9941434d10e8e4909b","bdp_trlrn","Sat Apr 08 2023 12:16:53 GMT-0400 (Eastern Daylight Time)","1210128","Untrustworthy,Trustworthy","","null","","","","decisionFB","","<div class='trialDiv'><img src='trustrating_stim/white_00761_941201_fb_edt.bmp'><br><font class='baseline'><strong>Chris</strong><p>Choose number of points to send.</font><div class='respPicDiv'><img src='img/responseButtonOffersNo0L1.png' class='respPic'></div></div>","null","","8","Chris","8","Kept","0.35,0.8","9","0.35","trustrating_stim/white_00761_941201_fb_edt.bmp","7","85","22"
"html-keyboard-response","202","618654","0.0-19.0-3.21","63f0fb9941434d10e8e4909b","bdp_trlrn","Sat Apr 08 2023 12:16:53 GMT-0400 (Eastern Daylight Time)","1210128","Untrustworthy,Trustworthy","","null","","","","feedback","","<div class='trialDiv'><img src='trustrating_stim/white_00761_941201_fb_edt.bmp'><br><font class='baseline'><strong>Chris</strong><p>Received: <strong>4</strong></font> &nbsp; &nbsp; &nbsp; &nbsp; &nbsp; &nbsp;<font class='negOutcome'>Shared back: <strong>0</strong></font></font><div class='respPicDiv'><img src='img/responseButtonOffersNo0_wht.png' class='respPic'></div></div>","null","","8","Chris","8","Kept","0.35,0.8","9","0.35","trustrating_stim/white_00761_941201_fb_edt.bmp","7","85","22"
"html-keyboard-response","203","621282","0.0-19.0-1.22","63f0fb9941434d10e8e4909b","bdp_trlrn","Sat Apr 08 2023 12:16:53 GMT-0400 (Eastern Daylight Time)","1210128","Untrustworthy,Trustworthy","","2628","","","","decision","","<div class='trialDiv'><img src='trustrating_stim/white_00757_941201_fa_edt.bmp'><br><font class='baseline'><strong>Matthew</strong><p>Choose number of points to send.</font><div class='respPicDiv'><img src='img/responseButtonOffersNo0L.png' class='respPic'></div></div>","2","","8","Matthew","1","Shared","0.65,0.2","13","0.65","trustrating_stim/white_00757_941201_fa_edt.bmp","3","90","23"
"html-keyboard-response","204","621534","0.0-19.0-2.22","63f0fb9941434d10e8e4909b","bdp_trlrn","Sat Apr 08 2023 12:16:53 GMT-0400 (Eastern Daylight Time)","1210128","Untrustworthy,Trustworthy","","null","","","","decisionFB","","<div class='trialDiv'><img src='trustrating_stim/white_00757_941201_fa_edt.bmp'><br><font class='baseline'><strong>Matthew</strong><p>Choose number of points to send.</font><div class='respPicDiv'><img src='img/responseButtonOffersNo0L2.png' class='respPic'></div></div>","null","","8","Matthew","1","Shared","0.65,0.2","13","0.65","trustrating_stim/white_00757_941201_fa_edt.bmp","3","88","23"
"html-keyboard-response","205","622536","0.0-19.0-3.22","63f0fb9941434d10e8e4909b","bdp_trlrn","Sat Apr 08 2023 12:16:53 GMT-0400 (Eastern Daylight Time)","1210128","Untrustworthy,Trustworthy","","null","","","","feedback","","<div class='trialDiv'><img src='trustrating_stim/white_00757_941201_fa_edt.bmp'><br><font class='baseline'><strong>Matthew</strong><p>Received: <strong>8</strong></font> &nbsp; &nbsp; &nbsp; &nbsp; &nbsp; &nbsp;<font class='posOutcome'>Shared back: <strong>4</strong></font></font><div class='respPicDiv'><img src='img/responseButtonOffersNo0_wht.png' class='respPic'></div></div>","null","","8","Matthew","1","Shared","0.65,0.2","13","0.65","trustrating_stim/white_00757_941201_fa_edt.bmp","3","92","23"
"html-keyboard-response","206","625906","0.0-19.0-1.23","63f0fb9941434d10e8e4909b","bdp_trlrn","Sat Apr 08 2023 12:16:53 GMT-0400 (Eastern Daylight Time)","1210128","Untrustworthy,Trustworthy","","3369","","","","decision","","<div class='trialDiv'><img src='trustrating_stim/white_mw066.bmp'><br><font class='baseline'><strong>Nathan</strong><p>Choose number of points to send.</font><div class='respPicDiv'><img src='img/responseButtonOffersNo0L.png' class='respPic'></div></div>","3","","8","Nathan","6","Kept","0.65,0.35","13","0.65","trustrating_stim/white_mw066.bmp","5","97","24"
"html-keyboard-response","207","626156","0.0-19.0-2.23","63f0fb9941434d10e8e4909b","bdp_trlrn","Sat Apr 08 2023 12:16:53 GMT-0400 (Eastern Daylight Time)","1210128","Untrustworthy,Trustworthy","","null","","","","decisionFB","","<div class='trialDiv'><img src='trustrating_stim/white_mw066.bmp'><br><font class='baseline'><strong>Nathan</strong><p>Choose number of points to send.</font><div class='respPicDiv'><img src='img/responseButtonOffersNo0L3.png' class='respPic'></div></div>","null","","8","Nathan","6","Kept","0.65,0.35","13","0.65","trustrating_stim/white_mw066.bmp","5","94","24"
"html-keyboard-response","208","627158","0.0-19.0-3.23","63f0fb9941434d10e8e4909b","bdp_trlrn","Sat Apr 08 2023 12:16:53 GMT-0400 (Eastern Daylight Time)","1210128","Untrustworthy,Trustworthy","","null","","","","feedback","","<div class='trialDiv'><img src='trustrating_stim/white_mw066.bmp'><br><font class='baseline'><strong>Nathan</strong><p>Received: <strong>12</strong></font> &nbsp; &nbsp; &nbsp; &nbsp; &nbsp; &nbsp;<font class='negOutcome'>Shared back: <strong>0</strong></font></font><div class='respPicDiv'><img src='img/responseButtonOffersNo0_wht.png' class='respPic'></div></div>","null","","8","Nathan","6","Kept","0.65,0.35","13","0.65","trustrating_stim/white_mw066.bmp","5","94","24"
"html-keyboard-response","209","631082","0.0-19.0-1.24","63f0fb9941434d10e8e4909b","bdp_trlrn","Sat Apr 08 2023 12:16:53 GMT-0400 (Eastern Daylight Time)","1210128","Untrustworthy,Trustworthy","","3923","","","","decision","","<div class='trialDiv'><img src='trustrating_stim/white_00757_941201_fa_edt.bmp'><br><font class='baseline'><strong>Matthew</strong><p>Choose number of points to send.</font><div class='respPicDiv'><img src='img/responseButtonOffersNo0L.png' class='respPic'></div></div>","3","","9","Matthew","1","Shared","0.65,0.2","13","0.65","trustrating_stim/white_00757_941201_fa_edt.bmp","3","99","25"
"html-keyboard-response","210","631334","0.0-19.0-2.24","63f0fb9941434d10e8e4909b","bdp_trlrn","Sat Apr 08 2023 12:16:53 GMT-0400 (Eastern Daylight Time)","1210128","Untrustworthy,Trustworthy","","null","","","","decisionFB","","<div class='trialDiv'><img src='trustrating_stim/white_00757_941201_fa_edt.bmp'><br><font class='baseline'><strong>Matthew</strong><p>Choose number of points to send.</font><div class='respPicDiv'><img src='img/responseButtonOffersNo0L3.png' class='respPic'></div></div>","null","","9","Matthew","1","Shared","0.65,0.2","13","0.65","trustrating_stim/white_00757_941201_fa_edt.bmp","3","96","25"
"html-keyboard-response","211","632344","0.0-19.0-3.24","63f0fb9941434d10e8e4909b","bdp_trlrn","Sat Apr 08 2023 12:16:53 GMT-0400 (Eastern Daylight Time)","1210128","Untrustworthy,Trustworthy","","null","","","","feedback","","<div class='trialDiv'><img src='trustrating_stim/white_00757_941201_fa_edt.bmp'><br><font class='baseline'><strong>Matthew</strong><p>Received: <strong>12</strong></font> &nbsp; &nbsp; &nbsp; &nbsp; &nbsp; &nbsp;<font class='posOutcome'>Shared back: <strong>6</strong></font></font><div class='respPicDiv'><img src='img/responseButtonOffersNo0_wht.png' class='respPic'></div></div>","null","","9","Matthew","1","Shared","0.65,0.2","13","0.65","trustrating_stim/white_00757_941201_fa_edt.bmp","3","102","25"
"html-keyboard-response","212","633810","0.0-19.0-1.25","63f0fb9941434d10e8e4909b","bdp_trlrn","Sat Apr 08 2023 12:16:53 GMT-0400 (Eastern Daylight Time)","1210128","Untrustworthy,Trustworthy","","1465","","","","decision","","<div class='trialDiv'><img src='trustrating_stim/white_mw066.bmp'><br><font class='baseline'><strong>Nathan</strong><p>Choose number of points to send.</font><div class='respPicDiv'><img src='img/responseButtonOffersNo0L.png' class='respPic'></div></div>","3","","9","Nathan","6","Shared","0.65,0.35","13","0.65","trustrating_stim/white_mw066.bmp","5","107","26"
"html-keyboard-response","213","634062","0.0-19.0-2.25","63f0fb9941434d10e8e4909b","bdp_trlrn","Sat Apr 08 2023 12:16:53 GMT-0400 (Eastern Daylight Time)","1210128","Untrustworthy,Trustworthy","","null","","","","decisionFB","","<div class='trialDiv'><img src='trustrating_stim/white_mw066.bmp'><br><font class='baseline'><strong>Nathan</strong><p>Choose number of points to send.</font><div class='respPicDiv'><img src='img/responseButtonOffersNo0L3.png' class='respPic'></div></div>","null","","9","Nathan","6","Shared","0.65,0.35","13","0.65","trustrating_stim/white_mw066.bmp","5","104","26"
"html-keyboard-response","214","635063","0.0-19.0-3.25","63f0fb9941434d10e8e4909b","bdp_trlrn","Sat Apr 08 2023 12:16:53 GMT-0400 (Eastern Daylight Time)","1210128","Untrustworthy,Trustworthy","","null","","","","feedback","","<div class='trialDiv'><img src='trustrating_stim/white_mw066.bmp'><br><font class='baseline'><strong>Nathan</strong><p>Received: <strong>12</strong></font> &nbsp; &nbsp; &nbsp; &nbsp; &nbsp; &nbsp;<font class='posOutcome'>Shared back: <strong>6</strong></font></font><div class='respPicDiv'><img src='img/responseButtonOffersNo0_wht.png' class='respPic'></div></div>","null","","9","Nathan","6","Shared","0.65,0.35","13","0.65","trustrating_stim/white_mw066.bmp","5","110","26"
"html-keyboard-response","215","637898","0.0-19.0-1.26","63f0fb9941434d10e8e4909b","bdp_trlrn","Sat Apr 08 2023 12:16:53 GMT-0400 (Eastern Daylight Time)","1210128","Untrustworthy,Trustworthy","","2833","","","","decision","","<div class='trialDiv'><img src='trustrating_stim/white_00761_941201_fb_edt.bmp'><br><font class='baseline'><strong>Chris</strong><p>Choose number of points to send.</font><div class='respPicDiv'><img src='img/responseButtonOffersNo0L.png' class='respPic'></div></div>","1","","9","Chris","8","Shared","0.35,0.8","9","0.35","trustrating_stim/white_00761_941201_fb_edt.bmp","7","115","27"
"html-keyboard-response","216","638149","0.0-19.0-2.26","63f0fb9941434d10e8e4909b","bdp_trlrn","Sat Apr 08 2023 12:16:53 GMT-0400 (Eastern Daylight Time)","1210128","Untrustworthy,Trustworthy","","null","","","","decisionFB","","<div class='trialDiv'><img src='trustrating_stim/white_00761_941201_fb_edt.bmp'><br><font class='baseline'><strong>Chris</strong><p>Choose number of points to send.</font><div class='respPicDiv'><img src='img/responseButtonOffersNo0L1.png' class='respPic'></div></div>","null","","9","Chris","8","Shared","0.35,0.8","9","0.35","trustrating_stim/white_00761_941201_fb_edt.bmp","7","114","27"
"html-keyboard-response","217","639152","0.0-19.0-3.26","63f0fb9941434d10e8e4909b","bdp_trlrn","Sat Apr 08 2023 12:16:53 GMT-0400 (Eastern Daylight Time)","1210128","Untrustworthy,Trustworthy","","null","","","","feedback","","<div class='trialDiv'><img src='trustrating_stim/white_00761_941201_fb_edt.bmp'><br><font class='baseline'><strong>Chris</strong><p>Received: <strong>4</strong></font> &nbsp; &nbsp; &nbsp; &nbsp; &nbsp; &nbsp;<font class='posOutcome'>Shared back: <strong>2</strong></font></font><div class='respPicDiv'><img src='img/responseButtonOffersNo0_wht.png' class='respPic'></div></div>","null","","9","Chris","8","Shared","0.35,0.8","9","0.35","trustrating_stim/white_00761_941201_fb_edt.bmp","7","116","27"
