"trial_type","trial_index","time_elapsed","internal_node_id","subject_id","task","startTime","totalTime","labels","view_history","rt","event","trial","time","trialtype","success","stimulus","key_press","aground","name","faceID","outcome","agenttype","agentswpt","agentcurrpshare","face","avgRating","point_total","round","numBlurs"
"pavlovia","0","3","0.0-0.0","63d000d62878aa92b833c5fc","bdp_trlrn","Wed Mar 15 2023 14:17:26 GMT-0700 (PDT)","907070","Untrustworthy,Trustworthy","","","","","","","","","","","","","","","","","","","","",""
"instructions","1","21646","0.0-1.0","63d000d62878aa92b833c5fc","bdp_trlrn","Wed Mar 15 2023 14:17:26 GMT-0700 (PDT)","907070","Untrustworthy,Trustworthy","[{""page_index"":0,""viewing_time"":21641}]","21642","","","","","","","","","","","","","","","","","","",""
"","","","","63d000d62878aa92b833c5fc","bdp_trlrn","Wed Mar 15 2023 14:17:26 GMT-0700 (PDT)","907070","Untrustworthy,Trustworthy","","","fullscreenenter","2","26161","fullscreenenter","","","","","","","","","","","","","","",""
"fullscreen","2","27124","0.0-2.0","63d000d62878aa92b833c5fc","bdp_trlrn","Wed Mar 15 2023 14:17:26 GMT-0700 (PDT)","907070","Untrustworthy,Trustworthy","","","","","","","true","","","","","","","","","","","","","",""
"instructions","3","31461","0.0-4.0","63d000d62878aa92b833c5fc","bdp_trlrn","Wed Mar 15 2023 14:17:26 GMT-0700 (PDT)","907070","Untrustworthy,Trustworthy","[{""page_index"":0,""viewing_time"":3556},{""page_index"":1,""viewing_time"":779}]","4336","","","","","","","","","","","","","","","","","","",""
"instructions","4","32721","0.0-5.0","63d000d62878aa92b833c5fc","bdp_trlrn","Wed Mar 15 2023 14:17:26 GMT-0700 (PDT)","907070","Untrustworthy,Trustworthy","[{""page_index"":0,""viewing_time"":1259}]","1259","","","","","","","","","","","","","","","","","","",""
"image-keyboard-response","5","33793","0.0-6.0-1.0","63d000d62878aa92b833c5fc","bdp_trlrn","Wed Mar 15 2023 14:17:26 GMT-0700 (PDT)","907070","Untrustworthy,Trustworthy","","969","","","","rating","","trustrating_stim/white_00519_940519_fb_edt.bmp","5","","","","","","","","","","","",""
"image-keyboard-response","6","33996","0.0-6.0-2.0","63d000d62878aa92b833c5fc","bdp_trlrn","Wed Mar 15 2023 14:17:26 GMT-0700 (PDT)","907070","Untrustworthy,Trustworthy","","null","","","","ratingFB","","trustrating_stim/white_00519_940519_fb_edt.bmp","null","","","","","","","","","","","",""
"image-keyboard-response","7","34964","0.0-6.0-1.1","63d000d62878aa92b833c5fc","bdp_trlrn","Wed Mar 15 2023 14:17:26 GMT-0700 (PDT)","907070","Untrustworthy,Trustworthy","","864","","","","rating","","trustrating_stim/white_00109_931230_fa_edt.bmp","5","","","","","","","","","","","",""
"image-keyboard-response","8","35166","0.0-6.0-2.1","63d000d62878aa92b833c5fc","bdp_trlrn","Wed Mar 15 2023 14:17:26 GMT-0700 (PDT)","907070","Untrustworthy,Trustworthy","","null","","","","ratingFB","","trustrating_stim/white_00109_931230_fa_edt.bmp","null","","","","","","","","","","","",""
"image-keyboard-response","9","36537","0.0-6.0-1.2","63d000d62878aa92b833c5fc","bdp_trlrn","Wed Mar 15 2023 14:17:26 GMT-0700 (PDT)","907070","Untrustworthy,Trustworthy","","1268","","","","rating","","trustrating_stim/white_mw035.bmp","3","","","","","","","","","","","",""
"image-keyboard-response","10","36739","0.0-6.0-2.2","63d000d62878aa92b833c5fc","bdp_trlrn","Wed Mar 15 2023 14:17:26 GMT-0700 (PDT)","907070","Untrustworthy,Trustworthy","","null","","","","ratingFB","","trustrating_stim/white_mw035.bmp","null","","","","","","","","","","","",""
"image-keyboard-response","11","37692","0.0-6.0-1.3","63d000d62878aa92b833c5fc","bdp_trlrn","Wed Mar 15 2023 14:17:26 GMT-0700 (PDT)","907070","Untrustworthy,Trustworthy","","851","","","","rating","","trustrating_stim/white_mw084.bmp","3","","","","","","","","","","","",""
"image-keyboard-response","12","37894","0.0-6.0-2.3","63d000d62878aa92b833c5fc","bdp_trlrn","Wed Mar 15 2023 14:17:26 GMT-0700 (PDT)","907070","Untrustworthy,Trustworthy","","null","","","","ratingFB","","trustrating_stim/white_mw084.bmp","null","","","","","","","","","","","",""
"image-keyboard-response","13","39593","0.0-6.0-1.4","63d000d62878aa92b833c5fc","bdp_trlrn","Wed Mar 15 2023 14:17:26 GMT-0700 (PDT)","907070","Untrustworthy,Trustworthy","","1596","","","","rating","","trustrating_stim/white_00223_940128_fb_edt.bmp","6","","","","","","","","","","","",""
"image-keyboard-response","14","39794","0.0-6.0-2.4","63d000d62878aa92b833c5fc","bdp_trlrn","Wed Mar 15 2023 14:17:26 GMT-0700 (PDT)","907070","Untrustworthy,Trustworthy","","null","","","","ratingFB","","trustrating_stim/white_00223_940128_fb_edt.bmp","null","","","","","","","","","","","",""
"image-keyboard-response","15","40473","0.0-6.0-1.5","63d000d62878aa92b833c5fc","bdp_trlrn","Wed Mar 15 2023 14:17:26 GMT-0700 (PDT)","907070","Untrustworthy,Trustworthy","","575","","","","rating","","trustrating_stim/white_mw049.bmp","5","","","","","","","","","","","",""
"image-keyboard-response","16","40675","0.0-6.0-2.5","63d000d62878aa92b833c5fc","bdp_trlrn","Wed Mar 15 2023 14:17:26 GMT-0700 (PDT)","907070","Untrustworthy,Trustworthy","","null","","","","ratingFB","","trustrating_stim/white_mw049.bmp","null","","","","","","","","","","","",""
"image-keyboard-response","17","42089","0.0-6.0-1.6","63d000d62878aa92b833c5fc","bdp_trlrn","Wed Mar 15 2023 14:17:26 GMT-0700 (PDT)","907070","Untrustworthy,Trustworthy","","1310","","","","rating","","trustrating_stim/white_00761_941201_fb_edt.bmp","3","","","","","","","","","","","",""
"image-keyboard-response","18","42291","0.0-6.0-2.6","63d000d62878aa92b833c5fc","bdp_trlrn","Wed Mar 15 2023 14:17:26 GMT-0700 (PDT)","907070","Untrustworthy,Trustworthy","","null","","","","ratingFB","","trustrating_stim/white_00761_941201_fb_edt.bmp","null","","","","","","","","","","","",""
"image-keyboard-response","19","43401","0.0-6.0-1.7","63d000d62878aa92b833c5fc","bdp_trlrn","Wed Mar 15 2023 14:17:26 GMT-0700 (PDT)","907070","Untrustworthy,Trustworthy","","1006","","","","rating","","trustrating_stim/white_mw060.bmp","2","","","","","","","","","","","",""
"image-keyboard-response","20","43603","0.0-6.0-2.7","63d000d62878aa92b833c5fc","bdp_trlrn","Wed Mar 15 2023 14:17:26 GMT-0700 (PDT)","907070","Untrustworthy,Trustworthy","","null","","","","ratingFB","","trustrating_stim/white_mw060.bmp","null","","","","","","","","","","","",""
"image-keyboard-response","21","45265","0.0-6.0-1.8","63d000d62878aa92b833c5fc","bdp_trlrn","Wed Mar 15 2023 14:17:26 GMT-0700 (PDT)","907070","Untrustworthy,Trustworthy","","1559","","","","rating","","trustrating_stim/white_mw066.bmp","6","","","","","","","","","","","",""
"image-keyboard-response","22","45467","0.0-6.0-2.8","63d000d62878aa92b833c5fc","bdp_trlrn","Wed Mar 15 2023 14:17:26 GMT-0700 (PDT)","907070","Untrustworthy,Trustworthy","","null","","","","ratingFB","","trustrating_stim/white_mw066.bmp","null","","","","","","","","","","","",""
"image-keyboard-response","23","47288","0.0-6.0-1.9","63d000d62878aa92b833c5fc","bdp_trlrn","Wed Mar 15 2023 14:17:26 GMT-0700 (PDT)","907070","Untrustworthy,Trustworthy","","1719","","","","rating","","trustrating_stim/white_mw089.bmp","5","","","","","","","","","","","",""
"image-keyboard-response","24","47491","0.0-6.0-2.9","63d000d62878aa92b833c5fc","bdp_trlrn","Wed Mar 15 2023 14:17:26 GMT-0700 (PDT)","907070","Untrustworthy,Trustworthy","","null","","","","ratingFB","","trustrating_stim/white_mw089.bmp","null","","","","","","","","","","","",""
"image-keyboard-response","25","48729","0.0-6.0-1.10","63d000d62878aa92b833c5fc","bdp_trlrn","Wed Mar 15 2023 14:17:26 GMT-0700 (PDT)","907070","Untrustworthy,Trustworthy","","1135","","","","rating","","trustrating_stim/white_mw097.bmp","2","","","","","","","","","","","",""
"image-keyboard-response","26","48931","0.0-6.0-2.10","63d000d62878aa92b833c5fc","bdp_trlrn","Wed Mar 15 2023 14:17:26 GMT-0700 (PDT)","907070","Untrustworthy,Trustworthy","","null","","","","ratingFB","","trustrating_stim/white_mw097.bmp","null","","","","","","","","","","","",""
"image-keyboard-response","27","50337","0.0-6.0-1.11","63d000d62878aa92b833c5fc","bdp_trlrn","Wed Mar 15 2023 14:17:26 GMT-0700 (PDT)","907070","Untrustworthy,Trustworthy","","1303","","","","rating","","trustrating_stim/white_00785_941205_fb_edt.bmp","4","","","","","","","","","","","",""
"image-keyboard-response","28","50539","0.0-6.0-2.11","63d000d62878aa92b833c5fc","bdp_trlrn","Wed Mar 15 2023 14:17:26 GMT-0700 (PDT)","907070","Untrustworthy,Trustworthy","","null","","","","ratingFB","","trustrating_stim/white_00785_941205_fb_edt.bmp","null","","","","","","","","","","","",""
"image-keyboard-response","29","52120","0.0-6.0-1.12","63d000d62878aa92b833c5fc","bdp_trlrn","Wed Mar 15 2023 14:17:26 GMT-0700 (PDT)","907070","Untrustworthy,Trustworthy","","1479","","","","rating","","trustrating_stim/white_mw033.bmp","7","","","","","","","","","","","",""
"image-keyboard-response","30","52322","0.0-6.0-2.12","63d000d62878aa92b833c5fc","bdp_trlrn","Wed Mar 15 2023 14:17:26 GMT-0700 (PDT)","907070","Untrustworthy,Trustworthy","","null","","","","ratingFB","","trustrating_stim/white_mw033.bmp","null","","","","","","","","","","","",""
"image-keyboard-response","31","53369","0.0-6.0-1.13","63d000d62878aa92b833c5fc","bdp_trlrn","Wed Mar 15 2023 14:17:26 GMT-0700 (PDT)","907070","Untrustworthy,Trustworthy","","943","","","","rating","","trustrating_stim/white_00602_940928_fb_edt.bmp","5","","","","","","","","","","","",""
"image-keyboard-response","32","53571","0.0-6.0-2.13","63d000d62878aa92b833c5fc","bdp_trlrn","Wed Mar 15 2023 14:17:26 GMT-0700 (PDT)","907070","Untrustworthy,Trustworthy","","null","","","","ratingFB","","trustrating_stim/white_00602_940928_fb_edt.bmp","null","","","","","","","","","","","",""
"image-keyboard-response","33","54371","0.0-6.0-1.14","63d000d62878aa92b833c5fc","bdp_trlrn","Wed Mar 15 2023 14:17:26 GMT-0700 (PDT)","907070","Untrustworthy,Trustworthy","","698","","","","rating","","trustrating_stim/white_mw056.bmp","5","","","","","","","","","","","",""
"image-keyboard-response","34","54574","0.0-6.0-2.14","63d000d62878aa92b833c5fc","bdp_trlrn","Wed Mar 15 2023 14:17:26 GMT-0700 (PDT)","907070","Untrustworthy,Trustworthy","","null","","","","ratingFB","","trustrating_stim/white_mw056.bmp","null","","","","","","","","","","","",""
"image-keyboard-response","35","55801","0.0-6.0-1.15","63d000d62878aa92b833c5fc","bdp_trlrn","Wed Mar 15 2023 14:17:26 GMT-0700 (PDT)","907070","Untrustworthy,Trustworthy","","1124","","","","rating","","trustrating_stim/white_mw099.bmp","5","","","","","","","","","","","",""
"image-keyboard-response","36","56002","0.0-6.0-2.15","63d000d62878aa92b833c5fc","bdp_trlrn","Wed Mar 15 2023 14:17:26 GMT-0700 (PDT)","907070","Untrustworthy,Trustworthy","","null","","","","ratingFB","","trustrating_stim/white_mw099.bmp","null","","","","","","","","","","","",""
"image-keyboard-response","37","57465","0.0-6.0-1.16","63d000d62878aa92b833c5fc","bdp_trlrn","Wed Mar 15 2023 14:17:26 GMT-0700 (PDT)","907070","Untrustworthy,Trustworthy","","1359","","","","rating","","trustrating_stim/white_00807_941205_fb_edt.bmp","6","","","","","","","","","","","",""
"image-keyboard-response","38","57667","0.0-6.0-2.16","63d000d62878aa92b833c5fc","bdp_trlrn","Wed Mar 15 2023 14:17:26 GMT-0700 (PDT)","907070","Untrustworthy,Trustworthy","","null","","","","ratingFB","","trustrating_stim/white_00807_941205_fb_edt.bmp","null","","","","","","","","","","","",""
"image-keyboard-response","39","59161","0.0-6.0-1.17","63d000d62878aa92b833c5fc","bdp_trlrn","Wed Mar 15 2023 14:17:26 GMT-0700 (PDT)","907070","Untrustworthy,Trustworthy","","1391","","","","rating","","trustrating_stim/white_mw046.bmp","4","","","","","","","","","","","",""
"image-keyboard-response","40","59363","0.0-6.0-2.17","63d000d62878aa92b833c5fc","bdp_trlrn","Wed Mar 15 2023 14:17:26 GMT-0700 (PDT)","907070","Untrustworthy,Trustworthy","","null","","","","ratingFB","","trustrating_stim/white_mw046.bmp","null","","","","","","","","","","","",""
"image-keyboard-response","41","60259","0.0-6.0-1.18","63d000d62878aa92b833c5fc","bdp_trlrn","Wed Mar 15 2023 14:17:26 GMT-0700 (PDT)","907070","Untrustworthy,Trustworthy","","794","","","","rating","","trustrating_stim/white_mw071.bmp","4","","","","","","","","","","","",""
"image-keyboard-response","42","60462","0.0-6.0-2.18","63d000d62878aa92b833c5fc","bdp_trlrn","Wed Mar 15 2023 14:17:26 GMT-0700 (PDT)","907070","Untrustworthy,Trustworthy","","null","","","","ratingFB","","trustrating_stim/white_mw071.bmp","null","","","","","","","","","","","",""
"image-keyboard-response","43","61856","0.0-6.0-1.19","63d000d62878aa92b833c5fc","bdp_trlrn","Wed Mar 15 2023 14:17:26 GMT-0700 (PDT)","907070","Untrustworthy,Trustworthy","","1292","","","","rating","","trustrating_stim/white_00577_940928_fa_edt.bmp","5","","","","","","","","","","","",""
"image-keyboard-response","44","62059","0.0-6.0-2.19","63d000d62878aa92b833c5fc","bdp_trlrn","Wed Mar 15 2023 14:17:26 GMT-0700 (PDT)","907070","Untrustworthy,Trustworthy","","null","","","","ratingFB","","trustrating_stim/white_00577_940928_fa_edt.bmp","null","","","","","","","","","","","",""
"image-keyboard-response","45","63672","0.0-6.0-1.20","63d000d62878aa92b833c5fc","bdp_trlrn","Wed Mar 15 2023 14:17:26 GMT-0700 (PDT)","907070","Untrustworthy,Trustworthy","","1511","","","","rating","","trustrating_stim/white_00299_940422_fa_edt.bmp","7","","","","","","","","","","","",""
"image-keyboard-response","46","63874","0.0-6.0-2.20","63d000d62878aa92b833c5fc","bdp_trlrn","Wed Mar 15 2023 14:17:26 GMT-0700 (PDT)","907070","Untrustworthy,Trustworthy","","null","","","","ratingFB","","trustrating_stim/white_00299_940422_fa_edt.bmp","null","","","","","","","","","","","",""
"image-keyboard-response","47","65168","0.0-6.0-1.21","63d000d62878aa92b833c5fc","bdp_trlrn","Wed Mar 15 2023 14:17:26 GMT-0700 (PDT)","907070","Untrustworthy,Trustworthy","","1192","","","","rating","","trustrating_stim/white_00659_941121_fa_edt.bmp","4","","","","","","","","","","","",""
"image-keyboard-response","48","65370","0.0-6.0-2.21","63d000d62878aa92b833c5fc","bdp_trlrn","Wed Mar 15 2023 14:17:26 GMT-0700 (PDT)","907070","Untrustworthy,Trustworthy","","null","","","","ratingFB","","trustrating_stim/white_00659_941121_fa_edt.bmp","null","","","","","","","","","","","",""
"image-keyboard-response","49","66641","0.0-6.0-1.22","63d000d62878aa92b833c5fc","bdp_trlrn","Wed Mar 15 2023 14:17:26 GMT-0700 (PDT)","907070","Untrustworthy,Trustworthy","","1167","","","","rating","","trustrating_stim/white_00340_940422_fa_edt.bmp","3","","","","","","","","","","","",""
"image-keyboard-response","50","66843","0.0-6.0-2.22","63d000d62878aa92b833c5fc","bdp_trlrn","Wed Mar 15 2023 14:17:26 GMT-0700 (PDT)","907070","Untrustworthy,Trustworthy","","null","","","","ratingFB","","trustrating_stim/white_00340_940422_fa_edt.bmp","null","","","","","","","","","","","",""
"image-keyboard-response","51","67747","0.0-6.0-1.23","63d000d62878aa92b833c5fc","bdp_trlrn","Wed Mar 15 2023 14:17:26 GMT-0700 (PDT)","907070","Untrustworthy,Trustworthy","","802","","","","rating","","trustrating_stim/white_mw063.bmp","3","","","","","","","","","","","",""
"image-keyboard-response","52","67949","0.0-6.0-2.23","63d000d62878aa92b833c5fc","bdp_trlrn","Wed Mar 15 2023 14:17:26 GMT-0700 (PDT)","907070","Untrustworthy,Trustworthy","","null","","","","ratingFB","","trustrating_stim/white_mw063.bmp","null","","","","","","","","","","","",""
"image-keyboard-response","53","69200","0.0-6.0-1.24","63d000d62878aa92b833c5fc","bdp_trlrn","Wed Mar 15 2023 14:17:26 GMT-0700 (PDT)","907070","Untrustworthy,Trustworthy","","1149","","","","rating","","trustrating_stim/white_00129_931230_fb_edt.bmp","5","","","","","","","","","","","",""
"image-keyboard-response","54","69403","0.0-6.0-2.24","63d000d62878aa92b833c5fc","bdp_trlrn","Wed Mar 15 2023 14:17:26 GMT-0700 (PDT)","907070","Untrustworthy,Trustworthy","","null","","","","ratingFB","","trustrating_stim/white_00129_931230_fb_edt.bmp","null","","","","","","","","","","","",""
"image-keyboard-response","55","70864","0.0-6.0-1.25","63d000d62878aa92b833c5fc","bdp_trlrn","Wed Mar 15 2023 14:17:26 GMT-0700 (PDT)","907070","Untrustworthy,Trustworthy","","1359","","","","rating","","trustrating_stim/white_00898_960530_fa_edt.bmp","6","","","","","","","","","","","",""
"image-keyboard-response","56","71066","0.0-6.0-2.25","63d000d62878aa92b833c5fc","bdp_trlrn","Wed Mar 15 2023 14:17:26 GMT-0700 (PDT)","907070","Untrustworthy,Trustworthy","","null","","","","ratingFB","","trustrating_stim/white_00898_960530_fa_edt.bmp","null","","","","","","","","","","","",""
"image-keyboard-response","57","72136","0.0-6.0-1.26","63d000d62878aa92b833c5fc","bdp_trlrn","Wed Mar 15 2023 14:17:26 GMT-0700 (PDT)","907070","Untrustworthy,Trustworthy","","967","","","","rating","","trustrating_stim/white_mw048.bmp","3","","","","","","","","","","","",""
"image-keyboard-response","58","72339","0.0-6.0-2.26","63d000d62878aa92b833c5fc","bdp_trlrn","Wed Mar 15 2023 14:17:26 GMT-0700 (PDT)","907070","Untrustworthy,Trustworthy","","null","","","","ratingFB","","trustrating_stim/white_mw048.bmp","null","","","","","","","","","","","",""
"image-keyboard-response","59","73171","0.0-6.0-1.27","63d000d62878aa92b833c5fc","bdp_trlrn","Wed Mar 15 2023 14:17:26 GMT-0700 (PDT)","907070","Untrustworthy,Trustworthy","","730","","","","rating","","trustrating_stim/white_00120_931230_fa_edt.bmp","3","","","","","","","","","","","",""
"image-keyboard-response","60","73373","0.0-6.0-2.27","63d000d62878aa92b833c5fc","bdp_trlrn","Wed Mar 15 2023 14:17:26 GMT-0700 (PDT)","907070","Untrustworthy,Trustworthy","","null","","","","ratingFB","","trustrating_stim/white_00120_931230_fa_edt.bmp","null","","","","","","","","","","","",""
"image-keyboard-response","61","74376","0.0-6.0-1.28","63d000d62878aa92b833c5fc","bdp_trlrn","Wed Mar 15 2023 14:17:26 GMT-0700 (PDT)","907070","Untrustworthy,Trustworthy","","900","","","","rating","","trustrating_stim/white_mw053.bmp","5","","","","","","","","","","","",""
"image-keyboard-response","62","74579","0.0-6.0-2.28","63d000d62878aa92b833c5fc","bdp_trlrn","Wed Mar 15 2023 14:17:26 GMT-0700 (PDT)","907070","Untrustworthy,Trustworthy","","null","","","","ratingFB","","trustrating_stim/white_mw053.bmp","null","","","","","","","","","","","",""
"image-keyboard-response","63","75952","0.0-6.0-1.29","63d000d62878aa92b833c5fc","bdp_trlrn","Wed Mar 15 2023 14:17:26 GMT-0700 (PDT)","907070","Untrustworthy,Trustworthy","","1271","","","","rating","","trustrating_stim/white_00757_941201_fa_edt.bmp","3","","","","","","","","","","","",""
"image-keyboard-response","64","76154","0.0-6.0-2.29","63d000d62878aa92b833c5fc","bdp_trlrn","Wed Mar 15 2023 14:17:26 GMT-0700 (PDT)","907070","Untrustworthy,Trustworthy","","null","","","","ratingFB","","trustrating_stim/white_00757_941201_fa_edt.bmp","null","","","","","","","","","","","",""
"image-keyboard-response","65","77784","0.0-6.0-1.30","63d000d62878aa92b833c5fc","bdp_trlrn","Wed Mar 15 2023 14:17:26 GMT-0700 (PDT)","907070","Untrustworthy,Trustworthy","","1528","","","","rating","","trustrating_stim/white_mw071.bmp","2","","","","","","","","","","","",""
"image-keyboard-response","66","77987","0.0-6.0-2.30","63d000d62878aa92b833c5fc","bdp_trlrn","Wed Mar 15 2023 14:17:26 GMT-0700 (PDT)","907070","Untrustworthy,Trustworthy","","null","","","","ratingFB","","trustrating_stim/white_mw071.bmp","null","","","","","","","","","","","",""
"image-keyboard-response","67","78648","0.0-6.0-1.31","63d000d62878aa92b833c5fc","bdp_trlrn","Wed Mar 15 2023 14:17:26 GMT-0700 (PDT)","907070","Untrustworthy,Trustworthy","","559","","","","rating","","trustrating_stim/white_mw089.bmp","4","","","","","","","","","","","",""
"image-keyboard-response","68","78850","0.0-6.0-2.31","63d000d62878aa92b833c5fc","bdp_trlrn","Wed Mar 15 2023 14:17:26 GMT-0700 (PDT)","907070","Untrustworthy,Trustworthy","","null","","","","ratingFB","","trustrating_stim/white_mw089.bmp","null","","","","","","","","","","","",""
"image-keyboard-response","69","79840","0.0-6.0-1.32","63d000d62878aa92b833c5fc","bdp_trlrn","Wed Mar 15 2023 14:17:26 GMT-0700 (PDT)","907070","Untrustworthy,Trustworthy","","887","","","","rating","","trustrating_stim/white_00129_931230_fb_edt.bmp","5","","","","","","","","","","","",""
"image-keyboard-response","70","80043","0.0-6.0-2.32","63d000d62878aa92b833c5fc","bdp_trlrn","Wed Mar 15 2023 14:17:26 GMT-0700 (PDT)","907070","Untrustworthy,Trustworthy","","null","","","","ratingFB","","trustrating_stim/white_00129_931230_fb_edt.bmp","null","","","","","","","","","","","",""
"image-keyboard-response","71","80987","0.0-6.0-1.33","63d000d62878aa92b833c5fc","bdp_trlrn","Wed Mar 15 2023 14:17:26 GMT-0700 (PDT)","907070","Untrustworthy,Trustworthy","","841","","","","rating","","trustrating_stim/white_00340_940422_fa_edt.bmp","5","","","","","","","","","","","",""
"image-keyboard-response","72","81189","0.0-6.0-2.33","63d000d62878aa92b833c5fc","bdp_trlrn","Wed Mar 15 2023 14:17:26 GMT-0700 (PDT)","907070","Untrustworthy,Trustworthy","","null","","","","ratingFB","","trustrating_stim/white_00340_940422_fa_edt.bmp","null","","","","","","","","","","","",""
"image-keyboard-response","73","82024","0.0-6.0-1.34","63d000d62878aa92b833c5fc","bdp_trlrn","Wed Mar 15 2023 14:17:26 GMT-0700 (PDT)","907070","Untrustworthy,Trustworthy","","732","","","","rating","","trustrating_stim/white_mw048.bmp","4","","","","","","","","","","","",""
"image-keyboard-response","74","82226","0.0-6.0-2.34","63d000d62878aa92b833c5fc","bdp_trlrn","Wed Mar 15 2023 14:17:26 GMT-0700 (PDT)","907070","Untrustworthy,Trustworthy","","null","","","","ratingFB","","trustrating_stim/white_mw048.bmp","null","","","","","","","","","","","",""
"image-keyboard-response","75","83192","0.0-6.0-1.35","63d000d62878aa92b833c5fc","bdp_trlrn","Wed Mar 15 2023 14:17:26 GMT-0700 (PDT)","907070","Untrustworthy,Trustworthy","","863","","","","rating","","trustrating_stim/white_00519_940519_fb_edt.bmp","5","","","","","","","","","","","",""
"image-keyboard-response","76","83394","0.0-6.0-2.35","63d000d62878aa92b833c5fc","bdp_trlrn","Wed Mar 15 2023 14:17:26 GMT-0700 (PDT)","907070","Untrustworthy,Trustworthy","","null","","","","ratingFB","","trustrating_stim/white_00519_940519_fb_edt.bmp","null","","","","","","","","","","","",""
"image-keyboard-response","77","84291","0.0-6.0-1.36","63d000d62878aa92b833c5fc","bdp_trlrn","Wed Mar 15 2023 14:17:26 GMT-0700 (PDT)","907070","Untrustworthy,Trustworthy","","793","","","","rating","","trustrating_stim/white_mw060.bmp","5","","","","","","","","","","","",""
"image-keyboard-response","78","84493","0.0-6.0-2.36","63d000d62878aa92b833c5fc","bdp_trlrn","Wed Mar 15 2023 14:17:26 GMT-0700 (PDT)","907070","Untrustworthy,Trustworthy","","null","","","","ratingFB","","trustrating_stim/white_mw060.bmp","null","","","","","","","","","","","",""
"image-keyboard-response","79","86184","0.0-6.0-1.37","63d000d62878aa92b833c5fc","bdp_trlrn","Wed Mar 15 2023 14:17:26 GMT-0700 (PDT)","907070","Untrustworthy,Trustworthy","","1589","","","","rating","","trustrating_stim/white_00577_940928_fa_edt.bmp","6","","","","","","","","","","","",""
"image-keyboard-response","80","86386","0.0-6.0-2.37","63d000d62878aa92b833c5fc","bdp_trlrn","Wed Mar 15 2023 14:17:26 GMT-0700 (PDT)","907070","Untrustworthy,Trustworthy","","null","","","","ratingFB","","trustrating_stim/white_00577_940928_fa_edt.bmp","null","","","","","","","","","","","",""
"image-keyboard-response","81","87688","0.0-6.0-1.38","63d000d62878aa92b833c5fc","bdp_trlrn","Wed Mar 15 2023 14:17:26 GMT-0700 (PDT)","907070","Untrustworthy,Trustworthy","","1199","","","","rating","","trustrating_stim/white_mw097.bmp","1","","","","","","","","","","","",""
"image-keyboard-response","82","87890","0.0-6.0-2.38","63d000d62878aa92b833c5fc","bdp_trlrn","Wed Mar 15 2023 14:17:26 GMT-0700 (PDT)","907070","Untrustworthy,Trustworthy","","null","","","","ratingFB","","trustrating_stim/white_mw097.bmp","null","","","","","","","","","","","",""
"image-keyboard-response","83","89688","0.0-6.0-1.39","63d000d62878aa92b833c5fc","bdp_trlrn","Wed Mar 15 2023 14:17:26 GMT-0700 (PDT)","907070","Untrustworthy,Trustworthy","","1695","","","","rating","","trustrating_stim/white_mw056.bmp","5","","","","","","","","","","","",""
"image-keyboard-response","84","89890","0.0-6.0-2.39","63d000d62878aa92b833c5fc","bdp_trlrn","Wed Mar 15 2023 14:17:26 GMT-0700 (PDT)","907070","Untrustworthy,Trustworthy","","null","","","","ratingFB","","trustrating_stim/white_mw056.bmp","null","","","","","","","","","","","",""
"image-keyboard-response","85","91072","0.0-6.0-1.40","63d000d62878aa92b833c5fc","bdp_trlrn","Wed Mar 15 2023 14:17:26 GMT-0700 (PDT)","907070","Untrustworthy,Trustworthy","","1081","","","","rating","","trustrating_stim/white_mw046.bmp","4","","","","","","","","","","","",""
"image-keyboard-response","86","91274","0.0-6.0-2.40","63d000d62878aa92b833c5fc","bdp_trlrn","Wed Mar 15 2023 14:17:26 GMT-0700 (PDT)","907070","Untrustworthy,Trustworthy","","null","","","","ratingFB","","trustrating_stim/white_mw046.bmp","null","","","","","","","","","","","",""
"image-keyboard-response","87","92600","0.0-6.0-1.41","63d000d62878aa92b833c5fc","bdp_trlrn","Wed Mar 15 2023 14:17:26 GMT-0700 (PDT)","907070","Untrustworthy,Trustworthy","","1224","","","","rating","","trustrating_stim/white_mw066.bmp","7","","","","","","","","","","","",""
"image-keyboard-response","88","92803","0.0-6.0-2.41","63d000d62878aa92b833c5fc","bdp_trlrn","Wed Mar 15 2023 14:17:26 GMT-0700 (PDT)","907070","Untrustworthy,Trustworthy","","null","","","","ratingFB","","trustrating_stim/white_mw066.bmp","null","","","","","","","","","","","",""
"image-keyboard-response","89","93696","0.0-6.0-1.42","63d000d62878aa92b833c5fc","bdp_trlrn","Wed Mar 15 2023 14:17:26 GMT-0700 (PDT)","907070","Untrustworthy,Trustworthy","","790","","","","rating","","trustrating_stim/white_00299_940422_fa_edt.bmp","5","","","","","","","","","","","",""
"image-keyboard-response","90","93898","0.0-6.0-2.42","63d000d62878aa92b833c5fc","bdp_trlrn","Wed Mar 15 2023 14:17:26 GMT-0700 (PDT)","907070","Untrustworthy,Trustworthy","","null","","","","ratingFB","","trustrating_stim/white_00299_940422_fa_edt.bmp","null","","","","","","","","","","","",""
"image-keyboard-response","91","95072","0.0-6.0-1.43","63d000d62878aa92b833c5fc","bdp_trlrn","Wed Mar 15 2023 14:17:26 GMT-0700 (PDT)","907070","Untrustworthy,Trustworthy","","1072","","","","rating","","trustrating_stim/white_mw053.bmp","4","","","","","","","","","","","",""
"image-keyboard-response","92","95274","0.0-6.0-2.43","63d000d62878aa92b833c5fc","bdp_trlrn","Wed Mar 15 2023 14:17:26 GMT-0700 (PDT)","907070","Untrustworthy,Trustworthy","","null","","","","ratingFB","","trustrating_stim/white_mw053.bmp","null","","","","","","","","","","","",""
"image-keyboard-response","93","96195","0.0-6.0-1.44","63d000d62878aa92b833c5fc","bdp_trlrn","Wed Mar 15 2023 14:17:26 GMT-0700 (PDT)","907070","Untrustworthy,Trustworthy","","818","","","","rating","","trustrating_stim/white_mw063.bmp","4","","","","","","","","","","","",""
"image-keyboard-response","94","96397","0.0-6.0-2.44","63d000d62878aa92b833c5fc","bdp_trlrn","Wed Mar 15 2023 14:17:26 GMT-0700 (PDT)","907070","Untrustworthy,Trustworthy","","null","","","","ratingFB","","trustrating_stim/white_mw063.bmp","null","","","","","","","","","","","",""
"image-keyboard-response","95","97480","0.0-6.0-1.45","63d000d62878aa92b833c5fc","bdp_trlrn","Wed Mar 15 2023 14:17:26 GMT-0700 (PDT)","907070","Untrustworthy,Trustworthy","","981","","","","rating","","trustrating_stim/white_00761_941201_fb_edt.bmp","3","","","","","","","","","","","",""
"image-keyboard-response","96","97682","0.0-6.0-2.45","63d000d62878aa92b833c5fc","bdp_trlrn","Wed Mar 15 2023 14:17:26 GMT-0700 (PDT)","907070","Untrustworthy,Trustworthy","","null","","","","ratingFB","","trustrating_stim/white_00761_941201_fb_edt.bmp","null","","","","","","","","","","","",""
"image-keyboard-response","97","98568","0.0-6.0-1.46","63d000d62878aa92b833c5fc","bdp_trlrn","Wed Mar 15 2023 14:17:26 GMT-0700 (PDT)","907070","Untrustworthy,Trustworthy","","783","","","","rating","","trustrating_stim/white_00120_931230_fa_edt.bmp","4","","","","","","","","","","","",""
"image-keyboard-response","98","98770","0.0-6.0-2.46","63d000d62878aa92b833c5fc","bdp_trlrn","Wed Mar 15 2023 14:17:26 GMT-0700 (PDT)","907070","Untrustworthy,Trustworthy","","null","","","","ratingFB","","trustrating_stim/white_00120_931230_fa_edt.bmp","null","","","","","","","","","","","",""
"image-keyboard-response","99","99667","0.0-6.0-1.47","63d000d62878aa92b833c5fc","bdp_trlrn","Wed Mar 15 2023 14:17:26 GMT-0700 (PDT)","907070","Untrustworthy,Trustworthy","","794","","","","rating","","trustrating_stim/white_mw033.bmp","4","","","","","","","","","","","",""
"image-keyboard-response","100","99869","0.0-6.0-2.47","63d000d62878aa92b833c5fc","bdp_trlrn","Wed Mar 15 2023 14:17:26 GMT-0700 (PDT)","907070","Untrustworthy,Trustworthy","","null","","","","ratingFB","","trustrating_stim/white_mw033.bmp","null","","","","","","","","","","","",""
"image-keyboard-response","101","100608","0.0-6.0-1.48","63d000d62878aa92b833c5fc","bdp_trlrn","Wed Mar 15 2023 14:17:26 GMT-0700 (PDT)","907070","Untrustworthy,Trustworthy","","636","","","","rating","","trustrating_stim/white_mw099.bmp","5","","","","","","","","","","","",""
"image-keyboard-response","102","100810","0.0-6.0-2.48","63d000d62878aa92b833c5fc","bdp_trlrn","Wed Mar 15 2023 14:17:26 GMT-0700 (PDT)","907070","Untrustworthy,Trustworthy","","null","","","","ratingFB","","trustrating_stim/white_mw099.bmp","null","","","","","","","","","","","",""
"image-keyboard-response","103","102331","0.0-6.0-1.49","63d000d62878aa92b833c5fc","bdp_trlrn","Wed Mar 15 2023 14:17:26 GMT-0700 (PDT)","907070","Untrustworthy,Trustworthy","","1419","","","","rating","","trustrating_stim/white_00223_940128_fb_edt.bmp","5","","","","","","","","","","","",""
"image-keyboard-response","104","102533","0.0-6.0-2.49","63d000d62878aa92b833c5fc","bdp_trlrn","Wed Mar 15 2023 14:17:26 GMT-0700 (PDT)","907070","Untrustworthy,Trustworthy","","null","","","","ratingFB","","trustrating_stim/white_00223_940128_fb_edt.bmp","null","","","","","","","","","","","",""
"image-keyboard-response","105","103656","0.0-6.0-1.50","63d000d62878aa92b833c5fc","bdp_trlrn","Wed Mar 15 2023 14:17:26 GMT-0700 (PDT)","907070","Untrustworthy,Trustworthy","","1020","","","","rating","","trustrating_stim/white_00785_941205_fb_edt.bmp","2","","","","","","","","","","","",""
"image-keyboard-response","106","103858","0.0-6.0-2.50","63d000d62878aa92b833c5fc","bdp_trlrn","Wed Mar 15 2023 14:17:26 GMT-0700 (PDT)","907070","Untrustworthy,Trustworthy","","null","","","","ratingFB","","trustrating_stim/white_00785_941205_fb_edt.bmp","null","","","","","","","","","","","",""
"image-keyboard-response","107","105400","0.0-6.0-1.51","63d000d62878aa92b833c5fc","bdp_trlrn","Wed Mar 15 2023 14:17:26 GMT-0700 (PDT)","907070","Untrustworthy,Trustworthy","","1439","","","","rating","","trustrating_stim/white_00898_960530_fa_edt.bmp","7","","","","","","","","","","","",""
"image-keyboard-response","108","105602","0.0-6.0-2.51","63d000d62878aa92b833c5fc","bdp_trlrn","Wed Mar 15 2023 14:17:26 GMT-0700 (PDT)","907070","Untrustworthy,Trustworthy","","null","","","","ratingFB","","trustrating_stim/white_00898_960530_fa_edt.bmp","null","","","","","","","","","","","",""
"image-keyboard-response","109","107640","0.0-6.0-1.52","63d000d62878aa92b833c5fc","bdp_trlrn","Wed Mar 15 2023 14:17:26 GMT-0700 (PDT)","907070","Untrustworthy,Trustworthy","","1935","","","","rating","","trustrating_stim/white_mw084.bmp","3","","","","","","","","","","","",""
"image-keyboard-response","110","107841","0.0-6.0-2.52","63d000d62878aa92b833c5fc","bdp_trlrn","Wed Mar 15 2023 14:17:26 GMT-0700 (PDT)","907070","Untrustworthy,Trustworthy","","null","","","","ratingFB","","trustrating_stim/white_mw084.bmp","null","","","","","","","","","","","",""
"image-keyboard-response","111","109243","0.0-6.0-1.53","63d000d62878aa92b833c5fc","bdp_trlrn","Wed Mar 15 2023 14:17:26 GMT-0700 (PDT)","907070","Untrustworthy,Trustworthy","","1299","","","","rating","","trustrating_stim/white_00757_941201_fa_edt.bmp","3","","","","","","","","","","","",""
"image-keyboard-response","112","109445","0.0-6.0-2.53","63d000d62878aa92b833c5fc","bdp_trlrn","Wed Mar 15 2023 14:17:26 GMT-0700 (PDT)","907070","Untrustworthy,Trustworthy","","null","","","","ratingFB","","trustrating_stim/white_00757_941201_fa_edt.bmp","null","","","","","","","","","","","",""
"image-keyboard-response","113","110320","0.0-6.0-1.54","63d000d62878aa92b833c5fc","bdp_trlrn","Wed Mar 15 2023 14:17:26 GMT-0700 (PDT)","907070","Untrustworthy,Trustworthy","","771","","","","rating","","trustrating_stim/white_00602_940928_fb_edt.bmp","3","","","","","","","","","","","",""
"image-keyboard-response","114","110522","0.0-6.0-2.54","63d000d62878aa92b833c5fc","bdp_trlrn","Wed Mar 15 2023 14:17:26 GMT-0700 (PDT)","907070","Untrustworthy,Trustworthy","","null","","","","ratingFB","","trustrating_stim/white_00602_940928_fb_edt.bmp","null","","","","","","","","","","","",""
"image-keyboard-response","115","111408","0.0-6.0-1.55","63d000d62878aa92b833c5fc","bdp_trlrn","Wed Mar 15 2023 14:17:26 GMT-0700 (PDT)","907070","Untrustworthy,Trustworthy","","784","","","","rating","","trustrating_stim/white_00659_941121_fa_edt.bmp","4","","","","","","","","","","","",""
"image-keyboard-response","116","111610","0.0-6.0-2.55","63d000d62878aa92b833c5fc","bdp_trlrn","Wed Mar 15 2023 14:17:26 GMT-0700 (PDT)","907070","Untrustworthy,Trustworthy","","null","","","","ratingFB","","trustrating_stim/white_00659_941121_fa_edt.bmp","null","","","","","","","","","","","",""
"image-keyboard-response","117","112611","0.0-6.0-1.56","63d000d62878aa92b833c5fc","bdp_trlrn","Wed Mar 15 2023 14:17:26 GMT-0700 (PDT)","907070","Untrustworthy,Trustworthy","","898","","","","rating","","trustrating_stim/white_mw049.bmp","4","","","","","","","","","","","",""
"image-keyboard-response","118","112813","0.0-6.0-2.56","63d000d62878aa92b833c5fc","bdp_trlrn","Wed Mar 15 2023 14:17:26 GMT-0700 (PDT)","907070","Untrustworthy,Trustworthy","","null","","","","ratingFB","","trustrating_stim/white_mw049.bmp","null","","","","","","","","","","","",""
"image-keyboard-response","119","114056","0.0-6.0-1.57","63d000d62878aa92b833c5fc","bdp_trlrn","Wed Mar 15 2023 14:17:26 GMT-0700 (PDT)","907070","Untrustworthy,Trustworthy","","1140","","","","rating","","trustrating_stim/white_00807_941205_fb_edt.bmp","6","","","","","","","","","","","",""
"image-keyboard-response","120","114258","0.0-6.0-2.57","63d000d62878aa92b833c5fc","bdp_trlrn","Wed Mar 15 2023 14:17:26 GMT-0700 (PDT)","907070","Untrustworthy,Trustworthy","","null","","","","ratingFB","","trustrating_stim/white_00807_941205_fb_edt.bmp","null","","","","","","","","","","","",""
"image-keyboard-response","121","115376","0.0-6.0-1.58","63d000d62878aa92b833c5fc","bdp_trlrn","Wed Mar 15 2023 14:17:26 GMT-0700 (PDT)","907070","Untrustworthy,Trustworthy","","1015","","","","rating","","trustrating_stim/white_mw035.bmp","4","","","","","","","","","","","",""
"image-keyboard-response","122","115578","0.0-6.0-2.58","63d000d62878aa92b833c5fc","bdp_trlrn","Wed Mar 15 2023 14:17:26 GMT-0700 (PDT)","907070","Untrustworthy,Trustworthy","","null","","","","ratingFB","","trustrating_stim/white_mw035.bmp","null","","","","","","","","","","","",""
"image-keyboard-response","123","116504","0.0-6.0-1.59","63d000d62878aa92b833c5fc","bdp_trlrn","Wed Mar 15 2023 14:17:26 GMT-0700 (PDT)","907070","Untrustworthy,Trustworthy","","823","","","","rating","","trustrating_stim/white_00109_931230_fa_edt.bmp","5","","","","","","","","","","","",""
"image-keyboard-response","124","116706","0.0-6.0-2.59","63d000d62878aa92b833c5fc","bdp_trlrn","Wed Mar 15 2023 14:17:26 GMT-0700 (PDT)","907070","Untrustworthy,Trustworthy","","null","","","","ratingFB","","trustrating_stim/white_00109_931230_fa_edt.bmp","null","","","","","","","","","","","",""
"instructions","125","119927","0.0-7.0","63d000d62878aa92b833c5fc","bdp_trlrn","Wed Mar 15 2023 14:17:26 GMT-0700 (PDT)","907070","Untrustworthy,Trustworthy","[{""page_index"":0,""viewing_time"":3119}]","3119","","","","","","","","","","","","","","","","","","",""
"instructions","126","236846","0.0-8.0","63d000d62878aa92b833c5fc","bdp_trlrn","Wed Mar 15 2023 14:17:26 GMT-0700 (PDT)","907070","Untrustworthy,Trustworthy","[{""page_index"":0,""viewing_time"":67693},{""page_index"":1,""viewing_time"":11380},{""page_index"":2,""viewing_time"":8027},{""page_index"":3,""viewing_time"":6965},{""page_index"":4,""viewing_time"":6091},{""page_index"":5,""viewing_time"":4325},{""page_index"":6,""viewing_time"":7827},{""page_index"":7,""viewing_time"":4509}]","116817","","","","","","","","","","","","","","","","","","",""
"html-keyboard-response","127","242182","0.0-9.0","63d000d62878aa92b833c5fc","bdp_trlrn","Wed Mar 15 2023 14:17:26 GMT-0700 (PDT)","907070","Untrustworthy,Trustworthy","","5334","","","","","","<div class='header' style='text-align:left; position: absolute; top: 5%; left: 5%;'><small>Task 3 of 5</small></div><div class='instruxDiv'><p><strong>1) What is the minimum number of points you can choose to send to your partner?</strong></p><p>a) 0</p><p>b) 1</p><p>c) 5</p>","A","","","","","","","","","","","",""
"html-keyboard-response","128","244870","0.0-10.0","63d000d62878aa92b833c5fc","bdp_trlrn","Wed Mar 15 2023 14:17:26 GMT-0700 (PDT)","907070","Untrustworthy,Trustworthy","","2586","","","","","","<div class='header' style='text-align:left; position: absolute; top: 5%; left: 5%;'><small>Task 3 of 5</small></div><div class='instruxDiv'><p><strong>1) What is the minimum number of points you can choose to send to your partner?</strong></p><p style='color:#FF0000'>a) 0</p><p>b) 1</p><p>c) 5</p><h3 style='color:#FF0000'>Incorrect!</h3><h3 class='center-content'>The correct response is b).</h3><h3 class='center-content'>The minimum number of points you can choose to send to your partner is 1 point.</h3><p><em>Press SPACEBAR to continue</em></p></div>"," ","","","","","","","","","","","",""
"html-keyboard-response","129","249430","0.0-11.0","63d000d62878aa92b833c5fc","bdp_trlrn","Wed Mar 15 2023 14:17:26 GMT-0700 (PDT)","907070","Untrustworthy,Trustworthy","","4458","","","","","","<div class='header' style='text-align:left; position: absolute; top: 5%; left: 5%;'><small>Task 3 of 5</small></div><div class='instruxDiv'><p><strong>2) What is the maximum number of points you can choose to send to your partner?</strong></p><p>a) 8</p><p>b) 5</p><p>c) 3</p>","C","","","","","","","","","","","",""
"html-keyboard-response","130","251502","0.0-12.0","63d000d62878aa92b833c5fc","bdp_trlrn","Wed Mar 15 2023 14:17:26 GMT-0700 (PDT)","907070","Untrustworthy,Trustworthy","","1970","","","","","","<div class='header' style='text-align:left; position: absolute; top: 5%; left: 5%;'><small>Task 3 of 5</small></div><div class='instruxDiv'><p><strong>2) What is the maximum number of points you can choose to send to your partner?</strong></p><p>a) 8</p><p>b) 5</p><p style='color:#FF0000'>c) 3</p><h3 style='color:#FF0000'>Incorrect!</h3><h3 class='center-content'>The correct response is b).</h3><h3 class='center-content'>The maximum number of points you can choose to send to your partner is 5 points.</h3><p><em>Press SPACEBAR to continue</em></p></div>"," ","","","","","","","","","","","",""
"html-keyboard-response","131","254646","0.0-13.0","63d000d62878aa92b833c5fc","bdp_trlrn","Wed Mar 15 2023 14:17:26 GMT-0700 (PDT)","907070","Untrustworthy,Trustworthy","","3042","","","","","","<div class='header' style='text-align:left; position: absolute; top: 5%; left: 5%;'><small>Task 3 of 5</small></div><div class='instruxDiv'><p><strong>3) What happens to the amount of points you send to your partner?</strong></p><p>a) Nothing</p><p>b) It doubles</p><p>c) It quadruples</p>","B","","","","","","","","","","","",""
"html-keyboard-response","132","257398","0.0-14.0","63d000d62878aa92b833c5fc","bdp_trlrn","Wed Mar 15 2023 14:17:26 GMT-0700 (PDT)","907070","Untrustworthy,Trustworthy","","2650","","","","","","<div class='header' style='text-align:left; position: absolute; top: 5%; left: 5%;'><small>Task 3 of 5</small></div><div class='instruxDiv'><p><strong>3) What happens to the amount of points you send to your partner?</strong></p><p>a) Nothing</p><p style='color:#FF0000'>b) It doubles</p><p>c) It quadruples</p><h3 style='color:#FF0000'>Incorrect!</h3><h3 class='center-content'>The correct response is c).</h3><h3 class='center-content'>The amount of points you send to your partner quadruples.</h3><p><em>Press SPACEBAR to continue</em></p></div>"," ","","","","","","","","","","","",""
"html-keyboard-response","133","263806","0.0-15.0","63d000d62878aa92b833c5fc","bdp_trlrn","Wed Mar 15 2023 14:17:26 GMT-0700 (PDT)","907070","Untrustworthy,Trustworthy","","6307","","","","","","<div class='header' style='text-align:left; position: absolute; top: 5%; left: 5%;'><small>Task 3 of 5</small></div><div class='instruxDiv'><p><strong>4) If you decided to share 4 out of 5 points with your partner, and they decided to share half of the amount they received with you, how many points would you receive back from them on this round?</strong></p><p>a) 16</p><p>b) 0</p><p>c) 8</p>","C","","","","","","","","","","","",""
"html-keyboard-response","134","266046","0.0-16.0","63d000d62878aa92b833c5fc","bdp_trlrn","Wed Mar 15 2023 14:17:26 GMT-0700 (PDT)","907070","Untrustworthy,Trustworthy","","2137","","","","","","<div class='header' style='text-align:left; position: absolute; top: 5%; left: 5%;'><small>Task 3 of 5</small></div><div class='instruxDiv'><p><strong>4) If you decided to share 4 out of 5 points with your partner, and they decided to share half of the amount they received with you, how many points would you receive back from them on this round?</strong></p><p>a) 16</p><p>b) 0</p><p style='color:#00FF00'>c) 8</p><h3 style='color:#00FF00'>Correct!</h3><h3 class='center-content'>The correct response is c).</h3><h3 class='center-content'>If you shared 4 out of 5 points with your partner and they decided to share half of the amount they received with you, you would receive 8 points back (i.e. (4 x 4)/2 = 8).</h3><p><em>Press SPACEBAR to continue</em></p></div>"," ","","","","","","","","","","","",""
"html-keyboard-response","135","271148","0.0-17.0","63d000d62878aa92b833c5fc","bdp_trlrn","Wed Mar 15 2023 14:17:26 GMT-0700 (PDT)","907070","Untrustworthy,Trustworthy","","null","","","","","","<div class='header' style='text-align:left; position: absolute; top: 5%; left: 5%;'><small>Task 3 of 5</small></div><div class='instruxDiv'><p>Thank you for completing the quiz<p>These are the actual partners you will be interacting with in the next block:<p><div class='tc' align='center'><img class='introPic' src='trustrating_stim/white_00757_941201_fa_edt.bmp'><br><strong>Benjamin</strong></div><div class='bl' align='center'><img class='introPic' src='trustrating_stim/white_mw049.bmp'><br><strong>Sebastian</strong></div><div class='br' align='center'><img class='introPic' src='trustrating_stim/white_00807_941205_fb_edt.bmp'><br><strong>Tyler</strong></div></div><p>Across <strong>66 rounds</strong> you will interact with each partner <strong>22 times</strong> (in random order).<p style='align:center; color:white'><font <em>Press SPACEBAR to continue</em></p>","null","","","","","","","","","","","",""
"instructions","136","276677","0.0-18.0","63d000d62878aa92b833c5fc","bdp_trlrn","Wed Mar 15 2023 14:17:26 GMT-0700 (PDT)","907070","Untrustworthy,Trustworthy","[{""page_index"":0,""viewing_time"":4508},{""page_index"":1,""viewing_time"":1020}]","5528","","","","","","","","","","","","","","","","","","",""
"html-keyboard-response","137","278213","0.0-19.0-1.0","63d000d62878aa92b833c5fc","bdp_trlrn","Wed Mar 15 2023 14:17:26 GMT-0700 (PDT)","907070","Untrustworthy,Trustworthy","","1434","","","","decision","","<div class='trialDiv'><img src='trustrating_stim/white_00807_941205_fb_edt.bmp'><br><font class='baseline'><strong>Tyler</strong><p>Choose number of points to send.</font><div class='respPicDiv'><img src='img/responseButtonOffersNo0L.png' class='respPic'></div></div>","2","1","Tyler","8","Kept","0.65,0.2","12","0.65","trustrating_stim/white_00807_941205_fb_edt.bmp","6","5","1",""
"html-keyboard-response","138","278466","0.0-19.0-2.0","63d000d62878aa92b833c5fc","bdp_trlrn","Wed Mar 15 2023 14:17:26 GMT-0700 (PDT)","907070","Untrustworthy,Trustworthy","","null","","","","decisionFB","","<div class='trialDiv'><img src='trustrating_stim/white_00807_941205_fb_edt.bmp'><br><font class='baseline'><strong>Tyler</strong><p>Choose number of points to send.</font><div class='respPicDiv'><img src='img/responseButtonOffersNo0L2.png' class='respPic'></div></div>","null","1","Tyler","8","Kept","0.65,0.2","12","0.65","trustrating_stim/white_00807_941205_fb_edt.bmp","6","3","1",""
"html-keyboard-response","139","279469","0.0-19.0-3.0","63d000d62878aa92b833c5fc","bdp_trlrn","Wed Mar 15 2023 14:17:26 GMT-0700 (PDT)","907070","Untrustworthy,Trustworthy","","null","","","","feedback","","<div class='trialDiv'><img src='trustrating_stim/white_00807_941205_fb_edt.bmp'><br><font class='baseline'><strong>Tyler</strong><p>Received: <strong>8</strong></font> &nbsp; &nbsp; &nbsp; &nbsp; &nbsp; &nbsp;<font class='negOutcome'>Shared back: <strong>0</strong></font></font><div class='respPicDiv'><img src='img/responseButtonOffersNo0_wht.png' class='respPic'></div></div>","null","1","Tyler","8","Kept","0.65,0.2","12","0.65","trustrating_stim/white_00807_941205_fb_edt.bmp","6","3","1",""
"html-keyboard-response","140","280357","0.0-19.0-1.1","63d000d62878aa92b833c5fc","bdp_trlrn","Wed Mar 15 2023 14:17:26 GMT-0700 (PDT)","907070","Untrustworthy,Trustworthy","","887","","","","decision","","<div class='trialDiv'><img src='trustrating_stim/white_00757_941201_fa_edt.bmp'><br><font class='baseline'><strong>Benjamin</strong><p>Choose number of points to send.</font><div class='respPicDiv'><img src='img/responseButtonOffersNo0L.png' class='respPic'></div></div>","1","1","Benjamin","3","Shared","0.8,0.2","13","0.8","trustrating_stim/white_00757_941201_fa_edt.bmp","3","8","2",""
"html-keyboard-response","141","280610","0.0-19.0-2.1","63d000d62878aa92b833c5fc","bdp_trlrn","Wed Mar 15 2023 14:17:26 GMT-0700 (PDT)","907070","Untrustworthy,Trustworthy","","null","","","","decisionFB","","<div class='trialDiv'><img src='trustrating_stim/white_00757_941201_fa_edt.bmp'><br><font class='baseline'><strong>Benjamin</strong><p>Choose number of points to send.</font><div class='respPicDiv'><img src='img/responseButtonOffersNo0L1.png' class='respPic'></div></div>","null","1","Benjamin","3","Shared","0.8,0.2","13","0.8","trustrating_stim/white_00757_941201_fa_edt.bmp","3","7","2",""
"html-keyboard-response","142","281612","0.0-19.0-3.1","63d000d62878aa92b833c5fc","bdp_trlrn","Wed Mar 15 2023 14:17:26 GMT-0700 (PDT)","907070","Untrustworthy,Trustworthy","","null","","","","feedback","","<div class='trialDiv'><img src='trustrating_stim/white_00757_941201_fa_edt.bmp'><br><font class='baseline'><strong>Benjamin</strong><p>Received: <strong>4</strong></font> &nbsp; &nbsp; &nbsp; &nbsp; &nbsp; &nbsp;<font class='posOutcome'>Shared back: <strong>2</strong></font></font><div class='respPicDiv'><img src='img/responseButtonOffersNo0_wht.png' class='respPic'></div></div>","null","1","Benjamin","3","Shared","0.8,0.2","13","0.8","trustrating_stim/white_00757_941201_fa_edt.bmp","3","9","2",""
"html-keyboard-response","143","282662","0.0-19.0-1.2","63d000d62878aa92b833c5fc","bdp_trlrn","Wed Mar 15 2023 14:17:26 GMT-0700 (PDT)","907070","Untrustworthy,Trustworthy","","1048","","","","decision","","<div class='trialDiv'><img src='trustrating_stim/white_mw049.bmp'><br><font class='baseline'><strong>Sebastian</strong><p>Choose number of points to send.</font><div class='respPicDiv'><img src='img/responseButtonOffersNo0L.png' class='respPic'></div></div>","3","1","Sebastian","6","Kept","0.2,0.65","13","0.2","trustrating_stim/white_mw049.bmp","4.5","14","3",""
"html-keyboard-response","144","282914","0.0-19.0-2.2","63d000d62878aa92b833c5fc","bdp_trlrn","Wed Mar 15 2023 14:17:26 GMT-0700 (PDT)","907070","Untrustworthy,Trustworthy","","null","","","","decisionFB","","<div class='trialDiv'><img src='trustrating_stim/white_mw049.bmp'><br><font class='baseline'><strong>Sebastian</strong><p>Choose number of points to send.</font><div class='respPicDiv'><img src='img/responseButtonOffersNo0L3.png' class='respPic'></div></div>","null","1","Sebastian","6","Kept","0.2,0.65","13","0.2","trustrating_stim/white_mw049.bmp","4.5","11","3",""
"html-keyboard-response","145","283916","0.0-19.0-3.2","63d000d62878aa92b833c5fc","bdp_trlrn","Wed Mar 15 2023 14:17:26 GMT-0700 (PDT)","907070","Untrustworthy,Trustworthy","","null","","","","feedback","","<div class='trialDiv'><img src='trustrating_stim/white_mw049.bmp'><br><font class='baseline'><strong>Sebastian</strong><p>Received: <strong>12</strong></font> &nbsp; &nbsp; &nbsp; &nbsp; &nbsp; &nbsp;<font class='negOutcome'>Shared back: <strong>0</strong></font></font><div class='respPicDiv'><img src='img/responseButtonOffersNo0_wht.png' class='respPic'></div></div>","null","1","Sebastian","6","Kept","0.2,0.65","13","0.2","trustrating_stim/white_mw049.bmp","4.5","11","3",""
"html-keyboard-response","146","285077","0.0-19.0-1.3","63d000d62878aa92b833c5fc","bdp_trlrn","Wed Mar 15 2023 14:17:26 GMT-0700 (PDT)","907070","Untrustworthy,Trustworthy","","1161","","","","decision","","<div class='trialDiv'><img src='trustrating_stim/white_00807_941205_fb_edt.bmp'><br><font class='baseline'><strong>Tyler</strong><p>Choose number of points to send.</font><div class='respPicDiv'><img src='img/responseButtonOffersNo0L.png' class='respPic'></div></div>","1","2","Tyler","8","Shared","0.65,0.2","12","0.65","trustrating_stim/white_00807_941205_fb_edt.bmp","6","16","4",""
"html-keyboard-response","147","285330","0.0-19.0-2.3","63d000d62878aa92b833c5fc","bdp_trlrn","Wed Mar 15 2023 14:17:26 GMT-0700 (PDT)","907070","Untrustworthy,Trustworthy","","null","","","","decisionFB","","<div class='trialDiv'><img src='trustrating_stim/white_00807_941205_fb_edt.bmp'><br><font class='baseline'><strong>Tyler</strong><p>Choose number of points to send.</font><div class='respPicDiv'><img src='img/responseButtonOffersNo0L1.png' class='respPic'></div></div>","null","2","Tyler","8","Shared","0.65,0.2","12","0.65","trustrating_stim/white_00807_941205_fb_edt.bmp","6","15","4",""
"html-keyboard-response","148","286332","0.0-19.0-3.3","63d000d62878aa92b833c5fc","bdp_trlrn","Wed Mar 15 2023 14:17:26 GMT-0700 (PDT)","907070","Untrustworthy,Trustworthy","","null","","","","feedback","","<div class='trialDiv'><img src='trustrating_stim/white_00807_941205_fb_edt.bmp'><br><font class='baseline'><strong>Tyler</strong><p>Received: <strong>4</strong></font> &nbsp; &nbsp; &nbsp; &nbsp; &nbsp; &nbsp;<font class='posOutcome'>Shared back: <strong>2</strong></font></font><div class='respPicDiv'><img src='img/responseButtonOffersNo0_wht.png' class='respPic'></div></div>","null","2","Tyler","8","Shared","0.65,0.2","12","0.65","trustrating_stim/white_00807_941205_fb_edt.bmp","6","17","4",""
"html-keyboard-response","149","288813","0.0-19.0-1.4","63d000d62878aa92b833c5fc","bdp_trlrn","Wed Mar 15 2023 14:17:26 GMT-0700 (PDT)","907070","Untrustworthy,Trustworthy","","2480","","","","decision","","<div class='trialDiv'><img src='trustrating_stim/white_00757_941201_fa_edt.bmp'><br><font class='baseline'><strong>Benjamin</strong><p>Choose number of points to send.</font><div class='respPicDiv'><img src='img/responseButtonOffersNo0L.png' class='respPic'></div></div>","5","2","Benjamin","3","Shared","0.8,0.2","13","0.8","trustrating_stim/white_00757_941201_fa_edt.bmp","3","22","5",""
"html-keyboard-response","150","289065","0.0-19.0-2.4","63d000d62878aa92b833c5fc","bdp_trlrn","Wed Mar 15 2023 14:17:26 GMT-0700 (PDT)","907070","Untrustworthy,Trustworthy","","null","","","","decisionFB","","<div class='trialDiv'><img src='trustrating_stim/white_00757_941201_fa_edt.bmp'><br><font class='baseline'><strong>Benjamin</strong><p>Choose number of points to send.</font><div class='respPicDiv'><img src='img/responseButtonOffersNo0L5.png' class='respPic'></div></div>","null","2","Benjamin","3","Shared","0.8,0.2","13","0.8","trustrating_stim/white_00757_941201_fa_edt.bmp","3","17","5",""
"html-keyboard-response","151","290067","0.0-19.0-3.4","63d000d62878aa92b833c5fc","bdp_trlrn","Wed Mar 15 2023 14:17:26 GMT-0700 (PDT)","907070","Untrustworthy,Trustworthy","","null","","","","feedback","","<div class='trialDiv'><img src='trustrating_stim/white_00757_941201_fa_edt.bmp'><br><font class='baseline'><strong>Benjamin</strong><p>Received: <strong>20</strong></font> &nbsp; &nbsp; &nbsp; &nbsp; &nbsp; &nbsp;<font class='posOutcome'>Shared back: <strong>10</strong></font></font><div class='respPicDiv'><img src='img/responseButtonOffersNo0_wht.png' class='respPic'></div></div>","null","2","Benjamin","3","Shared","0.8,0.2","13","0.8","trustrating_stim/white_00757_941201_fa_edt.bmp","3","27","5",""
"html-keyboard-response","152","291278","0.0-19.0-1.5","63d000d62878aa92b833c5fc","bdp_trlrn","Wed Mar 15 2023 14:17:26 GMT-0700 (PDT)","907070","Untrustworthy,Trustworthy","","1209","","","","decision","","<div class='trialDiv'><img src='trustrating_stim/white_mw049.bmp'><br><font class='baseline'><strong>Sebastian</strong><p>Choose number of points to send.</font><div class='respPicDiv'><img src='img/responseButtonOffersNo0L.png' class='respPic'></div></div>","1","2","Sebastian","6","Kept","0.2,0.65","13","0.2","trustrating_stim/white_mw049.bmp","4.5","32","6",""
"html-keyboard-response","153","291530","0.0-19.0-2.5","63d000d62878aa92b833c5fc","bdp_trlrn","Wed Mar 15 2023 14:17:26 GMT-0700 (PDT)","907070","Untrustworthy,Trustworthy","","null","","","","decisionFB","","<div class='trialDiv'><img src='trustrating_stim/white_mw049.bmp'><br><font class='baseline'><strong>Sebastian</strong><p>Choose number of points to send.</font><div class='respPicDiv'><img src='img/responseButtonOffersNo0L1.png' class='respPic'></div></div>","null","2","Sebastian","6","Kept","0.2,0.65","13","0.2","trustrating_stim/white_mw049.bmp","4.5","31","6",""
"html-keyboard-response","154","292532","0.0-19.0-3.5","63d000d62878aa92b833c5fc","bdp_trlrn","Wed Mar 15 2023 14:17:26 GMT-0700 (PDT)","907070","Untrustworthy,Trustworthy","","null","","","","feedback","","<div class='trialDiv'><img src='trustrating_stim/white_mw049.bmp'><br><font class='baseline'><strong>Sebastian</strong><p>Received: <strong>4</strong></font> &nbsp; &nbsp; &nbsp; &nbsp; &nbsp; &nbsp;<font class='negOutcome'>Shared back: <strong>0</strong></font></font><div class='respPicDiv'><img src='img/responseButtonOffersNo0_wht.png' class='respPic'></div></div>","null","2","Sebastian","6","Kept","0.2,0.65","13","0.2","trustrating_stim/white_mw049.bmp","4.5","31","6",""
"html-keyboard-response","155","294685","0.0-19.0-1.6","63d000d62878aa92b833c5fc","bdp_trlrn","Wed Mar 15 2023 14:17:26 GMT-0700 (PDT)","907070","Untrustworthy,Trustworthy","","2152","","","","decision","","<div class='trialDiv'><img src='trustrating_stim/white_00757_941201_fa_edt.bmp'><br><font class='baseline'><strong>Benjamin</strong><p>Choose number of points to send.</font><div class='respPicDiv'><img src='img/responseButtonOffersNo0L.png' class='respPic'></div></div>","5","3","Benjamin","3","Shared","0.8,0.2","13","0.8","trustrating_stim/white_00757_941201_fa_edt.bmp","3","36","7",""
"html-keyboard-response","156","294938","0.0-19.0-2.6","63d000d62878aa92b833c5fc","bdp_trlrn","Wed Mar 15 2023 14:17:26 GMT-0700 (PDT)","907070","Untrustworthy,Trustworthy","","null","","","","decisionFB","","<div class='trialDiv'><img src='trustrating_stim/white_00757_941201_fa_edt.bmp'><br><font class='baseline'><strong>Benjamin</strong><p>Choose number of points to send.</font><div class='respPicDiv'><img src='img/responseButtonOffersNo0L5.png' class='respPic'></div></div>","null","3","Benjamin","3","Shared","0.8,0.2","13","0.8","trustrating_stim/white_00757_941201_fa_edt.bmp","3","31","7",""
"html-keyboard-response","157","295940","0.0-19.0-3.6","63d000d62878aa92b833c5fc","bdp_trlrn","Wed Mar 15 2023 14:17:26 GMT-0700 (PDT)","907070","Untrustworthy,Trustworthy","","null","","","","feedback","","<div class='trialDiv'><img src='trustrating_stim/white_00757_941201_fa_edt.bmp'><br><font class='baseline'><strong>Benjamin</strong><p>Received: <strong>20</strong></font> &nbsp; &nbsp; &nbsp; &nbsp; &nbsp; &nbsp;<font class='posOutcome'>Shared back: <strong>10</strong></font></font><div class='respPicDiv'><img src='img/responseButtonOffersNo0_wht.png' class='respPic'></div></div>","null","3","Benjamin","3","Shared","0.8,0.2","13","0.8","trustrating_stim/white_00757_941201_fa_edt.bmp","3","41","7",""
"html-keyboard-response","158","296813","0.0-19.0-1.7","63d000d62878aa92b833c5fc","bdp_trlrn","Wed Mar 15 2023 14:17:26 GMT-0700 (PDT)","907070","Untrustworthy,Trustworthy","","872","","","","decision","","<div class='trialDiv'><img src='trustrating_stim/white_00807_941205_fb_edt.bmp'><br><font class='baseline'><strong>Tyler</strong><p>Choose number of points to send.</font><div class='respPicDiv'><img src='img/responseButtonOffersNo0L.png' class='respPic'></div></div>","1","3","Tyler","8","Shared","0.65,0.2","12","0.65","trustrating_stim/white_00807_941205_fb_edt.bmp","6","46","8",""
"html-keyboard-response","159","297066","0.0-19.0-2.7","63d000d62878aa92b833c5fc","bdp_trlrn","Wed Mar 15 2023 14:17:26 GMT-0700 (PDT)","907070","Untrustworthy,Trustworthy","","null","","","","decisionFB","","<div class='trialDiv'><img src='trustrating_stim/white_00807_941205_fb_edt.bmp'><br><font class='baseline'><strong>Tyler</strong><p>Choose number of points to send.</font><div class='respPicDiv'><img src='img/responseButtonOffersNo0L1.png' class='respPic'></div></div>","null","3","Tyler","8","Shared","0.65,0.2","12","0.65","trustrating_stim/white_00807_941205_fb_edt.bmp","6","45","8",""
"html-keyboard-response","160","298067","0.0-19.0-3.7","63d000d62878aa92b833c5fc","bdp_trlrn","Wed Mar 15 2023 14:17:26 GMT-0700 (PDT)","907070","Untrustworthy,Trustworthy","","null","","","","feedback","","<div class='trialDiv'><img src='trustrating_stim/white_00807_941205_fb_edt.bmp'><br><font class='baseline'><strong>Tyler</strong><p>Received: <strong>4</strong></font> &nbsp; &nbsp; &nbsp; &nbsp; &nbsp; &nbsp;<font class='posOutcome'>Shared back: <strong>2</strong></font></font><div class='respPicDiv'><img src='img/responseButtonOffersNo0_wht.png' class='respPic'></div></div>","null","3","Tyler","8","Shared","0.65,0.2","12","0.65","trustrating_stim/white_00807_941205_fb_edt.bmp","6","47","8",""
"html-keyboard-response","161","299304","0.0-19.0-1.8","63d000d62878aa92b833c5fc","bdp_trlrn","Wed Mar 15 2023 14:17:26 GMT-0700 (PDT)","907070","Untrustworthy,Trustworthy","","1236","","","","decision","","<div class='trialDiv'><img src='trustrating_stim/white_mw049.bmp'><br><font class='baseline'><strong>Sebastian</strong><p>Choose number of points to send.</font><div class='respPicDiv'><img src='img/responseButtonOffersNo0L.png' class='respPic'></div></div>","1","3","Sebastian","6","Kept","0.2,0.65","13","0.2","trustrating_stim/white_mw049.bmp","4.5","52","9",""
"html-keyboard-response","162","299557","0.0-19.0-2.8","63d000d62878aa92b833c5fc","bdp_trlrn","Wed Mar 15 2023 14:17:26 GMT-0700 (PDT)","907070","Untrustworthy,Trustworthy","","null","","","","decisionFB","","<div class='trialDiv'><img src='trustrating_stim/white_mw049.bmp'><br><font class='baseline'><strong>Sebastian</strong><p>Choose number of points to send.</font><div class='respPicDiv'><img src='img/responseButtonOffersNo0L1.png' class='respPic'></div></div>","null","3","Sebastian","6","Kept","0.2,0.65","13","0.2","trustrating_stim/white_mw049.bmp","4.5","51","9",""
"html-keyboard-response","163","300559","0.0-19.0-3.8","63d000d62878aa92b833c5fc","bdp_trlrn","Wed Mar 15 2023 14:17:26 GMT-0700 (PDT)","907070","Untrustworthy,Trustworthy","","null","","","","feedback","","<div class='trialDiv'><img src='trustrating_stim/white_mw049.bmp'><br><font class='baseline'><strong>Sebastian</strong><p>Received: <strong>4</strong></font> &nbsp; &nbsp; &nbsp; &nbsp; &nbsp; &nbsp;<font class='negOutcome'>Shared back: <strong>0</strong></font></font><div class='respPicDiv'><img src='img/responseButtonOffersNo0_wht.png' class='respPic'></div></div>","null","3","Sebastian","6","Kept","0.2,0.65","13","0.2","trustrating_stim/white_mw049.bmp","4.5","51","9",""
"html-keyboard-response","164","301221","0.0-19.0-1.9","63d000d62878aa92b833c5fc","bdp_trlrn","Wed Mar 15 2023 14:17:26 GMT-0700 (PDT)","907070","Untrustworthy,Trustworthy","","661","","","","decision","","<div class='trialDiv'><img src='trustrating_stim/white_00757_941201_fa_edt.bmp'><br><font class='baseline'><strong>Benjamin</strong><p>Choose number of points to send.</font><div class='respPicDiv'><img src='img/responseButtonOffersNo0L.png' class='respPic'></div></div>","5","4","Benjamin","3","Shared","0.8,0.2","13","0.8","trustrating_stim/white_00757_941201_fa_edt.bmp","3","56","10",""
"html-keyboard-response","165","301473","0.0-19.0-2.9","63d000d62878aa92b833c5fc","bdp_trlrn","Wed Mar 15 2023 14:17:26 GMT-0700 (PDT)","907070","Untrustworthy,Trustworthy","","null","","","","decisionFB","","<div class='trialDiv'><img src='trustrating_stim/white_00757_941201_fa_edt.bmp'><br><font class='baseline'><strong>Benjamin</strong><p>Choose number of points to send.</font><div class='respPicDiv'><img src='img/responseButtonOffersNo0L5.png' class='respPic'></div></div>","null","4","Benjamin","3","Shared","0.8,0.2","13","0.8","trustrating_stim/white_00757_941201_fa_edt.bmp","3","51","10",""
"html-keyboard-response","166","302475","0.0-19.0-3.9","63d000d62878aa92b833c5fc","bdp_trlrn","Wed Mar 15 2023 14:17:26 GMT-0700 (PDT)","907070","Untrustworthy,Trustworthy","","null","","","","feedback","","<div class='trialDiv'><img src='trustrating_stim/white_00757_941201_fa_edt.bmp'><br><font class='baseline'><strong>Benjamin</strong><p>Received: <strong>20</strong></font> &nbsp; &nbsp; &nbsp; &nbsp; &nbsp; &nbsp;<font class='posOutcome'>Shared back: <strong>10</strong></font></font><div class='respPicDiv'><img src='img/responseButtonOffersNo0_wht.png' class='respPic'></div></div>","null","4","Benjamin","3","Shared","0.8,0.2","13","0.8","trustrating_stim/white_00757_941201_fa_edt.bmp","3","61","10",""
"html-keyboard-response","167","303381","0.0-19.0-1.10","63d000d62878aa92b833c5fc","bdp_trlrn","Wed Mar 15 2023 14:17:26 GMT-0700 (PDT)","907070","Untrustworthy,Trustworthy","","905","","","","decision","","<div class='trialDiv'><img src='trustrating_stim/white_mw049.bmp'><br><font class='baseline'><strong>Sebastian</strong><p>Choose number of points to send.</font><div class='respPicDiv'><img src='img/responseButtonOffersNo0L.png' class='respPic'></div></div>","1","4","Sebastian","6","Kept","0.2,0.65","13","0.2","trustrating_stim/white_mw049.bmp","4.5","66","11",""
"html-keyboard-response","168","303634","0.0-19.0-2.10","63d000d62878aa92b833c5fc","bdp_trlrn","Wed Mar 15 2023 14:17:26 GMT-0700 (PDT)","907070","Untrustworthy,Trustworthy","","null","","","","decisionFB","","<div class='trialDiv'><img src='trustrating_stim/white_mw049.bmp'><br><font class='baseline'><strong>Sebastian</strong><p>Choose number of points to send.</font><div class='respPicDiv'><img src='img/responseButtonOffersNo0L1.png' class='respPic'></div></div>","null","4","Sebastian","6","Kept","0.2,0.65","13","0.2","trustrating_stim/white_mw049.bmp","4.5","65","11",""
"html-keyboard-response","169","304636","0.0-19.0-3.10","63d000d62878aa92b833c5fc","bdp_trlrn","Wed Mar 15 2023 14:17:26 GMT-0700 (PDT)","907070","Untrustworthy,Trustworthy","","null","","","","feedback","","<div class='trialDiv'><img src='trustrating_stim/white_mw049.bmp'><br><font class='baseline'><strong>Sebastian</strong><p>Received: <strong>4</strong></font> &nbsp; &nbsp; &nbsp; &nbsp; &nbsp; &nbsp;<font class='negOutcome'>Shared back: <strong>0</strong></font></font><div class='respPicDiv'><img src='img/responseButtonOffersNo0_wht.png' class='respPic'></div></div>","null","4","Sebastian","6","Kept","0.2,0.65","13","0.2","trustrating_stim/white_mw049.bmp","4.5","65","11",""
"html-keyboard-response","170","305264","0.0-19.0-1.11","63d000d62878aa92b833c5fc","bdp_trlrn","Wed Mar 15 2023 14:17:26 GMT-0700 (PDT)","907070","Untrustworthy,Trustworthy","","627","","","","decision","","<div class='trialDiv'><img src='trustrating_stim/white_00807_941205_fb_edt.bmp'><br><font class='baseline'><strong>Tyler</strong><p>Choose number of points to send.</font><div class='respPicDiv'><img src='img/responseButtonOffersNo0L.png' class='respPic'></div></div>","1","4","Tyler","8","Shared","0.65,0.2","12","0.65","trustrating_stim/white_00807_941205_fb_edt.bmp","6","70","12",""
"html-keyboard-response","171","305517","0.0-19.0-2.11","63d000d62878aa92b833c5fc","bdp_trlrn","Wed Mar 15 2023 14:17:26 GMT-0700 (PDT)","907070","Untrustworthy,Trustworthy","","null","","","","decisionFB","","<div class='trialDiv'><img src='trustrating_stim/white_00807_941205_fb_edt.bmp'><br><font class='baseline'><strong>Tyler</strong><p>Choose number of points to send.</font><div class='respPicDiv'><img src='img/responseButtonOffersNo0L1.png' class='respPic'></div></div>","null","4","Tyler","8","Shared","0.65,0.2","12","0.65","trustrating_stim/white_00807_941205_fb_edt.bmp","6","69","12",""
"html-keyboard-response","172","306519","0.0-19.0-3.11","63d000d62878aa92b833c5fc","bdp_trlrn","Wed Mar 15 2023 14:17:26 GMT-0700 (PDT)","907070","Untrustworthy,Trustworthy","","null","","","","feedback","","<div class='trialDiv'><img src='trustrating_stim/white_00807_941205_fb_edt.bmp'><br><font class='baseline'><strong>Tyler</strong><p>Received: <strong>4</strong></font> &nbsp; &nbsp; &nbsp; &nbsp; &nbsp; &nbsp;<font class='posOutcome'>Shared back: <strong>2</strong></font></font><div class='respPicDiv'><img src='img/responseButtonOffersNo0_wht.png' class='respPic'></div></div>","null","4","Tyler","8","Shared","0.65,0.2","12","0.65","trustrating_stim/white_00807_941205_fb_edt.bmp","6","71","12",""
"html-keyboard-response","173","307437","0.0-19.0-1.12","63d000d62878aa92b833c5fc","bdp_trlrn","Wed Mar 15 2023 14:17:26 GMT-0700 (PDT)","907070","Untrustworthy,Trustworthy","","917","","","","decision","","<div class='trialDiv'><img src='trustrating_stim/white_00757_941201_fa_edt.bmp'><br><font class='baseline'><strong>Benjamin</strong><p>Choose number of points to send.</font><div class='respPicDiv'><img src='img/responseButtonOffersNo0L.png' class='respPic'></div></div>","5","5","Benjamin","3","Shared","0.8,0.2","13","0.8","trustrating_stim/white_00757_941201_fa_edt.bmp","3","76","13",""
"html-keyboard-response","174","307688","0.0-19.0-2.12","63d000d62878aa92b833c5fc","bdp_trlrn","Wed Mar 15 2023 14:17:26 GMT-0700 (PDT)","907070","Untrustworthy,Trustworthy","","null","","","","decisionFB","","<div class='trialDiv'><img src='trustrating_stim/white_00757_941201_fa_edt.bmp'><br><font class='baseline'><strong>Benjamin</strong><p>Choose number of points to send.</font><div class='respPicDiv'><img src='img/responseButtonOffersNo0L5.png' class='respPic'></div></div>","null","5","Benjamin","3","Shared","0.8,0.2","13","0.8","trustrating_stim/white_00757_941201_fa_edt.bmp","3","71","13",""
"html-keyboard-response","175","308690","0.0-19.0-3.12","63d000d62878aa92b833c5fc","bdp_trlrn","Wed Mar 15 2023 14:17:26 GMT-0700 (PDT)","907070","Untrustworthy,Trustworthy","","null","","","","feedback","","<div class='trialDiv'><img src='trustrating_stim/white_00757_941201_fa_edt.bmp'><br><font class='baseline'><strong>Benjamin</strong><p>Received: <strong>20</strong></font> &nbsp; &nbsp; &nbsp; &nbsp; &nbsp; &nbsp;<font class='posOutcome'>Shared back: <strong>10</strong></font></font><div class='respPicDiv'><img src='img/responseButtonOffersNo0_wht.png' class='respPic'></div></div>","null","5","Benjamin","3","Shared","0.8,0.2","13","0.8","trustrating_stim/white_00757_941201_fa_edt.bmp","3","81","13",""
"html-keyboard-response","176","309237","0.0-19.0-1.13","63d000d62878aa92b833c5fc","bdp_trlrn","Wed Mar 15 2023 14:17:26 GMT-0700 (PDT)","907070","Untrustworthy,Trustworthy","","546","","","","decision","","<div class='trialDiv'><img src='trustrating_stim/white_mw049.bmp'><br><font class='baseline'><strong>Sebastian</strong><p>Choose number of points to send.</font><div class='respPicDiv'><img src='img/responseButtonOffersNo0L.png' class='respPic'></div></div>","1","5","Sebastian","6","Kept","0.2,0.65","13","0.2","trustrating_stim/white_mw049.bmp","4.5","86","14",""
"html-keyboard-response","177","309490","0.0-19.0-2.13","63d000d62878aa92b833c5fc","bdp_trlrn","Wed Mar 15 2023 14:17:26 GMT-0700 (PDT)","907070","Untrustworthy,Trustworthy","","null","","","","decisionFB","","<div class='trialDiv'><img src='trustrating_stim/white_mw049.bmp'><br><font class='baseline'><strong>Sebastian</strong><p>Choose number of points to send.</font><div class='respPicDiv'><img src='img/responseButtonOffersNo0L1.png' class='respPic'></div></div>","null","5","Sebastian","6","Kept","0.2,0.65","13","0.2","trustrating_stim/white_mw049.bmp","4.5","85","14",""
"html-keyboard-response","178","310492","0.0-19.0-3.13","63d000d62878aa92b833c5fc","bdp_trlrn","Wed Mar 15 2023 14:17:26 GMT-0700 (PDT)","907070","Untrustworthy,Trustworthy","","null","","","","feedback","","<div class='trialDiv'><img src='trustrating_stim/white_mw049.bmp'><br><font class='baseline'><strong>Sebastian</strong><p>Received: <strong>4</strong></font> &nbsp; &nbsp; &nbsp; &nbsp; &nbsp; &nbsp;<font class='negOutcome'>Shared back: <strong>0</strong></font></font><div class='respPicDiv'><img src='img/responseButtonOffersNo0_wht.png' class='respPic'></div></div>","null","5","Sebastian","6","Kept","0.2,0.65","13","0.2","trustrating_stim/white_mw049.bmp","4.5","85","14",""
"html-keyboard-response","179","311645","0.0-19.0-1.14","63d000d62878aa92b833c5fc","bdp_trlrn","Wed Mar 15 2023 14:17:26 GMT-0700 (PDT)","907070","Untrustworthy,Trustworthy","","1152","","","","decision","","<div class='trialDiv'><img src='trustrating_stim/white_00807_941205_fb_edt.bmp'><br><font class='baseline'><strong>Tyler</strong><p>Choose number of points to send.</font><div class='respPicDiv'><img src='img/responseButtonOffersNo0L.png' class='respPic'></div></div>","2","5","Tyler","8","Kept","0.65,0.2","12","0.65","trustrating_stim/white_00807_941205_fb_edt.bmp","6","90","15",""
"html-keyboard-response","180","311898","0.0-19.0-2.14","63d000d62878aa92b833c5fc","bdp_trlrn","Wed Mar 15 2023 14:17:26 GMT-0700 (PDT)","907070","Untrustworthy,Trustworthy","","null","","","","decisionFB","","<div class='trialDiv'><img src='trustrating_stim/white_00807_941205_fb_edt.bmp'><br><font class='baseline'><strong>Tyler</strong><p>Choose number of points to send.</font><div class='respPicDiv'><img src='img/responseButtonOffersNo0L2.png' class='respPic'></div></div>","null","5","Tyler","8","Kept","0.65,0.2","12","0.65","trustrating_stim/white_00807_941205_fb_edt.bmp","6","88","15",""
"html-keyboard-response","181","312900","0.0-19.0-3.14","63d000d62878aa92b833c5fc","bdp_trlrn","Wed Mar 15 2023 14:17:26 GMT-0700 (PDT)","907070","Untrustworthy,Trustworthy","","null","","","","feedback","","<div class='trialDiv'><img src='trustrating_stim/white_00807_941205_fb_edt.bmp'><br><font class='baseline'><strong>Tyler</strong><p>Received: <strong>8</strong></font> &nbsp; &nbsp; &nbsp; &nbsp; &nbsp; &nbsp;<font class='negOutcome'>Shared back: <strong>0</strong></font></font><div class='respPicDiv'><img src='img/responseButtonOffersNo0_wht.png' class='respPic'></div></div>","null","5","Tyler","8","Kept","0.65,0.2","12","0.65","trustrating_stim/white_00807_941205_fb_edt.bmp","6","88","15",""
"html-keyboard-response","182","313837","0.0-19.0-1.15","63d000d62878aa92b833c5fc","bdp_trlrn","Wed Mar 15 2023 14:17:26 GMT-0700 (PDT)","907070","Untrustworthy,Trustworthy","","936","","","","decision","","<div class='trialDiv'><img src='trustrating_stim/white_00757_941201_fa_edt.bmp'><br><font class='baseline'><strong>Benjamin</strong><p>Choose number of points to send.</font><div class='respPicDiv'><img src='img/responseButtonOffersNo0L.png' class='respPic'></div></div>","5","6","Benjamin","3","Shared","0.8,0.2","13","0.8","trustrating_stim/white_00757_941201_fa_edt.bmp","3","93","16",""
"html-keyboard-response","183","314090","0.0-19.0-2.15","63d000d62878aa92b833c5fc","bdp_trlrn","Wed Mar 15 2023 14:17:26 GMT-0700 (PDT)","907070","Untrustworthy,Trustworthy","","null","","","","decisionFB","","<div class='trialDiv'><img src='trustrating_stim/white_00757_941201_fa_edt.bmp'><br><font class='baseline'><strong>Benjamin</strong><p>Choose number of points to send.</font><div class='respPicDiv'><img src='img/responseButtonOffersNo0L5.png' class='respPic'></div></div>","null","6","Benjamin","3","Shared","0.8,0.2","13","0.8","trustrating_stim/white_00757_941201_fa_edt.bmp","3","88","16",""
"html-keyboard-response","184","315092","0.0-19.0-3.15","63d000d62878aa92b833c5fc","bdp_trlrn","Wed Mar 15 2023 14:17:26 GMT-0700 (PDT)","907070","Untrustworthy,Trustworthy","","null","","","","feedback","","<div class='trialDiv'><img src='trustrating_stim/white_00757_941201_fa_edt.bmp'><br><font class='baseline'><strong>Benjamin</strong><p>Received: <strong>20</strong></font> &nbsp; &nbsp; &nbsp; &nbsp; &nbsp; &nbsp;<font class='posOutcome'>Shared back: <strong>10</strong></font></font><div class='respPicDiv'><img src='img/responseButtonOffersNo0_wht.png' class='respPic'></div></div>","null","6","Benjamin","3","Shared","0.8,0.2","13","0.8","trustrating_stim/white_00757_941201_fa_edt.bmp","3","98","16",""
"html-keyboard-response","185","315821","0.0-19.0-1.16","63d000d62878aa92b833c5fc","bdp_trlrn","Wed Mar 15 2023 14:17:26 GMT-0700 (PDT)","907070","Untrustworthy,Trustworthy","","728","","","","decision","","<div class='trialDiv'><img src='trustrating_stim/white_mw049.bmp'><br><font class='baseline'><strong>Sebastian</strong><p>Choose number of points to send.</font><div class='respPicDiv'><img src='img/responseButtonOffersNo0L.png' class='respPic'></div></div>","1","6","Sebastian","6","Kept","0.2,0.65","13","0.2","trustrating_stim/white_mw049.bmp","4.5","103","17",""
"html-keyboard-response","186","316074","0.0-19.0-2.16","63d000d62878aa92b833c5fc","bdp_trlrn","Wed Mar 15 2023 14:17:26 GMT-0700 (PDT)","907070","Untrustworthy,Trustworthy","","null","","","","decisionFB","","<div class='trialDiv'><img src='trustrating_stim/white_mw049.bmp'><br><font class='baseline'><strong>Sebastian</strong><p>Choose number of points to send.</font><div class='respPicDiv'><img src='img/responseButtonOffersNo0L1.png' class='respPic'></div></div>","null","6","Sebastian","6","Kept","0.2,0.65","13","0.2","trustrating_stim/white_mw049.bmp","4.5","102","17",""
"html-keyboard-response","187","317076","0.0-19.0-3.16","63d000d62878aa92b833c5fc","bdp_trlrn","Wed Mar 15 2023 14:17:26 GMT-0700 (PDT)","907070","Untrustworthy,Trustworthy","","null","","","","feedback","","<div class='trialDiv'><img src='trustrating_stim/white_mw049.bmp'><br><font class='baseline'><strong>Sebastian</strong><p>Received: <strong>4</strong></font> &nbsp; &nbsp; &nbsp; &nbsp; &nbsp; &nbsp;<font class='negOutcome'>Shared back: <strong>0</strong></font></font><div class='respPicDiv'><img src='img/responseButtonOffersNo0_wht.png' class='respPic'></div></div>","null","6","Sebastian","6","Kept","0.2,0.65","13","0.2","trustrating_stim/white_mw049.bmp","4.5","102","17",""
"html-keyboard-response","188","317624","0.0-19.0-1.17","63d000d62878aa92b833c5fc","bdp_trlrn","Wed Mar 15 2023 14:17:26 GMT-0700 (PDT)","907070","Untrustworthy,Trustworthy","","547","","","","decision","","<div class='trialDiv'><img src='trustrating_stim/white_00807_941205_fb_edt.bmp'><br><font class='baseline'><strong>Tyler</strong><p>Choose number of points to send.</font><div class='respPicDiv'><img src='img/responseButtonOffersNo0L.png' class='respPic'></div></div>","1","6","Tyler","8","Shared","0.65,0.2","12","0.65","trustrating_stim/white_00807_941205_fb_edt.bmp","6","107","18",""
"html-keyboard-response","189","317877","0.0-19.0-2.17","63d000d62878aa92b833c5fc","bdp_trlrn","Wed Mar 15 2023 14:17:26 GMT-0700 (PDT)","907070","Untrustworthy,Trustworthy","","null","","","","decisionFB","","<div class='trialDiv'><img src='trustrating_stim/white_00807_941205_fb_edt.bmp'><br><font class='baseline'><strong>Tyler</strong><p>Choose number of points to send.</font><div class='respPicDiv'><img src='img/responseButtonOffersNo0L1.png' class='respPic'></div></div>","null","6","Tyler","8","Shared","0.65,0.2","12","0.65","trustrating_stim/white_00807_941205_fb_edt.bmp","6","106","18",""
"html-keyboard-response","190","318879","0.0-19.0-3.17","63d000d62878aa92b833c5fc","bdp_trlrn","Wed Mar 15 2023 14:17:26 GMT-0700 (PDT)","907070","Untrustworthy,Trustworthy","","null","","","","feedback","","<div class='trialDiv'><img src='trustrating_stim/white_00807_941205_fb_edt.bmp'><br><font class='baseline'><strong>Tyler</strong><p>Received: <strong>4</strong></font> &nbsp; &nbsp; &nbsp; &nbsp; &nbsp; &nbsp;<font class='posOutcome'>Shared back: <strong>2</strong></font></font><div class='respPicDiv'><img src='img/responseButtonOffersNo0_wht.png' class='respPic'></div></div>","null","6","Tyler","8","Shared","0.65,0.2","12","0.65","trustrating_stim/white_00807_941205_fb_edt.bmp","6","108","18",""
"html-keyboard-response","191","319229","0.0-19.0-1.18","63d000d62878aa92b833c5fc","bdp_trlrn","Wed Mar 15 2023 14:17:26 GMT-0700 (PDT)","907070","Untrustworthy,Trustworthy","","349","","","","decision","","<div class='trialDiv'><img src='trustrating_stim/white_mw049.bmp'><br><font class='baseline'><strong>Sebastian</strong><p>Choose number of points to send.</font><div class='respPicDiv'><img src='img/responseButtonOffersNo0L.png' class='respPic'></div></div>","5","7","Sebastian","6","Kept","0.2,0.65","13","0.2","trustrating_stim/white_mw049.bmp","4.5","113","19",""
"html-keyboard-response","192","319481","0.0-19.0-2.18","63d000d62878aa92b833c5fc","bdp_trlrn","Wed Mar 15 2023 14:17:26 GMT-0700 (PDT)","907070","Untrustworthy,Trustworthy","","null","","","","decisionFB","","<div class='trialDiv'><img src='trustrating_stim/white_mw049.bmp'><br><font class='baseline'><strong>Sebastian</strong><p>Choose number of points to send.</font><div class='respPicDiv'><img src='img/responseButtonOffersNo0L5.png' class='respPic'></div></div>","null","7","Sebastian","6","Kept","0.2,0.65","13","0.2","trustrating_stim/white_mw049.bmp","4.5","108","19",""
"html-keyboard-response","193","320484","0.0-19.0-3.18","63d000d62878aa92b833c5fc","bdp_trlrn","Wed Mar 15 2023 14:17:26 GMT-0700 (PDT)","907070","Untrustworthy,Trustworthy","","null","","","","feedback","","<div class='trialDiv'><img src='trustrating_stim/white_mw049.bmp'><br><font class='baseline'><strong>Sebastian</strong><p>Received: <strong>20</strong></font> &nbsp; &nbsp; &nbsp; &nbsp; &nbsp; &nbsp;<font class='negOutcome'>Shared back: <strong>0</strong></font></font><div class='respPicDiv'><img src='img/responseButtonOffersNo0_wht.png' class='respPic'></div></div>","null","7","Sebastian","6","Kept","0.2,0.65","13","0.2","trustrating_stim/white_mw049.bmp","4.5","108","19",""
"html-keyboard-response","194","321309","0.0-19.0-1.19","63d000d62878aa92b833c5fc","bdp_trlrn","Wed Mar 15 2023 14:17:26 GMT-0700 (PDT)","907070","Untrustworthy,Trustworthy","","824","","","","decision","","<div class='trialDiv'><img src='trustrating_stim/white_00807_941205_fb_edt.bmp'><br><font class='baseline'><strong>Tyler</strong><p>Choose number of points to send.</font><div class='respPicDiv'><img src='img/responseButtonOffersNo0L.png' class='respPic'></div></div>","1","7","Tyler","8","Shared","0.65,0.2","12","0.65","trustrating_stim/white_00807_941205_fb_edt.bmp","6","113","20",""
"html-keyboard-response","195","321561","0.0-19.0-2.19","63d000d62878aa92b833c5fc","bdp_trlrn","Wed Mar 15 2023 14:17:26 GMT-0700 (PDT)","907070","Untrustworthy,Trustworthy","","null","","","","decisionFB","","<div class='trialDiv'><img src='trustrating_stim/white_00807_941205_fb_edt.bmp'><br><font class='baseline'><strong>Tyler</strong><p>Choose number of points to send.</font><div class='respPicDiv'><img src='img/responseButtonOffersNo0L1.png' class='respPic'></div></div>","null","7","Tyler","8","Shared","0.65,0.2","12","0.65","trustrating_stim/white_00807_941205_fb_edt.bmp","6","112","20",""
"html-keyboard-response","196","322563","0.0-19.0-3.19","63d000d62878aa92b833c5fc","bdp_trlrn","Wed Mar 15 2023 14:17:26 GMT-0700 (PDT)","907070","Untrustworthy,Trustworthy","","null","","","","feedback","","<div class='trialDiv'><img src='trustrating_stim/white_00807_941205_fb_edt.bmp'><br><font class='baseline'><strong>Tyler</strong><p>Received: <strong>4</strong></font> &nbsp; &nbsp; &nbsp; &nbsp; &nbsp; &nbsp;<font class='posOutcome'>Shared back: <strong>2</strong></font></font><div class='respPicDiv'><img src='img/responseButtonOffersNo0_wht.png' class='respPic'></div></div>","null","7","Tyler","8","Shared","0.65,0.2","12","0.65","trustrating_stim/white_00807_941205_fb_edt.bmp","6","114","20",""
"html-keyboard-response","197","323173","0.0-19.0-1.20","63d000d62878aa92b833c5fc","bdp_trlrn","Wed Mar 15 2023 14:17:26 GMT-0700 (PDT)","907070","Untrustworthy,Trustworthy","","609","","","","decision","","<div class='trialDiv'><img src='trustrating_stim/white_00757_941201_fa_edt.bmp'><br><font class='baseline'><strong>Benjamin</strong><p>Choose number of points to send.</font><div class='respPicDiv'><img src='img/responseButtonOffersNo0L.png' class='respPic'></div></div>","5","7","Benjamin","3","Shared","0.8,0.2","13","0.8","trustrating_stim/white_00757_941201_fa_edt.bmp","3","119","21",""
"html-keyboard-response","198","323425","0.0-19.0-2.20","63d000d62878aa92b833c5fc","bdp_trlrn","Wed Mar 15 2023 14:17:26 GMT-0700 (PDT)","907070","Untrustworthy,Trustworthy","","null","","","","decisionFB","","<div class='trialDiv'><img src='trustrating_stim/white_00757_941201_fa_edt.bmp'><br><font class='baseline'><strong>Benjamin</strong><p>Choose number of points to send.</font><div class='respPicDiv'><img src='img/responseButtonOffersNo0L5.png' class='respPic'></div></div>","null","7","Benjamin","3","Shared","0.8,0.2","13","0.8","trustrating_stim/white_00757_941201_fa_edt.bmp","3","114","21",""
"html-keyboard-response","199","324428","0.0-19.0-3.20","63d000d62878aa92b833c5fc","bdp_trlrn","Wed Mar 15 2023 14:17:26 GMT-0700 (PDT)","907070","Untrustworthy,Trustworthy","","null","","","","feedback","","<div class='trialDiv'><img src='trustrating_stim/white_00757_941201_fa_edt.bmp'><br><font class='baseline'><strong>Benjamin</strong><p>Received: <strong>20</strong></font> &nbsp; &nbsp; &nbsp; &nbsp; &nbsp; &nbsp;<font class='posOutcome'>Shared back: <strong>10</strong></font></font><div class='respPicDiv'><img src='img/responseButtonOffersNo0_wht.png' class='respPic'></div></div>","null","7","Benjamin","3","Shared","0.8,0.2","13","0.8","trustrating_stim/white_00757_941201_fa_edt.bmp","3","124","21",""
"html-keyboard-response","200","325397","0.0-19.0-1.21","63d000d62878aa92b833c5fc","bdp_trlrn","Wed Mar 15 2023 14:17:26 GMT-0700 (PDT)","907070","Untrustworthy,Trustworthy","","969","","","","decision","","<div class='trialDiv'><img src='trustrating_stim/white_mw049.bmp'><br><font class='baseline'><strong>Sebastian</strong><p>Choose number of points to send.</font><div class='respPicDiv'><img src='img/responseButtonOffersNo0L.png' class='respPic'></div></div>","1","8","Sebastian","6","Shared","0.2,0.65","13","0.2","trustrating_stim/white_mw049.bmp","4.5","129","22",""
"html-keyboard-response","201","325649","0.0-19.0-2.21","63d000d62878aa92b833c5fc","bdp_trlrn","Wed Mar 15 2023 14:17:26 GMT-0700 (PDT)","907070","Untrustworthy,Trustworthy","","null","","","","decisionFB","","<div class='trialDiv'><img src='trustrating_stim/white_mw049.bmp'><br><font class='baseline'><strong>Sebastian</strong><p>Choose number of points to send.</font><div class='respPicDiv'><img src='img/responseButtonOffersNo0L1.png' class='respPic'></div></div>","null","8","Sebastian","6","Shared","0.2,0.65","13","0.2","trustrating_stim/white_mw049.bmp","4.5","128","22",""
"html-keyboard-response","202","326651","0.0-19.0-3.21","63d000d62878aa92b833c5fc","bdp_trlrn","Wed Mar 15 2023 14:17:26 GMT-0700 (PDT)","907070","Untrustworthy,Trustworthy","","null","","","","feedback","","<div class='trialDiv'><img src='trustrating_stim/white_mw049.bmp'><br><font class='baseline'><strong>Sebastian</strong><p>Received: <strong>4</strong></font> &nbsp; &nbsp; &nbsp; &nbsp; &nbsp; &nbsp;<font class='posOutcome'>Shared back: <strong>2</strong></font></font><div class='respPicDiv'><img src='img/responseButtonOffersNo0_wht.png' class='respPic'></div></div>","null","8","Sebastian","6","Shared","0.2,0.65","13","0.2","trustrating_stim/white_mw049.bmp","4.5","130","22",""
"html-keyboard-response","203","327477","0.0-19.0-1.22","63d000d62878aa92b833c5fc","bdp_trlrn","Wed Mar 15 2023 14:17:26 GMT-0700 (PDT)","907070","Untrustworthy,Trustworthy","","825","","","","decision","","<div class='trialDiv'><img src='trustrating_stim/white_00757_941201_fa_edt.bmp'><br><font class='baseline'><strong>Benjamin</strong><p>Choose number of points to send.</font><div class='respPicDiv'><img src='img/responseButtonOffersNo0L.png' class='respPic'></div></div>","5","8","Benjamin","3","Shared","0.8,0.2","13","0.8","trustrating_stim/white_00757_941201_fa_edt.bmp","3","135","23",""
"html-keyboard-response","204","327730","0.0-19.0-2.22","63d000d62878aa92b833c5fc","bdp_trlrn","Wed Mar 15 2023 14:17:26 GMT-0700 (PDT)","907070","Untrustworthy,Trustworthy","","null","","","","decisionFB","","<div class='trialDiv'><img src='trustrating_stim/white_00757_941201_fa_edt.bmp'><br><font class='baseline'><strong>Benjamin</strong><p>Choose number of points to send.</font><div class='respPicDiv'><img src='img/responseButtonOffersNo0L5.png' class='respPic'></div></div>","null","8","Benjamin","3","Shared","0.8,0.2","13","0.8","trustrating_stim/white_00757_941201_fa_edt.bmp","3","130","23",""
"html-keyboard-response","205","328732","0.0-19.0-3.22","63d000d62878aa92b833c5fc","bdp_trlrn","Wed Mar 15 2023 14:17:26 GMT-0700 (PDT)","907070","Untrustworthy,Trustworthy","","null","","","","feedback","","<div class='trialDiv'><img src='trustrating_stim/white_00757_941201_fa_edt.bmp'><br><font class='baseline'><strong>Benjamin</strong><p>Received: <strong>20</strong></font> &nbsp; &nbsp; &nbsp; &nbsp; &nbsp; &nbsp;<font class='posOutcome'>Shared back: <strong>10</strong></font></font><div class='respPicDiv'><img src='img/responseButtonOffersNo0_wht.png' class='respPic'></div></div>","null","8","Benjamin","3","Shared","0.8,0.2","13","0.8","trustrating_stim/white_00757_941201_fa_edt.bmp","3","140","23",""
"html-keyboard-response","206","329749","0.0-19.0-1.23","63d000d62878aa92b833c5fc","bdp_trlrn","Wed Mar 15 2023 14:17:26 GMT-0700 (PDT)","907070","Untrustworthy,Trustworthy","","1015","","","","decision","","<div class='trialDiv'><img src='trustrating_stim/white_00807_941205_fb_edt.bmp'><br><font class='baseline'><strong>Tyler</strong><p>Choose number of points to send.</font><div class='respPicDiv'><img src='img/responseButtonOffersNo0L.png' class='respPic'></div></div>","1","8","Tyler","8","Kept","0.65,0.2","12","0.65","trustrating_stim/white_00807_941205_fb_edt.bmp","6","145","24",""
"html-keyboard-response","207","330001","0.0-19.0-2.23","63d000d62878aa92b833c5fc","bdp_trlrn","Wed Mar 15 2023 14:17:26 GMT-0700 (PDT)","907070","Untrustworthy,Trustworthy","","null","","","","decisionFB","","<div class='trialDiv'><img src='trustrating_stim/white_00807_941205_fb_edt.bmp'><br><font class='baseline'><strong>Tyler</strong><p>Choose number of points to send.</font><div class='respPicDiv'><img src='img/responseButtonOffersNo0L1.png' class='respPic'></div></div>","null","8","Tyler","8","Kept","0.65,0.2","12","0.65","trustrating_stim/white_00807_941205_fb_edt.bmp","6","144","24",""
"html-keyboard-response","208","331003","0.0-19.0-3.23","63d000d62878aa92b833c5fc","bdp_trlrn","Wed Mar 15 2023 14:17:26 GMT-0700 (PDT)","907070","Untrustworthy,Trustworthy","","null","","","","feedback","","<div class='trialDiv'><img src='trustrating_stim/white_00807_941205_fb_edt.bmp'><br><font class='baseline'><strong>Tyler</strong><p>Received: <strong>4</strong></font> &nbsp; &nbsp; &nbsp; &nbsp; &nbsp; &nbsp;<font class='negOutcome'>Shared back: <strong>0</strong></font></font><div class='respPicDiv'><img src='img/responseButtonOffersNo0_wht.png' class='respPic'></div></div>","null","8","Tyler","8","Kept","0.65,0.2","12","0.65","trustrating_stim/white_00807_941205_fb_edt.bmp","6","144","24",""
"html-keyboard-response","209","331621","0.0-19.0-1.24","63d000d62878aa92b833c5fc","bdp_trlrn","Wed Mar 15 2023 14:17:26 GMT-0700 (PDT)","907070","Untrustworthy,Trustworthy","","616","","","","decision","","<div class='trialDiv'><img src='trustrating_stim/white_00757_941201_fa_edt.bmp'><br><font class='baseline'><strong>Benjamin</strong><p>Choose number of points to send.</font><div class='respPicDiv'><img src='img/responseButtonOffersNo0L.png' class='respPic'></div></div>","5","9","Benjamin","3","Shared","0.8,0.2","13","0.8","trustrating_stim/white_00757_941201_fa_edt.bmp","3","149","25",""
"html-keyboard-response","210","331873","0.0-19.0-2.24","63d000d62878aa92b833c5fc","bdp_trlrn","Wed Mar 15 2023 14:17:26 GMT-0700 (PDT)","907070","Untrustworthy,Trustworthy","","null","","","","decisionFB","","<div class='trialDiv'><img src='trustrating_stim/white_00757_941201_fa_edt.bmp'><br><font class='baseline'><strong>Benjamin</strong><p>Choose number of points to send.</font><div class='respPicDiv'><img src='img/responseButtonOffersNo0L5.png' class='respPic'></div></div>","null","9","Benjamin","3","Shared","0.8,0.2","13","0.8","trustrating_stim/white_00757_941201_fa_edt.bmp","3","144","25",""
"html-keyboard-response","211","332876","0.0-19.0-3.24","63d000d62878aa92b833c5fc","bdp_trlrn","Wed Mar 15 2023 14:17:26 GMT-0700 (PDT)","907070","Untrustworthy,Trustworthy","","null","","","","feedback","","<div class='trialDiv'><img src='trustrating_stim/white_00757_941201_fa_edt.bmp'><br><font class='baseline'><strong>Benjamin</strong><p>Received: <strong>20</strong></font> &nbsp; &nbsp; &nbsp; &nbsp; &nbsp; &nbsp;<font class='posOutcome'>Shared back: <strong>10</strong></font></font><div class='respPicDiv'><img src='img/responseButtonOffersNo0_wht.png' class='respPic'></div></div>","null","9","Benjamin","3","Shared","0.8,0.2","13","0.8","trustrating_stim/white_00757_941201_fa_edt.bmp","3","154","25",""
"html-keyboard-response","212","333501","0.0-19.0-1.25","63d000d62878aa92b833c5fc","bdp_trlrn","Wed Mar 15 2023 14:17:26 GMT-0700 (PDT)","907070","Untrustworthy,Trustworthy","","625","","","","decision","","<div class='trialDiv'><img src='trustrating_stim/white_00807_941205_fb_edt.bmp'><br><font class='baseline'><strong>Tyler</strong><p>Choose number of points to send.</font><div class='respPicDiv'><img src='img/responseButtonOffersNo0L.png' class='respPic'></div></div>","1","9","Tyler","8","Kept","0.65,0.2","12","0.65","trustrating_stim/white_00807_941205_fb_edt.bmp","6","159","26",""
"html-keyboard-response","213","333753","0.0-19.0-2.25","63d000d62878aa92b833c5fc","bdp_trlrn","Wed Mar 15 2023 14:17:26 GMT-0700 (PDT)","907070","Untrustworthy,Trustworthy","","null","","","","decisionFB","","<div class='trialDiv'><img src='trustrating_stim/white_00807_941205_fb_edt.bmp'><br><font class='baseline'><strong>Tyler</strong><p>Choose number of points to send.</font><div class='respPicDiv'><img src='img/responseButtonOffersNo0L1.png' class='respPic'></div></div>","null","9","Tyler","8","Kept","0.65,0.2","12","0.65","trustrating_stim/white_00807_941205_fb_edt.bmp","6","158","26",""
"html-keyboard-response","214","334756","0.0-19.0-3.25","63d000d62878aa92b833c5fc","bdp_trlrn","Wed Mar 15 2023 14:17:26 GMT-0700 (PDT)","907070","Untrustworthy,Trustworthy","","null","","","","feedback","","<div class='trialDiv'><img src='trustrating_stim/white_00807_941205_fb_edt.bmp'><br><font class='baseline'><strong>Tyler</strong><p>Received: <strong>4</strong></font> &nbsp; &nbsp; &nbsp; &nbsp; &nbsp; &nbsp;<font class='negOutcome'>Shared back: <strong>0</strong></font></font><div class='respPicDiv'><img src='img/responseButtonOffersNo0_wht.png' class='respPic'></div></div>","null","9","Tyler","8","Kept","0.65,0.2","12","0.65","trustrating_stim/white_00807_941205_fb_edt.bmp","6","158","26",""
"html-keyboard-response","215","335173","0.0-19.0-1.26","63d000d62878aa92b833c5fc","bdp_trlrn","Wed Mar 15 2023 14:17:26 GMT-0700 (PDT)","907070","Untrustworthy,Trustworthy","","415","","","","decision","","<div class='trialDiv'><img src='trustrating_stim/white_mw049.bmp'><br><font class='baseline'><strong>Sebastian</strong><p>Choose number of points to send.</font><div class='respPicDiv'><img src='img/responseButtonOffersNo0L.png' class='respPic'></div></div>","5","9","Sebastian","6","Kept","0.2,0.65","13","0.2","trustrating_stim/white_mw049.bmp","4.5","163","27",""
"html-keyboard-response","216","335425","0.0-19.0-2.26","63d000d62878aa92b833c5fc","bdp_trlrn","Wed Mar 15 2023 14:17:26 GMT-0700 (PDT)","907070","Untrustworthy,Trustworthy","","null","","","","decisionFB","","<div class='trialDiv'><img src='trustrating_stim/white_mw049.bmp'><br><font class='baseline'><strong>Sebastian</strong><p>Choose number of points to send.</font><div class='respPicDiv'><img src='img/responseButtonOffersNo0L5.png' class='respPic'></div></div>","null","9","Sebastian","6","Kept","0.2,0.65","13","0.2","trustrating_stim/white_mw049.bmp","4.5","158","27",""
"html-keyboard-response","217","336428","0.0-19.0-3.26","63d000d62878aa92b833c5fc","bdp_trlrn","Wed Mar 15 2023 14:17:26 GMT-0700 (PDT)","907070","Untrustworthy,Trustworthy","","null","","","","feedback","","<div class='trialDiv'><img src='trustrating_stim/white_mw049.bmp'><br><font class='baseline'><strong>Sebastian</strong><p>Received: <strong>20</strong></font> &nbsp; &nbsp; &nbsp; &nbsp; &nbsp; &nbsp;<font class='negOutcome'>Shared back: <strong>0</strong></font></font><div class='respPicDiv'><img src='img/responseButtonOffersNo0_wht.png' class='respPic'></div></div>","null","9","Sebastian","6","Kept","0.2,0.65","13","0.2","trustrating_stim/white_mw049.bmp","4.5","158","27",""
"html-keyboard-response","218","336808","0.0-19.0-1.27","63d000d62878aa92b833c5fc","bdp_trlrn","Wed Mar 15 2023 14:17:26 GMT-0700 (PDT)","907070","Untrustworthy,Trustworthy","","379","","","","decision","","<div class='trialDiv'><img src='trustrating_stim/white_00807_941205_fb_edt.bmp'><br><font class='baseline'><strong>Tyler</strong><p>Choose number of points to send.</font><div class='respPicDiv'><img src='img/responseButtonOffersNo0L.png' class='respPic'></div></div>","5","10","Tyler","8","Shared","0.65,0.2","12","0.65","trustrating_stim/white_00807_941205_fb_edt.bmp","6","163","28",""
"html-keyboard-response","219","337060","0.0-19.0-2.27","63d000d62878aa92b833c5fc","bdp_trlrn","Wed Mar 15 2023 14:17:26 GMT-0700 (PDT)","907070","Untrustworthy,Trustworthy","","null","","","","decisionFB","","<div class='trialDiv'><img src='trustrating_stim/white_00807_941205_fb_edt.bmp'><br><font class='baseline'><strong>Tyler</strong><p>Choose number of points to send.</font><div class='respPicDiv'><img src='img/responseButtonOffersNo0L5.png' class='respPic'></div></div>","null","10","Tyler","8","Shared","0.65,0.2","12","0.65","trustrating_stim/white_00807_941205_fb_edt.bmp","6","158","28",""
"html-keyboard-response","220","338062","0.0-19.0-3.27","63d000d62878aa92b833c5fc","bdp_trlrn","Wed Mar 15 2023 14:17:26 GMT-0700 (PDT)","907070","Untrustworthy,Trustworthy","","null","","","","feedback","","<div class='trialDiv'><img src='trustrating_stim/white_00807_941205_fb_edt.bmp'><br><font class='baseline'><strong>Tyler</strong><p>Received: <strong>20</strong></font> &nbsp; &nbsp; &nbsp; &nbsp; &nbsp; &nbsp;<font class='posOutcome'>Shared back: <strong>10</strong></font></font><div class='respPicDiv'><img src='img/responseButtonOffersNo0_wht.png' class='respPic'></div></div>","null","10","Tyler","8","Shared","0.65,0.2","12","0.65","trustrating_stim/white_00807_941205_fb_edt.bmp","6","168","28",""
"html-keyboard-response","221","338469","0.0-19.0-1.28","63d000d62878aa92b833c5fc","bdp_trlrn","Wed Mar 15 2023 14:17:26 GMT-0700 (PDT)","907070","Untrustworthy,Trustworthy","","405","","","","decision","","<div class='trialDiv'><img src='trustrating_stim/white_00757_941201_fa_edt.bmp'><br><font class='baseline'><strong>Benjamin</strong><p>Choose number of points to send.</font><div class='respPicDiv'><img src='img/responseButtonOffersNo0L.png' class='respPic'></div></div>","5","10","Benjamin","3","Shared","0.8,0.2","13","0.8","trustrating_stim/white_00757_941201_fa_edt.bmp","3","173","29",""
"html-keyboard-response","222","338720","0.0-19.0-2.28","63d000d62878aa92b833c5fc","bdp_trlrn","Wed Mar 15 2023 14:17:26 GMT-0700 (PDT)","907070","Untrustworthy,Trustworthy","","null","","","","decisionFB","","<div class='trialDiv'><img src='trustrating_stim/white_00757_941201_fa_edt.bmp'><br><font class='baseline'><strong>Benjamin</strong><p>Choose number of points to send.</font><div class='respPicDiv'><img src='img/responseButtonOffersNo0L5.png' class='respPic'></div></div>","null","10","Benjamin","3","Shared","0.8,0.2","13","0.8","trustrating_stim/white_00757_941201_fa_edt.bmp","3","168","29",""
"html-keyboard-response","223","339723","0.0-19.0-3.28","63d000d62878aa92b833c5fc","bdp_trlrn","Wed Mar 15 2023 14:17:26 GMT-0700 (PDT)","907070","Untrustworthy,Trustworthy","","null","","","","feedback","","<div class='trialDiv'><img src='trustrating_stim/white_00757_941201_fa_edt.bmp'><br><font class='baseline'><strong>Benjamin</strong><p>Received: <strong>20</strong></font> &nbsp; &nbsp; &nbsp; &nbsp; &nbsp; &nbsp;<font class='posOutcome'>Shared back: <strong>10</strong></font></font><div class='respPicDiv'><img src='img/responseButtonOffersNo0_wht.png' class='respPic'></div></div>","null","10","Benjamin","3","Shared","0.8,0.2","13","0.8","trustrating_stim/white_00757_941201_fa_edt.bmp","3","178","29",""
"html-keyboard-response","224","340365","0.0-19.0-1.29","63d000d62878aa92b833c5fc","bdp_trlrn","Wed Mar 15 2023 14:17:26 GMT-0700 (PDT)","907070","Untrustworthy,Trustworthy","","642","","","","decision","","<div class='trialDiv'><img src='trustrating_stim/white_mw049.bmp'><br><font class='baseline'><strong>Sebastian</strong><p>Choose number of points to send.</font><div class='respPicDiv'><img src='img/responseButtonOffersNo0L.png' class='respPic'></div></div>","1","10","Sebastian","6","Kept","0.2,0.65","13","0.2","trustrating_stim/white_mw049.bmp","4.5","183","30",""
