"trial_type","trial_index","time_elapsed","internal_node_id","subject_id","task","startTime","totalTime","labels","view_history","rt","event","trial","time","trialtype","success","stimulus","key_press","aground","name","faceID","outcome","agenttype","agentswpt","agentcurrpshare","face","avgRating","point_total","round"
"pavlovia","0","2","0.0-0.0","63d7a0c6fe36d852418ac97a","bdp_trlrn","Wed Mar 15 2023 23:19:58 GMT-0400 (Eastern Daylight Time)","458958","Untrustworthy,Trustworthy","","","","","","","","","","","","","","","","","","","",""
"instructions","1","2687","0.0-1.0","63d7a0c6fe36d852418ac97a","bdp_trlrn","Wed Mar 15 2023 23:19:58 GMT-0400 (Eastern Daylight Time)","458958","Untrustworthy,Trustworthy","[{""page_index"":0,""viewing_time"":2683}]","2684","","","","","","","","","","","","","","","","","",""
"","","","","63d7a0c6fe36d852418ac97a","bdp_trlrn","Wed Mar 15 2023 23:19:58 GMT-0400 (Eastern Daylight Time)","458958","Untrustworthy,Trustworthy","","","fullscreenenter","2","4575","fullscreenenter","","","","","","","","","","","","","",""
"fullscreen","2","5583","0.0-2.0","63d7a0c6fe36d852418ac97a","bdp_trlrn","Wed Mar 15 2023 23:19:58 GMT-0400 (Eastern Daylight Time)","458958","Untrustworthy,Trustworthy","","","","","","","true","","","","","","","","","","","","",""
"instructions","3","15406","0.0-4.0","63d7a0c6fe36d852418ac97a","bdp_trlrn","Wed Mar 15 2023 23:19:58 GMT-0400 (Eastern Daylight Time)","458958","Untrustworthy,Trustworthy","[{""page_index"":0,""viewing_time"":7331},{""page_index"":1,""viewing_time"":2490}]","9821","","","","","","","","","","","","","","","","","",""
"instructions","4","16545","0.0-5.0","63d7a0c6fe36d852418ac97a","bdp_trlrn","Wed Mar 15 2023 23:19:58 GMT-0400 (Eastern Daylight Time)","458958","Untrustworthy,Trustworthy","[{""page_index"":0,""viewing_time"":1139}]","1139","","","","","","","","","","","","","","","","","",""
"image-keyboard-response","5","18374","0.0-6.0-1.0","63d7a0c6fe36d852418ac97a","bdp_trlrn","Wed Mar 15 2023 23:19:58 GMT-0400 (Eastern Daylight Time)","458958","Untrustworthy,Trustworthy","","1726","","","","rating","","trustrating_stim/white_00340_940422_fa_edt.bmp","4","","","","","","","","","","",""
"image-keyboard-response","6","18584","0.0-6.0-2.0","63d7a0c6fe36d852418ac97a","bdp_trlrn","Wed Mar 15 2023 23:19:58 GMT-0400 (Eastern Daylight Time)","458958","Untrustworthy,Trustworthy","","null","","","","ratingFB","","trustrating_stim/white_00340_940422_fa_edt.bmp","null","","","","","","","","","","",""
"image-keyboard-response","7","19502","0.0-6.0-1.1","63d7a0c6fe36d852418ac97a","bdp_trlrn","Wed Mar 15 2023 23:19:58 GMT-0400 (Eastern Daylight Time)","458958","Untrustworthy,Trustworthy","","805","","","","rating","","trustrating_stim/white_00577_940928_fa_edt.bmp","2","","","","","","","","","","",""
"image-keyboard-response","8","19713","0.0-6.0-2.1","63d7a0c6fe36d852418ac97a","bdp_trlrn","Wed Mar 15 2023 23:19:58 GMT-0400 (Eastern Daylight Time)","458958","Untrustworthy,Trustworthy","","null","","","","ratingFB","","trustrating_stim/white_00577_940928_fa_edt.bmp","null","","","","","","","","","","",""
"image-keyboard-response","9","20397","0.0-6.0-1.2","63d7a0c6fe36d852418ac97a","bdp_trlrn","Wed Mar 15 2023 23:19:58 GMT-0400 (Eastern Daylight Time)","458958","Untrustworthy,Trustworthy","","581","","","","rating","","trustrating_stim/white_mw033.bmp","4","","","","","","","","","","",""
"image-keyboard-response","10","20613","0.0-6.0-2.2","63d7a0c6fe36d852418ac97a","bdp_trlrn","Wed Mar 15 2023 23:19:58 GMT-0400 (Eastern Daylight Time)","458958","Untrustworthy,Trustworthy","","null","","","","ratingFB","","trustrating_stim/white_mw033.bmp","null","","","","","","","","","","",""
"image-keyboard-response","11","21136","0.0-6.0-1.3","63d7a0c6fe36d852418ac97a","bdp_trlrn","Wed Mar 15 2023 23:19:58 GMT-0400 (Eastern Daylight Time)","458958","Untrustworthy,Trustworthy","","422","","","","rating","","trustrating_stim/white_00602_940928_fb_edt.bmp","3","","","","","","","","","","",""
"image-keyboard-response","12","21339","0.0-6.0-2.3","63d7a0c6fe36d852418ac97a","bdp_trlrn","Wed Mar 15 2023 23:19:58 GMT-0400 (Eastern Daylight Time)","458958","Untrustworthy,Trustworthy","","null","","","","ratingFB","","trustrating_stim/white_00602_940928_fb_edt.bmp","null","","","","","","","","","","",""
"image-keyboard-response","13","22380","0.0-6.0-1.4","63d7a0c6fe36d852418ac97a","bdp_trlrn","Wed Mar 15 2023 23:19:58 GMT-0400 (Eastern Daylight Time)","458958","Untrustworthy,Trustworthy","","928","","","","rating","","trustrating_stim/white_mw060.bmp","1","","","","","","","","","","",""
"image-keyboard-response","14","22585","0.0-6.0-2.4","63d7a0c6fe36d852418ac97a","bdp_trlrn","Wed Mar 15 2023 23:19:58 GMT-0400 (Eastern Daylight Time)","458958","Untrustworthy,Trustworthy","","null","","","","ratingFB","","trustrating_stim/white_mw060.bmp","null","","","","","","","","","","",""
"image-keyboard-response","15","24068","0.0-6.0-1.5","63d7a0c6fe36d852418ac97a","bdp_trlrn","Wed Mar 15 2023 23:19:58 GMT-0400 (Eastern Daylight Time)","458958","Untrustworthy,Trustworthy","","1370","","","","rating","","trustrating_stim/white_00659_941121_fa_edt.bmp","8","","","","","","","","","","",""
"image-keyboard-response","16","24269","0.0-6.0-2.5","63d7a0c6fe36d852418ac97a","bdp_trlrn","Wed Mar 15 2023 23:19:58 GMT-0400 (Eastern Daylight Time)","458958","Untrustworthy,Trustworthy","","null","","","","ratingFB","","trustrating_stim/white_00659_941121_fa_edt.bmp","null","","","","","","","","","","",""
"image-keyboard-response","17","25815","0.0-6.0-1.6","63d7a0c6fe36d852418ac97a","bdp_trlrn","Wed Mar 15 2023 23:19:58 GMT-0400 (Eastern Daylight Time)","458958","Untrustworthy,Trustworthy","","1446","","","","rating","","trustrating_stim/white_00785_941205_fb_edt.bmp","1","","","","","","","","","","",""
"image-keyboard-response","18","26017","0.0-6.0-2.6","63d7a0c6fe36d852418ac97a","bdp_trlrn","Wed Mar 15 2023 23:19:58 GMT-0400 (Eastern Daylight Time)","458958","Untrustworthy,Trustworthy","","null","","","","ratingFB","","trustrating_stim/white_00785_941205_fb_edt.bmp","null","","","","","","","","","","",""
"image-keyboard-response","19","27178","0.0-6.0-1.7","63d7a0c6fe36d852418ac97a","bdp_trlrn","Wed Mar 15 2023 23:19:58 GMT-0400 (Eastern Daylight Time)","458958","Untrustworthy,Trustworthy","","1058","","","","rating","","trustrating_stim/white_mw035.bmp","4","","","","","","","","","","",""
"image-keyboard-response","20","27379","0.0-6.0-2.7","63d7a0c6fe36d852418ac97a","bdp_trlrn","Wed Mar 15 2023 23:19:58 GMT-0400 (Eastern Daylight Time)","458958","Untrustworthy,Trustworthy","","null","","","","ratingFB","","trustrating_stim/white_mw035.bmp","null","","","","","","","","","","",""
"image-keyboard-response","21","28348","0.0-6.0-1.8","63d7a0c6fe36d852418ac97a","bdp_trlrn","Wed Mar 15 2023 23:19:58 GMT-0400 (Eastern Daylight Time)","458958","Untrustworthy,Trustworthy","","865","","","","rating","","trustrating_stim/white_mw049.bmp","7","","","","","","","","","","",""
"image-keyboard-response","22","28550","0.0-6.0-2.8","63d7a0c6fe36d852418ac97a","bdp_trlrn","Wed Mar 15 2023 23:19:58 GMT-0400 (Eastern Daylight Time)","458958","Untrustworthy,Trustworthy","","null","","","","ratingFB","","trustrating_stim/white_mw049.bmp","null","","","","","","","","","","",""
"image-keyboard-response","23","30870","0.0-6.0-1.9","63d7a0c6fe36d852418ac97a","bdp_trlrn","Wed Mar 15 2023 23:19:58 GMT-0400 (Eastern Daylight Time)","458958","Untrustworthy,Trustworthy","","2218","","","","rating","","trustrating_stim/white_mw066.bmp","6","","","","","","","","","","",""
"image-keyboard-response","24","31072","0.0-6.0-2.9","63d7a0c6fe36d852418ac97a","bdp_trlrn","Wed Mar 15 2023 23:19:58 GMT-0400 (Eastern Daylight Time)","458958","Untrustworthy,Trustworthy","","null","","","","ratingFB","","trustrating_stim/white_mw066.bmp","null","","","","","","","","","","",""
"image-keyboard-response","25","31909","0.0-6.0-1.10","63d7a0c6fe36d852418ac97a","bdp_trlrn","Wed Mar 15 2023 23:19:58 GMT-0400 (Eastern Daylight Time)","458958","Untrustworthy,Trustworthy","","733","","","","rating","","trustrating_stim/white_00757_941201_fa_edt.bmp","1","","","","","","","","","","",""
"image-keyboard-response","26","32111","0.0-6.0-2.10","63d7a0c6fe36d852418ac97a","bdp_trlrn","Wed Mar 15 2023 23:19:58 GMT-0400 (Eastern Daylight Time)","458958","Untrustworthy,Trustworthy","","null","","","","ratingFB","","trustrating_stim/white_00757_941201_fa_edt.bmp","null","","","","","","","","","","",""
"image-keyboard-response","27","33245","0.0-6.0-1.11","63d7a0c6fe36d852418ac97a","bdp_trlrn","Wed Mar 15 2023 23:19:58 GMT-0400 (Eastern Daylight Time)","458958","Untrustworthy,Trustworthy","","1031","","","","rating","","trustrating_stim/white_00299_940422_fa_edt.bmp","4","","","","","","","","","","",""
"image-keyboard-response","28","33446","0.0-6.0-2.11","63d7a0c6fe36d852418ac97a","bdp_trlrn","Wed Mar 15 2023 23:19:58 GMT-0400 (Eastern Daylight Time)","458958","Untrustworthy,Trustworthy","","null","","","","ratingFB","","trustrating_stim/white_00299_940422_fa_edt.bmp","null","","","","","","","","","","",""
"image-keyboard-response","29","34105","0.0-6.0-1.12","63d7a0c6fe36d852418ac97a","bdp_trlrn","Wed Mar 15 2023 23:19:58 GMT-0400 (Eastern Daylight Time)","458958","Untrustworthy,Trustworthy","","555","","","","rating","","trustrating_stim/white_mw063.bmp","1","","","","","","","","","","",""
"image-keyboard-response","30","34307","0.0-6.0-2.12","63d7a0c6fe36d852418ac97a","bdp_trlrn","Wed Mar 15 2023 23:19:58 GMT-0400 (Eastern Daylight Time)","458958","Untrustworthy,Trustworthy","","null","","","","ratingFB","","trustrating_stim/white_mw063.bmp","null","","","","","","","","","","",""
"image-keyboard-response","31","35085","0.0-6.0-1.13","63d7a0c6fe36d852418ac97a","bdp_trlrn","Wed Mar 15 2023 23:19:58 GMT-0400 (Eastern Daylight Time)","458958","Untrustworthy,Trustworthy","","677","","","","rating","","trustrating_stim/white_00807_941205_fb_edt.bmp","1","","","","","","","","","","",""
"image-keyboard-response","32","35287","0.0-6.0-2.13","63d7a0c6fe36d852418ac97a","bdp_trlrn","Wed Mar 15 2023 23:19:58 GMT-0400 (Eastern Daylight Time)","458958","Untrustworthy,Trustworthy","","null","","","","ratingFB","","trustrating_stim/white_00807_941205_fb_edt.bmp","null","","","","","","","","","","",""
"image-keyboard-response","33","36630","0.0-6.0-1.14","63d7a0c6fe36d852418ac97a","bdp_trlrn","Wed Mar 15 2023 23:19:58 GMT-0400 (Eastern Daylight Time)","458958","Untrustworthy,Trustworthy","","1240","","","","rating","","trustrating_stim/white_00120_931230_fa_edt.bmp","6","","","","","","","","","","",""
"image-keyboard-response","34","36832","0.0-6.0-2.14","63d7a0c6fe36d852418ac97a","bdp_trlrn","Wed Mar 15 2023 23:19:58 GMT-0400 (Eastern Daylight Time)","458958","Untrustworthy,Trustworthy","","null","","","","ratingFB","","trustrating_stim/white_00120_931230_fa_edt.bmp","null","","","","","","","","","","",""
"image-keyboard-response","35","38451","0.0-6.0-1.15","63d7a0c6fe36d852418ac97a","bdp_trlrn","Wed Mar 15 2023 23:19:58 GMT-0400 (Eastern Daylight Time)","458958","Untrustworthy,Trustworthy","","1517","","","","rating","","trustrating_stim/white_mw084.bmp","1","","","","","","","","","","",""
"image-keyboard-response","36","38653","0.0-6.0-2.15","63d7a0c6fe36d852418ac97a","bdp_trlrn","Wed Mar 15 2023 23:19:58 GMT-0400 (Eastern Daylight Time)","458958","Untrustworthy,Trustworthy","","null","","","","ratingFB","","trustrating_stim/white_mw084.bmp","null","","","","","","","","","","",""
"image-keyboard-response","37","39517","0.0-6.0-1.16","63d7a0c6fe36d852418ac97a","bdp_trlrn","Wed Mar 15 2023 23:19:58 GMT-0400 (Eastern Daylight Time)","458958","Untrustworthy,Trustworthy","","763","","","","rating","","trustrating_stim/white_00129_931230_fb_edt.bmp","6","","","","","","","","","","",""
"image-keyboard-response","38","39719","0.0-6.0-2.16","63d7a0c6fe36d852418ac97a","bdp_trlrn","Wed Mar 15 2023 23:19:58 GMT-0400 (Eastern Daylight Time)","458958","Untrustworthy,Trustworthy","","null","","","","ratingFB","","trustrating_stim/white_00129_931230_fb_edt.bmp","null","","","","","","","","","","",""
"image-keyboard-response","39","40984","0.0-6.0-1.17","63d7a0c6fe36d852418ac97a","bdp_trlrn","Wed Mar 15 2023 23:19:58 GMT-0400 (Eastern Daylight Time)","458958","Untrustworthy,Trustworthy","","1162","","","","rating","","trustrating_stim/white_00223_940128_fb_edt.bmp","1","","","","","","","","","","",""
"image-keyboard-response","40","41186","0.0-6.0-2.17","63d7a0c6fe36d852418ac97a","bdp_trlrn","Wed Mar 15 2023 23:19:58 GMT-0400 (Eastern Daylight Time)","458958","Untrustworthy,Trustworthy","","null","","","","ratingFB","","trustrating_stim/white_00223_940128_fb_edt.bmp","null","","","","","","","","","","",""
"image-keyboard-response","41","42010","0.0-6.0-1.18","63d7a0c6fe36d852418ac97a","bdp_trlrn","Wed Mar 15 2023 23:19:58 GMT-0400 (Eastern Daylight Time)","458958","Untrustworthy,Trustworthy","","722","","","","rating","","trustrating_stim/white_00109_931230_fa_edt.bmp","1","","","","","","","","","","",""
"image-keyboard-response","42","42211","0.0-6.0-2.18","63d7a0c6fe36d852418ac97a","bdp_trlrn","Wed Mar 15 2023 23:19:58 GMT-0400 (Eastern Daylight Time)","458958","Untrustworthy,Trustworthy","","null","","","","ratingFB","","trustrating_stim/white_00109_931230_fa_edt.bmp","null","","","","","","","","","","",""
"image-keyboard-response","43","42965","0.0-6.0-1.19","63d7a0c6fe36d852418ac97a","bdp_trlrn","Wed Mar 15 2023 23:19:58 GMT-0400 (Eastern Daylight Time)","458958","Untrustworthy,Trustworthy","","652","","","","rating","","trustrating_stim/white_mw053.bmp","1","","","","","","","","","","",""
"image-keyboard-response","44","43167","0.0-6.0-2.19","63d7a0c6fe36d852418ac97a","bdp_trlrn","Wed Mar 15 2023 23:19:58 GMT-0400 (Eastern Daylight Time)","458958","Untrustworthy,Trustworthy","","null","","","","ratingFB","","trustrating_stim/white_mw053.bmp","null","","","","","","","","","","",""
"image-keyboard-response","45","43896","0.0-6.0-1.20","63d7a0c6fe36d852418ac97a","bdp_trlrn","Wed Mar 15 2023 23:19:58 GMT-0400 (Eastern Daylight Time)","458958","Untrustworthy,Trustworthy","","612","","","","rating","","trustrating_stim/white_mw097.bmp","1","","","","","","","","","","",""
"image-keyboard-response","46","44098","0.0-6.0-2.20","63d7a0c6fe36d852418ac97a","bdp_trlrn","Wed Mar 15 2023 23:19:58 GMT-0400 (Eastern Daylight Time)","458958","Untrustworthy,Trustworthy","","null","","","","ratingFB","","trustrating_stim/white_mw097.bmp","null","","","","","","","","","","",""
"image-keyboard-response","47","44969","0.0-6.0-1.21","63d7a0c6fe36d852418ac97a","bdp_trlrn","Wed Mar 15 2023 23:19:58 GMT-0400 (Eastern Daylight Time)","458958","Untrustworthy,Trustworthy","","768","","","","rating","","trustrating_stim/white_mw046.bmp","1","","","","","","","","","","",""
"image-keyboard-response","48","45170","0.0-6.0-2.21","63d7a0c6fe36d852418ac97a","bdp_trlrn","Wed Mar 15 2023 23:19:58 GMT-0400 (Eastern Daylight Time)","458958","Untrustworthy,Trustworthy","","null","","","","ratingFB","","trustrating_stim/white_mw046.bmp","null","","","","","","","","","","",""
"image-keyboard-response","49","46599","0.0-6.0-1.22","63d7a0c6fe36d852418ac97a","bdp_trlrn","Wed Mar 15 2023 23:19:58 GMT-0400 (Eastern Daylight Time)","458958","Untrustworthy,Trustworthy","","1326","","","","rating","","trustrating_stim/white_00898_960530_fa_edt.bmp","4","","","","","","","","","","",""
"image-keyboard-response","50","46800","0.0-6.0-2.22","63d7a0c6fe36d852418ac97a","bdp_trlrn","Wed Mar 15 2023 23:19:58 GMT-0400 (Eastern Daylight Time)","458958","Untrustworthy,Trustworthy","","null","","","","ratingFB","","trustrating_stim/white_00898_960530_fa_edt.bmp","null","","","","","","","","","","",""
"image-keyboard-response","51","47864","0.0-6.0-1.23","63d7a0c6fe36d852418ac97a","bdp_trlrn","Wed Mar 15 2023 23:19:58 GMT-0400 (Eastern Daylight Time)","458958","Untrustworthy,Trustworthy","","961","","","","rating","","trustrating_stim/white_00761_941201_fb_edt.bmp","3","","","","","","","","","","",""
"image-keyboard-response","52","48066","0.0-6.0-2.23","63d7a0c6fe36d852418ac97a","bdp_trlrn","Wed Mar 15 2023 23:19:58 GMT-0400 (Eastern Daylight Time)","458958","Untrustworthy,Trustworthy","","null","","","","ratingFB","","trustrating_stim/white_00761_941201_fb_edt.bmp","null","","","","","","","","","","",""
"image-keyboard-response","53","49187","0.0-6.0-1.24","63d7a0c6fe36d852418ac97a","bdp_trlrn","Wed Mar 15 2023 23:19:58 GMT-0400 (Eastern Daylight Time)","458958","Untrustworthy,Trustworthy","","1018","","","","rating","","trustrating_stim/white_mw048.bmp","1","","","","","","","","","","",""
"image-keyboard-response","54","49388","0.0-6.0-2.24","63d7a0c6fe36d852418ac97a","bdp_trlrn","Wed Mar 15 2023 23:19:58 GMT-0400 (Eastern Daylight Time)","458958","Untrustworthy,Trustworthy","","null","","","","ratingFB","","trustrating_stim/white_mw048.bmp","null","","","","","","","","","","",""
"image-keyboard-response","55","50309","0.0-6.0-1.25","63d7a0c6fe36d852418ac97a","bdp_trlrn","Wed Mar 15 2023 23:19:58 GMT-0400 (Eastern Daylight Time)","458958","Untrustworthy,Trustworthy","","817","","","","rating","","trustrating_stim/white_mw056.bmp","1","","","","","","","","","","",""
"image-keyboard-response","56","50510","0.0-6.0-2.25","63d7a0c6fe36d852418ac97a","bdp_trlrn","Wed Mar 15 2023 23:19:58 GMT-0400 (Eastern Daylight Time)","458958","Untrustworthy,Trustworthy","","null","","","","ratingFB","","trustrating_stim/white_mw056.bmp","null","","","","","","","","","","",""
"image-keyboard-response","57","51312","0.0-6.0-1.26","63d7a0c6fe36d852418ac97a","bdp_trlrn","Wed Mar 15 2023 23:19:58 GMT-0400 (Eastern Daylight Time)","458958","Untrustworthy,Trustworthy","","698","","","","rating","","trustrating_stim/white_mw099.bmp","1","","","","","","","","","","",""
"image-keyboard-response","58","51513","0.0-6.0-2.26","63d7a0c6fe36d852418ac97a","bdp_trlrn","Wed Mar 15 2023 23:19:58 GMT-0400 (Eastern Daylight Time)","458958","Untrustworthy,Trustworthy","","null","","","","ratingFB","","trustrating_stim/white_mw099.bmp","null","","","","","","","","","","",""
"image-keyboard-response","59","52252","0.0-6.0-1.27","63d7a0c6fe36d852418ac97a","bdp_trlrn","Wed Mar 15 2023 23:19:58 GMT-0400 (Eastern Daylight Time)","458958","Untrustworthy,Trustworthy","","629","","","","rating","","trustrating_stim/white_mw071.bmp","1","","","","","","","","","","",""
"image-keyboard-response","60","52454","0.0-6.0-2.27","63d7a0c6fe36d852418ac97a","bdp_trlrn","Wed Mar 15 2023 23:19:58 GMT-0400 (Eastern Daylight Time)","458958","Untrustworthy,Trustworthy","","null","","","","ratingFB","","trustrating_stim/white_mw071.bmp","null","","","","","","","","","","",""
"image-keyboard-response","61","53175","0.0-6.0-1.28","63d7a0c6fe36d852418ac97a","bdp_trlrn","Wed Mar 15 2023 23:19:58 GMT-0400 (Eastern Daylight Time)","458958","Untrustworthy,Trustworthy","","617","","","","rating","","trustrating_stim/white_00519_940519_fb_edt.bmp","1","","","","","","","","","","",""
"image-keyboard-response","62","53376","0.0-6.0-2.28","63d7a0c6fe36d852418ac97a","bdp_trlrn","Wed Mar 15 2023 23:19:58 GMT-0400 (Eastern Daylight Time)","458958","Untrustworthy,Trustworthy","","null","","","","ratingFB","","trustrating_stim/white_00519_940519_fb_edt.bmp","null","","","","","","","","","","",""
"image-keyboard-response","63","54403","0.0-6.0-1.29","63d7a0c6fe36d852418ac97a","bdp_trlrn","Wed Mar 15 2023 23:19:58 GMT-0400 (Eastern Daylight Time)","458958","Untrustworthy,Trustworthy","","925","","","","rating","","trustrating_stim/white_mw089.bmp","6","","","","","","","","","","",""
"image-keyboard-response","64","54605","0.0-6.0-2.29","63d7a0c6fe36d852418ac97a","bdp_trlrn","Wed Mar 15 2023 23:19:58 GMT-0400 (Eastern Daylight Time)","458958","Untrustworthy,Trustworthy","","null","","","","ratingFB","","trustrating_stim/white_mw089.bmp","null","","","","","","","","","","",""
"image-keyboard-response","65","55664","0.0-6.0-1.30","63d7a0c6fe36d852418ac97a","bdp_trlrn","Wed Mar 15 2023 23:19:58 GMT-0400 (Eastern Daylight Time)","458958","Untrustworthy,Trustworthy","","955","","","","rating","","trustrating_stim/white_mw033.bmp","5","","","","","","","","","","",""
"image-keyboard-response","66","55864","0.0-6.0-2.30","63d7a0c6fe36d852418ac97a","bdp_trlrn","Wed Mar 15 2023 23:19:58 GMT-0400 (Eastern Daylight Time)","458958","Untrustworthy,Trustworthy","","null","","","","ratingFB","","trustrating_stim/white_mw033.bmp","null","","","","","","","","","","",""
"image-keyboard-response","67","56956","0.0-6.0-1.31","63d7a0c6fe36d852418ac97a","bdp_trlrn","Wed Mar 15 2023 23:19:58 GMT-0400 (Eastern Daylight Time)","458958","Untrustworthy,Trustworthy","","988","","","","rating","","trustrating_stim/white_mw063.bmp","3","","","","","","","","","","",""
"image-keyboard-response","68","57158","0.0-6.0-2.31","63d7a0c6fe36d852418ac97a","bdp_trlrn","Wed Mar 15 2023 23:19:58 GMT-0400 (Eastern Daylight Time)","458958","Untrustworthy,Trustworthy","","null","","","","ratingFB","","trustrating_stim/white_mw063.bmp","null","","","","","","","","","","",""
"image-keyboard-response","69","58113","0.0-6.0-1.32","63d7a0c6fe36d852418ac97a","bdp_trlrn","Wed Mar 15 2023 23:19:58 GMT-0400 (Eastern Daylight Time)","458958","Untrustworthy,Trustworthy","","852","","","","rating","","trustrating_stim/white_00807_941205_fb_edt.bmp","1","","","","","","","","","","",""
"image-keyboard-response","70","58315","0.0-6.0-2.32","63d7a0c6fe36d852418ac97a","bdp_trlrn","Wed Mar 15 2023 23:19:58 GMT-0400 (Eastern Daylight Time)","458958","Untrustworthy,Trustworthy","","null","","","","ratingFB","","trustrating_stim/white_00807_941205_fb_edt.bmp","null","","","","","","","","","","",""
"image-keyboard-response","71","60767","0.0-6.0-1.33","63d7a0c6fe36d852418ac97a","bdp_trlrn","Wed Mar 15 2023 23:19:58 GMT-0400 (Eastern Daylight Time)","458958","Untrustworthy,Trustworthy","","2346","","","","rating","","trustrating_stim/white_mw049.bmp","1","","","","","","","","","","",""
"image-keyboard-response","72","60969","0.0-6.0-2.33","63d7a0c6fe36d852418ac97a","bdp_trlrn","Wed Mar 15 2023 23:19:58 GMT-0400 (Eastern Daylight Time)","458958","Untrustworthy,Trustworthy","","null","","","","ratingFB","","trustrating_stim/white_mw049.bmp","null","","","","","","","","","","",""
"image-keyboard-response","73","62287","0.0-6.0-1.34","63d7a0c6fe36d852418ac97a","bdp_trlrn","Wed Mar 15 2023 23:19:58 GMT-0400 (Eastern Daylight Time)","458958","Untrustworthy,Trustworthy","","1212","","","","rating","","trustrating_stim/white_00299_940422_fa_edt.bmp","4","","","","","","","","","","",""
"image-keyboard-response","74","62489","0.0-6.0-2.34","63d7a0c6fe36d852418ac97a","bdp_trlrn","Wed Mar 15 2023 23:19:58 GMT-0400 (Eastern Daylight Time)","458958","Untrustworthy,Trustworthy","","null","","","","ratingFB","","trustrating_stim/white_00299_940422_fa_edt.bmp","null","","","","","","","","","","",""
"image-keyboard-response","75","63176","0.0-6.0-1.35","63d7a0c6fe36d852418ac97a","bdp_trlrn","Wed Mar 15 2023 23:19:58 GMT-0400 (Eastern Daylight Time)","458958","Untrustworthy,Trustworthy","","583","","","","rating","","trustrating_stim/white_mw071.bmp","1","","","","","","","","","","",""
"image-keyboard-response","76","63379","0.0-6.0-2.35","63d7a0c6fe36d852418ac97a","bdp_trlrn","Wed Mar 15 2023 23:19:58 GMT-0400 (Eastern Daylight Time)","458958","Untrustworthy,Trustworthy","","null","","","","ratingFB","","trustrating_stim/white_mw071.bmp","null","","","","","","","","","","",""
"image-keyboard-response","77","64527","0.0-6.0-1.36","63d7a0c6fe36d852418ac97a","bdp_trlrn","Wed Mar 15 2023 23:19:58 GMT-0400 (Eastern Daylight Time)","458958","Untrustworthy,Trustworthy","","1043","","","","rating","","trustrating_stim/white_00898_960530_fa_edt.bmp","4","","","","","","","","","","",""
"image-keyboard-response","78","64729","0.0-6.0-2.36","63d7a0c6fe36d852418ac97a","bdp_trlrn","Wed Mar 15 2023 23:19:58 GMT-0400 (Eastern Daylight Time)","458958","Untrustworthy,Trustworthy","","null","","","","ratingFB","","trustrating_stim/white_00898_960530_fa_edt.bmp","null","","","","","","","","","","",""
"image-keyboard-response","79","67029","0.0-6.0-1.37","63d7a0c6fe36d852418ac97a","bdp_trlrn","Wed Mar 15 2023 23:19:58 GMT-0400 (Eastern Daylight Time)","458958","Untrustworthy,Trustworthy","","2198","","","","rating","","trustrating_stim/white_mw066.bmp","1","","","","","","","","","","",""
"image-keyboard-response","80","67231","0.0-6.0-2.37","63d7a0c6fe36d852418ac97a","bdp_trlrn","Wed Mar 15 2023 23:19:58 GMT-0400 (Eastern Daylight Time)","458958","Untrustworthy,Trustworthy","","null","","","","ratingFB","","trustrating_stim/white_mw066.bmp","null","","","","","","","","","","",""
"image-keyboard-response","81","68155","0.0-6.0-1.38","63d7a0c6fe36d852418ac97a","bdp_trlrn","Wed Mar 15 2023 23:19:58 GMT-0400 (Eastern Daylight Time)","458958","Untrustworthy,Trustworthy","","823","","","","rating","","trustrating_stim/white_mw056.bmp","1","","","","","","","","","","",""
"image-keyboard-response","82","68358","0.0-6.0-2.38","63d7a0c6fe36d852418ac97a","bdp_trlrn","Wed Mar 15 2023 23:19:58 GMT-0400 (Eastern Daylight Time)","458958","Untrustworthy,Trustworthy","","null","","","","ratingFB","","trustrating_stim/white_mw056.bmp","null","","","","","","","","","","",""
"image-keyboard-response","83","69338","0.0-6.0-1.39","63d7a0c6fe36d852418ac97a","bdp_trlrn","Wed Mar 15 2023 23:19:58 GMT-0400 (Eastern Daylight Time)","458958","Untrustworthy,Trustworthy","","878","","","","rating","","trustrating_stim/white_00757_941201_fa_edt.bmp","1","","","","","","","","","","",""
"image-keyboard-response","84","69540","0.0-6.0-2.39","63d7a0c6fe36d852418ac97a","bdp_trlrn","Wed Mar 15 2023 23:19:58 GMT-0400 (Eastern Daylight Time)","458958","Untrustworthy,Trustworthy","","null","","","","ratingFB","","trustrating_stim/white_00757_941201_fa_edt.bmp","null","","","","","","","","","","",""
"image-keyboard-response","85","70745","0.0-6.0-1.40","63d7a0c6fe36d852418ac97a","bdp_trlrn","Wed Mar 15 2023 23:19:58 GMT-0400 (Eastern Daylight Time)","458958","Untrustworthy,Trustworthy","","1101","","","","rating","","trustrating_stim/white_00577_940928_fa_edt.bmp","2","","","","","","","","","","",""
"image-keyboard-response","86","70948","0.0-6.0-2.40","63d7a0c6fe36d852418ac97a","bdp_trlrn","Wed Mar 15 2023 23:19:58 GMT-0400 (Eastern Daylight Time)","458958","Untrustworthy,Trustworthy","","null","","","","ratingFB","","trustrating_stim/white_00577_940928_fa_edt.bmp","null","","","","","","","","","","",""
"image-keyboard-response","87","72686","0.0-6.0-1.41","63d7a0c6fe36d852418ac97a","bdp_trlrn","Wed Mar 15 2023 23:19:58 GMT-0400 (Eastern Daylight Time)","458958","Untrustworthy,Trustworthy","","1635","","","","rating","","trustrating_stim/white_00659_941121_fa_edt.bmp","4","","","","","","","","","","",""
"image-keyboard-response","88","72888","0.0-6.0-2.41","63d7a0c6fe36d852418ac97a","bdp_trlrn","Wed Mar 15 2023 23:19:58 GMT-0400 (Eastern Daylight Time)","458958","Untrustworthy,Trustworthy","","null","","","","ratingFB","","trustrating_stim/white_00659_941121_fa_edt.bmp","null","","","","","","","","","","",""
"image-keyboard-response","89","73885","0.0-6.0-1.42","63d7a0c6fe36d852418ac97a","bdp_trlrn","Wed Mar 15 2023 23:19:58 GMT-0400 (Eastern Daylight Time)","458958","Untrustworthy,Trustworthy","","893","","","","rating","","trustrating_stim/white_mw053.bmp","5","","","","","","","","","","",""
"image-keyboard-response","90","74087","0.0-6.0-2.42","63d7a0c6fe36d852418ac97a","bdp_trlrn","Wed Mar 15 2023 23:19:58 GMT-0400 (Eastern Daylight Time)","458958","Untrustworthy,Trustworthy","","null","","","","ratingFB","","trustrating_stim/white_mw053.bmp","null","","","","","","","","","","",""
"image-keyboard-response","91","74787","0.0-6.0-1.43","63d7a0c6fe36d852418ac97a","bdp_trlrn","Wed Mar 15 2023 23:19:58 GMT-0400 (Eastern Daylight Time)","458958","Untrustworthy,Trustworthy","","595","","","","rating","","trustrating_stim/white_00785_941205_fb_edt.bmp","1","","","","","","","","","","",""
"image-keyboard-response","92","74988","0.0-6.0-2.43","63d7a0c6fe36d852418ac97a","bdp_trlrn","Wed Mar 15 2023 23:19:58 GMT-0400 (Eastern Daylight Time)","458958","Untrustworthy,Trustworthy","","null","","","","ratingFB","","trustrating_stim/white_00785_941205_fb_edt.bmp","null","","","","","","","","","","",""
"image-keyboard-response","93","76616","0.0-6.0-1.44","63d7a0c6fe36d852418ac97a","bdp_trlrn","Wed Mar 15 2023 23:19:58 GMT-0400 (Eastern Daylight Time)","458958","Untrustworthy,Trustworthy","","1526","","","","rating","","trustrating_stim/white_mw035.bmp","4","","","","","","","","","","",""
"image-keyboard-response","94","76818","0.0-6.0-2.44","63d7a0c6fe36d852418ac97a","bdp_trlrn","Wed Mar 15 2023 23:19:58 GMT-0400 (Eastern Daylight Time)","458958","Untrustworthy,Trustworthy","","null","","","","ratingFB","","trustrating_stim/white_mw035.bmp","null","","","","","","","","","","",""
"image-keyboard-response","95","77755","0.0-6.0-1.45","63d7a0c6fe36d852418ac97a","bdp_trlrn","Wed Mar 15 2023 23:19:58 GMT-0400 (Eastern Daylight Time)","458958","Untrustworthy,Trustworthy","","833","","","","rating","","trustrating_stim/white_00120_931230_fa_edt.bmp","5","","","","","","","","","","",""
"image-keyboard-response","96","77958","0.0-6.0-2.45","63d7a0c6fe36d852418ac97a","bdp_trlrn","Wed Mar 15 2023 23:19:58 GMT-0400 (Eastern Daylight Time)","458958","Untrustworthy,Trustworthy","","null","","","","ratingFB","","trustrating_stim/white_00120_931230_fa_edt.bmp","null","","","","","","","","","","",""
"image-keyboard-response","97","78753","0.0-6.0-1.46","63d7a0c6fe36d852418ac97a","bdp_trlrn","Wed Mar 15 2023 23:19:58 GMT-0400 (Eastern Daylight Time)","458958","Untrustworthy,Trustworthy","","692","","","","rating","","trustrating_stim/white_mw048.bmp","1","","","","","","","","","","",""
"image-keyboard-response","98","78954","0.0-6.0-2.46","63d7a0c6fe36d852418ac97a","bdp_trlrn","Wed Mar 15 2023 23:19:58 GMT-0400 (Eastern Daylight Time)","458958","Untrustworthy,Trustworthy","","null","","","","ratingFB","","trustrating_stim/white_mw048.bmp","null","","","","","","","","","","",""
"image-keyboard-response","99","79976","0.0-6.0-1.47","63d7a0c6fe36d852418ac97a","bdp_trlrn","Wed Mar 15 2023 23:19:58 GMT-0400 (Eastern Daylight Time)","458958","Untrustworthy,Trustworthy","","918","","","","rating","","trustrating_stim/white_00602_940928_fb_edt.bmp","1","","","","","","","","","","",""
"image-keyboard-response","100","80177","0.0-6.0-2.47","63d7a0c6fe36d852418ac97a","bdp_trlrn","Wed Mar 15 2023 23:19:58 GMT-0400 (Eastern Daylight Time)","458958","Untrustworthy,Trustworthy","","null","","","","ratingFB","","trustrating_stim/white_00602_940928_fb_edt.bmp","null","","","","","","","","","","",""
"image-keyboard-response","101","80962","0.0-6.0-1.48","63d7a0c6fe36d852418ac97a","bdp_trlrn","Wed Mar 15 2023 23:19:58 GMT-0400 (Eastern Daylight Time)","458958","Untrustworthy,Trustworthy","","668","","","","rating","","trustrating_stim/white_00340_940422_fa_edt.bmp","1","","","","","","","","","","",""
"image-keyboard-response","102","81164","0.0-6.0-2.48","63d7a0c6fe36d852418ac97a","bdp_trlrn","Wed Mar 15 2023 23:19:58 GMT-0400 (Eastern Daylight Time)","458958","Untrustworthy,Trustworthy","","null","","","","ratingFB","","trustrating_stim/white_00340_940422_fa_edt.bmp","null","","","","","","","","","","",""
"image-keyboard-response","103","82058","0.0-6.0-1.49","63d7a0c6fe36d852418ac97a","bdp_trlrn","Wed Mar 15 2023 23:19:58 GMT-0400 (Eastern Daylight Time)","458958","Untrustworthy,Trustworthy","","791","","","","rating","","trustrating_stim/white_mw089.bmp","5","","","","","","","","","","",""
"image-keyboard-response","104","82261","0.0-6.0-2.49","63d7a0c6fe36d852418ac97a","bdp_trlrn","Wed Mar 15 2023 23:19:58 GMT-0400 (Eastern Daylight Time)","458958","Untrustworthy,Trustworthy","","null","","","","ratingFB","","trustrating_stim/white_mw089.bmp","null","","","","","","","","","","",""
"image-keyboard-response","105","83261","0.0-6.0-1.50","63d7a0c6fe36d852418ac97a","bdp_trlrn","Wed Mar 15 2023 23:19:58 GMT-0400 (Eastern Daylight Time)","458958","Untrustworthy,Trustworthy","","894","","","","rating","","trustrating_stim/white_00109_931230_fa_edt.bmp","2","","","","","","","","","","",""
"image-keyboard-response","106","83462","0.0-6.0-2.50","63d7a0c6fe36d852418ac97a","bdp_trlrn","Wed Mar 15 2023 23:19:58 GMT-0400 (Eastern Daylight Time)","458958","Untrustworthy,Trustworthy","","null","","","","ratingFB","","trustrating_stim/white_00109_931230_fa_edt.bmp","null","","","","","","","","","","",""
"image-keyboard-response","107","84293","0.0-6.0-1.51","63d7a0c6fe36d852418ac97a","bdp_trlrn","Wed Mar 15 2023 23:19:58 GMT-0400 (Eastern Daylight Time)","458958","Untrustworthy,Trustworthy","","726","","","","rating","","trustrating_stim/white_00761_941201_fb_edt.bmp","3","","","","","","","","","","",""
"image-keyboard-response","108","84495","0.0-6.0-2.51","63d7a0c6fe36d852418ac97a","bdp_trlrn","Wed Mar 15 2023 23:19:58 GMT-0400 (Eastern Daylight Time)","458958","Untrustworthy,Trustworthy","","null","","","","ratingFB","","trustrating_stim/white_00761_941201_fb_edt.bmp","null","","","","","","","","","","",""
"image-keyboard-response","109","85352","0.0-6.0-1.52","63d7a0c6fe36d852418ac97a","bdp_trlrn","Wed Mar 15 2023 23:19:58 GMT-0400 (Eastern Daylight Time)","458958","Untrustworthy,Trustworthy","","754","","","","rating","","trustrating_stim/white_00519_940519_fb_edt.bmp","1","","","","","","","","","","",""
"image-keyboard-response","110","85554","0.0-6.0-2.52","63d7a0c6fe36d852418ac97a","bdp_trlrn","Wed Mar 15 2023 23:19:58 GMT-0400 (Eastern Daylight Time)","458958","Untrustworthy,Trustworthy","","null","","","","ratingFB","","trustrating_stim/white_00519_940519_fb_edt.bmp","null","","","","","","","","","","",""
"image-keyboard-response","111","86323","0.0-6.0-1.53","63d7a0c6fe36d852418ac97a","bdp_trlrn","Wed Mar 15 2023 23:19:58 GMT-0400 (Eastern Daylight Time)","458958","Untrustworthy,Trustworthy","","663","","","","rating","","trustrating_stim/white_mw097.bmp","1","","","","","","","","","","",""
"image-keyboard-response","112","86526","0.0-6.0-2.53","63d7a0c6fe36d852418ac97a","bdp_trlrn","Wed Mar 15 2023 23:19:58 GMT-0400 (Eastern Daylight Time)","458958","Untrustworthy,Trustworthy","","null","","","","ratingFB","","trustrating_stim/white_mw097.bmp","null","","","","","","","","","","",""
"image-keyboard-response","113","87647","0.0-6.0-1.54","63d7a0c6fe36d852418ac97a","bdp_trlrn","Wed Mar 15 2023 23:19:58 GMT-0400 (Eastern Daylight Time)","458958","Untrustworthy,Trustworthy","","1015","","","","rating","","trustrating_stim/white_mw099.bmp","1","","","","","","","","","","",""
"image-keyboard-response","114","87850","0.0-6.0-2.54","63d7a0c6fe36d852418ac97a","bdp_trlrn","Wed Mar 15 2023 23:19:58 GMT-0400 (Eastern Daylight Time)","458958","Untrustworthy,Trustworthy","","null","","","","ratingFB","","trustrating_stim/white_mw099.bmp","null","","","","","","","","","","",""
"image-keyboard-response","115","88662","0.0-6.0-1.55","63d7a0c6fe36d852418ac97a","bdp_trlrn","Wed Mar 15 2023 23:19:58 GMT-0400 (Eastern Daylight Time)","458958","Untrustworthy,Trustworthy","","707","","","","rating","","trustrating_stim/white_mw046.bmp","1","","","","","","","","","","",""
"image-keyboard-response","116","88864","0.0-6.0-2.55","63d7a0c6fe36d852418ac97a","bdp_trlrn","Wed Mar 15 2023 23:19:58 GMT-0400 (Eastern Daylight Time)","458958","Untrustworthy,Trustworthy","","null","","","","ratingFB","","trustrating_stim/white_mw046.bmp","null","","","","","","","","","","",""
"image-keyboard-response","117","90389","0.0-6.0-1.56","63d7a0c6fe36d852418ac97a","bdp_trlrn","Wed Mar 15 2023 23:19:58 GMT-0400 (Eastern Daylight Time)","458958","Untrustworthy,Trustworthy","","1421","","","","rating","","trustrating_stim/white_mw060.bmp","1","","","","","","","","","","",""
"image-keyboard-response","118","90590","0.0-6.0-2.56","63d7a0c6fe36d852418ac97a","bdp_trlrn","Wed Mar 15 2023 23:19:58 GMT-0400 (Eastern Daylight Time)","458958","Untrustworthy,Trustworthy","","null","","","","ratingFB","","trustrating_stim/white_mw060.bmp","null","","","","","","","","","","",""
"image-keyboard-response","119","91696","0.0-6.0-1.57","63d7a0c6fe36d852418ac97a","bdp_trlrn","Wed Mar 15 2023 23:19:58 GMT-0400 (Eastern Daylight Time)","458958","Untrustworthy,Trustworthy","","1001","","","","rating","","trustrating_stim/white_00129_931230_fb_edt.bmp","5","","","","","","","","","","",""
"image-keyboard-response","120","91899","0.0-6.0-2.57","63d7a0c6fe36d852418ac97a","bdp_trlrn","Wed Mar 15 2023 23:19:58 GMT-0400 (Eastern Daylight Time)","458958","Untrustworthy,Trustworthy","","null","","","","ratingFB","","trustrating_stim/white_00129_931230_fb_edt.bmp","null","","","","","","","","","","",""
"image-keyboard-response","121","92583","0.0-6.0-1.58","63d7a0c6fe36d852418ac97a","bdp_trlrn","Wed Mar 15 2023 23:19:58 GMT-0400 (Eastern Daylight Time)","458958","Untrustworthy,Trustworthy","","579","","","","rating","","trustrating_stim/white_mw084.bmp","7","","","","","","","","","","",""
"image-keyboard-response","122","92784","0.0-6.0-2.58","63d7a0c6fe36d852418ac97a","bdp_trlrn","Wed Mar 15 2023 23:19:58 GMT-0400 (Eastern Daylight Time)","458958","Untrustworthy,Trustworthy","","null","","","","ratingFB","","trustrating_stim/white_mw084.bmp","null","","","","","","","","","","",""
"image-keyboard-response","123","94015","0.0-6.0-1.59","63d7a0c6fe36d852418ac97a","bdp_trlrn","Wed Mar 15 2023 23:19:58 GMT-0400 (Eastern Daylight Time)","458958","Untrustworthy,Trustworthy","","1126","","","","rating","","trustrating_stim/white_00223_940128_fb_edt.bmp","4","","","","","","","","","","",""
"image-keyboard-response","124","94217","0.0-6.0-2.59","63d7a0c6fe36d852418ac97a","bdp_trlrn","Wed Mar 15 2023 23:19:58 GMT-0400 (Eastern Daylight Time)","458958","Untrustworthy,Trustworthy","","null","","","","ratingFB","","trustrating_stim/white_00223_940128_fb_edt.bmp","null","","","","","","","","","","",""
"instructions","125","95723","0.0-7.0","63d7a0c6fe36d852418ac97a","bdp_trlrn","Wed Mar 15 2023 23:19:58 GMT-0400 (Eastern Daylight Time)","458958","Untrustworthy,Trustworthy","[{""page_index"":0,""viewing_time"":1402}]","1402","","","","","","","","","","","","","","","","","",""
"instructions","126","157697","0.0-8.0","63d7a0c6fe36d852418ac97a","bdp_trlrn","Wed Mar 15 2023 23:19:58 GMT-0400 (Eastern Daylight Time)","458958","Untrustworthy,Trustworthy","[{""page_index"":0,""viewing_time"":16314},{""page_index"":1,""viewing_time"":12210},{""page_index"":2,""viewing_time"":5788},{""page_index"":3,""viewing_time"":6914},{""page_index"":4,""viewing_time"":2740},{""page_index"":5,""viewing_time"":5112},{""page_index"":6,""viewing_time"":11666},{""page_index"":7,""viewing_time"":1126}]","61871","","","","","","","","","","","","","","","","","",""
"html-keyboard-response","127","164039","0.0-9.0","63d7a0c6fe36d852418ac97a","bdp_trlrn","Wed Mar 15 2023 23:19:58 GMT-0400 (Eastern Daylight Time)","458958","Untrustworthy,Trustworthy","","6340","","","","","","<div class='header' style='text-align:left; position: absolute; top: 5%; left: 5%;'><small>Task 3 of 5</small></div><div class='instruxDiv'><p><strong>1) What is the minimum number of points you can choose to send to your partner?</strong></p><p>a) 0</p><p>b) 1</p><p>c) 5</p>","A","","","","","","","","","","",""
"html-keyboard-response","128","166511","0.0-10.0","63d7a0c6fe36d852418ac97a","bdp_trlrn","Wed Mar 15 2023 23:19:58 GMT-0400 (Eastern Daylight Time)","458958","Untrustworthy,Trustworthy","","2368","","","","","","<div class='header' style='text-align:left; position: absolute; top: 5%; left: 5%;'><small>Task 3 of 5</small></div><div class='instruxDiv'><p><strong>1) What is the minimum number of points you can choose to send to your partner?</strong></p><p style='color:#FF0000'>a) 0</p><p>b) 1</p><p>c) 5</p><h3 style='color:#FF0000'>Incorrect!</h3><h3 class='center-content'>The correct response is b).</h3><h3 class='center-content'>The minimum number of points you can choose to send to your partner is 1 point.</h3><p><em>Press SPACEBAR to continue</em></p></div>"," ","","","","","","","","","","",""
"html-keyboard-response","129","169545","0.0-11.0","63d7a0c6fe36d852418ac97a","bdp_trlrn","Wed Mar 15 2023 23:19:58 GMT-0400 (Eastern Daylight Time)","458958","Untrustworthy,Trustworthy","","2933","","","","","","<div class='header' style='text-align:left; position: absolute; top: 5%; left: 5%;'><small>Task 3 of 5</small></div><div class='instruxDiv'><p><strong>2) What is the maximum number of points you can choose to send to your partner?</strong></p><p>a) 8</p><p>b) 5</p><p>c) 3</p>","B","","","","","","","","","","",""
"html-keyboard-response","130","172482","0.0-12.0","63d7a0c6fe36d852418ac97a","bdp_trlrn","Wed Mar 15 2023 23:19:58 GMT-0400 (Eastern Daylight Time)","458958","Untrustworthy,Trustworthy","","2835","","","","","","<div class='header' style='text-align:left; position: absolute; top: 5%; left: 5%;'><small>Task 3 of 5</small></div><div class='instruxDiv'><p><strong>2) What is the maximum number of points you can choose to send to your partner?</strong></p><p>a) 8</p><p style='color:#00FF00'>b) 5</p><p>c) 3</p><h3 style='color:#00FF00'>Correct!</h3><h3 class='center-content'>The correct response is b).</h3><h3 class='center-content'>The maximum number of points you can choose to send to your partner is 5 points.</h3><p><em>Press SPACEBAR to continue</em></p></div>"," ","","","","","","","","","","",""
"html-keyboard-response","131","175858","0.0-13.0","63d7a0c6fe36d852418ac97a","bdp_trlrn","Wed Mar 15 2023 23:19:58 GMT-0400 (Eastern Daylight Time)","458958","Untrustworthy,Trustworthy","","3274","","","","","","<div class='header' style='text-align:left; position: absolute; top: 5%; left: 5%;'><small>Task 3 of 5</small></div><div class='instruxDiv'><p><strong>3) What happens to the amount of points you send to your partner?</strong></p><p>a) Nothing</p><p>b) It doubles</p><p>c) It quadruples</p>","C","","","","","","","","","","",""
"html-keyboard-response","132","178230","0.0-14.0","63d7a0c6fe36d852418ac97a","bdp_trlrn","Wed Mar 15 2023 23:19:58 GMT-0400 (Eastern Daylight Time)","458958","Untrustworthy,Trustworthy","","2270","","","","","","<div class='header' style='text-align:left; position: absolute; top: 5%; left: 5%;'><small>Task 3 of 5</small></div><div class='instruxDiv'><p><strong>3) What happens to the amount of points you send to your partner?</strong></p><p>a) Nothing</p><p>b) It doubles</p><p style='color:#00FF00'>c) It quadruples</p><h3 style='color:#00FF00'>Correct!</h3><h3 class='center-content'>The correct response is c).</h3><h3 class='center-content'>The amount of points you send to your partner quadruples.</h3><p><em>Press SPACEBAR to continue</em></p></div>"," ","","","","","","","","","","",""
"html-keyboard-response","133","190084","0.0-15.0","63d7a0c6fe36d852418ac97a","bdp_trlrn","Wed Mar 15 2023 23:19:58 GMT-0400 (Eastern Daylight Time)","458958","Untrustworthy,Trustworthy","","11753","","","","","","<div class='header' style='text-align:left; position: absolute; top: 5%; left: 5%;'><small>Task 3 of 5</small></div><div class='instruxDiv'><p><strong>4) If you decided to share 4 out of 5 points with your partner, and they decided to share half of the amount they received with you, how many points would you receive back from them on this round?</strong></p><p>a) 16</p><p>b) 0</p><p>c) 8</p>","C","","","","","","","","","","",""
"html-keyboard-response","134","190697","0.0-16.0","63d7a0c6fe36d852418ac97a","bdp_trlrn","Wed Mar 15 2023 23:19:58 GMT-0400 (Eastern Daylight Time)","458958","Untrustworthy,Trustworthy","","511","","","","","","<div class='header' style='text-align:left; position: absolute; top: 5%; left: 5%;'><small>Task 3 of 5</small></div><div class='instruxDiv'><p><strong>4) If you decided to share 4 out of 5 points with your partner, and they decided to share half of the amount they received with you, how many points would you receive back from them on this round?</strong></p><p>a) 16</p><p>b) 0</p><p style='color:#00FF00'>c) 8</p><h3 style='color:#00FF00'>Correct!</h3><h3 class='center-content'>The correct response is c).</h3><h3 class='center-content'>If you shared 4 out of 5 points with your partner and they decided to share half of the amount they received with you, you would receive 8 points back (i.e. (4 x 4)/2 = 8).</h3><p><em>Press SPACEBAR to continue</em></p></div>"," ","","","","","","","","","","",""
"html-keyboard-response","135","195800","0.0-17.0","63d7a0c6fe36d852418ac97a","bdp_trlrn","Wed Mar 15 2023 23:19:58 GMT-0400 (Eastern Daylight Time)","458958","Untrustworthy,Trustworthy","","null","","","","","","<div class='header' style='text-align:left; position: absolute; top: 5%; left: 5%;'><small>Task 3 of 5</small></div><div class='instruxDiv'><p>Thank you for completing the quiz<p>These are the actual partners you will be interacting with in the next block:<p><div class='tc' align='center'><img class='introPic' src='trustrating_stim/white_mw099.bmp'><br><strong>Sebastian</strong></div><div class='bl' align='center'><img class='introPic' src='trustrating_stim/white_00340_940422_fa_edt.bmp'><br><strong>Benjamin</strong></div><div class='br' align='center'><img class='introPic' src='trustrating_stim/white_00120_931230_fa_edt.bmp'><br><strong>Timothy</strong></div></div><p>Across <strong>66 rounds</strong> you will interact with each partner <strong>22 times</strong> (in random order).<p style='align:center; color:white'><font <em>Press SPACEBAR to continue</em></p>","null","","","","","","","","","","",""
"instructions","136","199264","0.0-18.0","63d7a0c6fe36d852418ac97a","bdp_trlrn","Wed Mar 15 2023 23:19:58 GMT-0400 (Eastern Daylight Time)","458958","Untrustworthy,Trustworthy","[{""page_index"":0,""viewing_time"":1740},{""page_index"":1,""viewing_time"":1723}]","3463","","","","","","","","","","","","","","","","","",""
"html-keyboard-response","137","201128","0.0-19.0-1.0","63d7a0c6fe36d852418ac97a","bdp_trlrn","Wed Mar 15 2023 23:19:58 GMT-0400 (Eastern Daylight Time)","458958","Untrustworthy,Trustworthy","","1761","","","","decision","","<div class='trialDiv'><img src='trustrating_stim/white_mw099.bmp'><br><font class='baseline'><strong>Sebastian</strong><p>Choose number of points to send.</font><div class='respPicDiv'><img src='img/responseButtonOffersNo0L.png' class='respPic'></div></div>","3","1","Sebastian","0","Shared","0.65,0.2","14","0.65","trustrating_stim/white_mw099.bmp","1","5","1"
"html-keyboard-response","138","201385","0.0-19.0-2.0","63d7a0c6fe36d852418ac97a","bdp_trlrn","Wed Mar 15 2023 23:19:58 GMT-0400 (Eastern Daylight Time)","458958","Untrustworthy,Trustworthy","","null","","","","decisionFB","","<div class='trialDiv'><img src='trustrating_stim/white_mw099.bmp'><br><font class='baseline'><strong>Sebastian</strong><p>Choose number of points to send.</font><div class='respPicDiv'><img src='img/responseButtonOffersNo0L3.png' class='respPic'></div></div>","null","1","Sebastian","0","Shared","0.65,0.2","14","0.65","trustrating_stim/white_mw099.bmp","1","2","1"
"html-keyboard-response","139","202388","0.0-19.0-3.0","63d7a0c6fe36d852418ac97a","bdp_trlrn","Wed Mar 15 2023 23:19:58 GMT-0400 (Eastern Daylight Time)","458958","Untrustworthy,Trustworthy","","null","","","","feedback","","<div class='trialDiv'><img src='trustrating_stim/white_mw099.bmp'><br><font class='baseline'><strong>Sebastian</strong><p>Received: <strong>12</strong></font> &nbsp; &nbsp; &nbsp; &nbsp; &nbsp; &nbsp;<font class='posOutcome'>Shared back: <strong>6</strong></font></font><div class='respPicDiv'><img src='img/responseButtonOffersNo0_wht.png' class='respPic'></div></div>","null","1","Sebastian","0","Shared","0.65,0.2","14","0.65","trustrating_stim/white_mw099.bmp","1","8","1"
"html-keyboard-response","140","203134","0.0-19.0-1.1","63d7a0c6fe36d852418ac97a","bdp_trlrn","Wed Mar 15 2023 23:19:58 GMT-0400 (Eastern Daylight Time)","458958","Untrustworthy,Trustworthy","","745","","","","decision","","<div class='trialDiv'><img src='trustrating_stim/white_00340_940422_fa_edt.bmp'><br><font class='baseline'><strong>Benjamin</strong><p>Choose number of points to send.</font><div class='respPicDiv'><img src='img/responseButtonOffersNo0L.png' class='respPic'></div></div>","3","1","Benjamin","7","Kept","0.2,0.8","13","0.2","trustrating_stim/white_00340_940422_fa_edt.bmp","2.5","13","2"
"html-keyboard-response","141","203387","0.0-19.0-2.1","63d7a0c6fe36d852418ac97a","bdp_trlrn","Wed Mar 15 2023 23:19:58 GMT-0400 (Eastern Daylight Time)","458958","Untrustworthy,Trustworthy","","null","","","","decisionFB","","<div class='trialDiv'><img src='trustrating_stim/white_00340_940422_fa_edt.bmp'><br><font class='baseline'><strong>Benjamin</strong><p>Choose number of points to send.</font><div class='respPicDiv'><img src='img/responseButtonOffersNo0L3.png' class='respPic'></div></div>","null","1","Benjamin","7","Kept","0.2,0.8","13","0.2","trustrating_stim/white_00340_940422_fa_edt.bmp","2.5","10","2"
"html-keyboard-response","142","204389","0.0-19.0-3.1","63d7a0c6fe36d852418ac97a","bdp_trlrn","Wed Mar 15 2023 23:19:58 GMT-0400 (Eastern Daylight Time)","458958","Untrustworthy,Trustworthy","","null","","","","feedback","","<div class='trialDiv'><img src='trustrating_stim/white_00340_940422_fa_edt.bmp'><br><font class='baseline'><strong>Benjamin</strong><p>Received: <strong>12</strong></font> &nbsp; &nbsp; &nbsp; &nbsp; &nbsp; &nbsp;<font class='negOutcome'>Shared back: <strong>0</strong></font></font><div class='respPicDiv'><img src='img/responseButtonOffersNo0_wht.png' class='respPic'></div></div>","null","1","Benjamin","7","Kept","0.2,0.8","13","0.2","trustrating_stim/white_00340_940422_fa_edt.bmp","2.5","10","2"
"html-keyboard-response","143","205327","0.0-19.0-1.2","63d7a0c6fe36d852418ac97a","bdp_trlrn","Wed Mar 15 2023 23:19:58 GMT-0400 (Eastern Daylight Time)","458958","Untrustworthy,Trustworthy","","936","","","","decision","","<div class='trialDiv'><img src='trustrating_stim/white_00120_931230_fa_edt.bmp'><br><font class='baseline'><strong>Timothy</strong><p>Choose number of points to send.</font><div class='respPicDiv'><img src='img/responseButtonOffersNo0L.png' class='respPic'></div></div>","3","1","Timothy","9","Kept","0.2,0.65","10","0.2","trustrating_stim/white_00120_931230_fa_edt.bmp","5.5","15","3"
"html-keyboard-response","144","205580","0.0-19.0-2.2","63d7a0c6fe36d852418ac97a","bdp_trlrn","Wed Mar 15 2023 23:19:58 GMT-0400 (Eastern Daylight Time)","458958","Untrustworthy,Trustworthy","","null","","","","decisionFB","","<div class='trialDiv'><img src='trustrating_stim/white_00120_931230_fa_edt.bmp'><br><font class='baseline'><strong>Timothy</strong><p>Choose number of points to send.</font><div class='respPicDiv'><img src='img/responseButtonOffersNo0L3.png' class='respPic'></div></div>","null","1","Timothy","9","Kept","0.2,0.65","10","0.2","trustrating_stim/white_00120_931230_fa_edt.bmp","5.5","12","3"
"html-keyboard-response","145","206581","0.0-19.0-3.2","63d7a0c6fe36d852418ac97a","bdp_trlrn","Wed Mar 15 2023 23:19:58 GMT-0400 (Eastern Daylight Time)","458958","Untrustworthy,Trustworthy","","null","","","","feedback","","<div class='trialDiv'><img src='trustrating_stim/white_00120_931230_fa_edt.bmp'><br><font class='baseline'><strong>Timothy</strong><p>Received: <strong>12</strong></font> &nbsp; &nbsp; &nbsp; &nbsp; &nbsp; &nbsp;<font class='negOutcome'>Shared back: <strong>0</strong></font></font><div class='respPicDiv'><img src='img/responseButtonOffersNo0_wht.png' class='respPic'></div></div>","null","1","Timothy","9","Kept","0.2,0.65","10","0.2","trustrating_stim/white_00120_931230_fa_edt.bmp","5.5","12","3"
"html-keyboard-response","146","207527","0.0-19.0-1.3","63d7a0c6fe36d852418ac97a","bdp_trlrn","Wed Mar 15 2023 23:19:58 GMT-0400 (Eastern Daylight Time)","458958","Untrustworthy,Trustworthy","","945","","","","decision","","<div class='trialDiv'><img src='trustrating_stim/white_mw099.bmp'><br><font class='baseline'><strong>Sebastian</strong><p>Choose number of points to send.</font><div class='respPicDiv'><img src='img/responseButtonOffersNo0L.png' class='respPic'></div></div>","2","2","Sebastian","0","Kept","0.65,0.2","14","0.65","trustrating_stim/white_mw099.bmp","1","17","4"
"html-keyboard-response","147","207786","0.0-19.0-2.3","63d7a0c6fe36d852418ac97a","bdp_trlrn","Wed Mar 15 2023 23:19:58 GMT-0400 (Eastern Daylight Time)","458958","Untrustworthy,Trustworthy","","null","","","","decisionFB","","<div class='trialDiv'><img src='trustrating_stim/white_mw099.bmp'><br><font class='baseline'><strong>Sebastian</strong><p>Choose number of points to send.</font><div class='respPicDiv'><img src='img/responseButtonOffersNo0L2.png' class='respPic'></div></div>","null","2","Sebastian","0","Kept","0.65,0.2","14","0.65","trustrating_stim/white_mw099.bmp","1","15","4"
"html-keyboard-response","148","208787","0.0-19.0-3.3","63d7a0c6fe36d852418ac97a","bdp_trlrn","Wed Mar 15 2023 23:19:58 GMT-0400 (Eastern Daylight Time)","458958","Untrustworthy,Trustworthy","","null","","","","feedback","","<div class='trialDiv'><img src='trustrating_stim/white_mw099.bmp'><br><font class='baseline'><strong>Sebastian</strong><p>Received: <strong>8</strong></font> &nbsp; &nbsp; &nbsp; &nbsp; &nbsp; &nbsp;<font class='negOutcome'>Shared back: <strong>0</strong></font></font><div class='respPicDiv'><img src='img/responseButtonOffersNo0_wht.png' class='respPic'></div></div>","null","2","Sebastian","0","Kept","0.65,0.2","14","0.65","trustrating_stim/white_mw099.bmp","1","15","4"
"html-keyboard-response","149","211070","0.0-19.0-1.4","63d7a0c6fe36d852418ac97a","bdp_trlrn","Wed Mar 15 2023 23:19:58 GMT-0400 (Eastern Daylight Time)","458958","Untrustworthy,Trustworthy","","2282","","","","decision","","<div class='trialDiv'><img src='trustrating_stim/white_00120_931230_fa_edt.bmp'><br><font class='baseline'><strong>Timothy</strong><p>Choose number of points to send.</font><div class='respPicDiv'><img src='img/responseButtonOffersNo0L.png' class='respPic'></div></div>","1","2","Timothy","9","Kept","0.2,0.65","10","0.2","trustrating_stim/white_00120_931230_fa_edt.bmp","5.5","20","5"
"html-keyboard-response","150","211321","0.0-19.0-2.4","63d7a0c6fe36d852418ac97a","bdp_trlrn","Wed Mar 15 2023 23:19:58 GMT-0400 (Eastern Daylight Time)","458958","Untrustworthy,Trustworthy","","null","","","","decisionFB","","<div class='trialDiv'><img src='trustrating_stim/white_00120_931230_fa_edt.bmp'><br><font class='baseline'><strong>Timothy</strong><p>Choose number of points to send.</font><div class='respPicDiv'><img src='img/responseButtonOffersNo0L1.png' class='respPic'></div></div>","null","2","Timothy","9","Kept","0.2,0.65","10","0.2","trustrating_stim/white_00120_931230_fa_edt.bmp","5.5","19","5"
"html-keyboard-response","151","212323","0.0-19.0-3.4","63d7a0c6fe36d852418ac97a","bdp_trlrn","Wed Mar 15 2023 23:19:58 GMT-0400 (Eastern Daylight Time)","458958","Untrustworthy,Trustworthy","","null","","","","feedback","","<div class='trialDiv'><img src='trustrating_stim/white_00120_931230_fa_edt.bmp'><br><font class='baseline'><strong>Timothy</strong><p>Received: <strong>4</strong></font> &nbsp; &nbsp; &nbsp; &nbsp; &nbsp; &nbsp;<font class='negOutcome'>Shared back: <strong>0</strong></font></font><div class='respPicDiv'><img src='img/responseButtonOffersNo0_wht.png' class='respPic'></div></div>","null","2","Timothy","9","Kept","0.2,0.65","10","0.2","trustrating_stim/white_00120_931230_fa_edt.bmp","5.5","19","5"
"html-keyboard-response","152","213531","0.0-19.0-1.5","63d7a0c6fe36d852418ac97a","bdp_trlrn","Wed Mar 15 2023 23:19:58 GMT-0400 (Eastern Daylight Time)","458958","Untrustworthy,Trustworthy","","1207","","","","decision","","<div class='trialDiv'><img src='trustrating_stim/white_00340_940422_fa_edt.bmp'><br><font class='baseline'><strong>Benjamin</strong><p>Choose number of points to send.</font><div class='respPicDiv'><img src='img/responseButtonOffersNo0L.png' class='respPic'></div></div>","1","2","Benjamin","7","Kept","0.2,0.8","13","0.2","trustrating_stim/white_00340_940422_fa_edt.bmp","2.5","24","6"
"html-keyboard-response","153","213783","0.0-19.0-2.5","63d7a0c6fe36d852418ac97a","bdp_trlrn","Wed Mar 15 2023 23:19:58 GMT-0400 (Eastern Daylight Time)","458958","Untrustworthy,Trustworthy","","null","","","","decisionFB","","<div class='trialDiv'><img src='trustrating_stim/white_00340_940422_fa_edt.bmp'><br><font class='baseline'><strong>Benjamin</strong><p>Choose number of points to send.</font><div class='respPicDiv'><img src='img/responseButtonOffersNo0L1.png' class='respPic'></div></div>","null","2","Benjamin","7","Kept","0.2,0.8","13","0.2","trustrating_stim/white_00340_940422_fa_edt.bmp","2.5","23","6"
"html-keyboard-response","154","214785","0.0-19.0-3.5","63d7a0c6fe36d852418ac97a","bdp_trlrn","Wed Mar 15 2023 23:19:58 GMT-0400 (Eastern Daylight Time)","458958","Untrustworthy,Trustworthy","","null","","","","feedback","","<div class='trialDiv'><img src='trustrating_stim/white_00340_940422_fa_edt.bmp'><br><font class='baseline'><strong>Benjamin</strong><p>Received: <strong>4</strong></font> &nbsp; &nbsp; &nbsp; &nbsp; &nbsp; &nbsp;<font class='negOutcome'>Shared back: <strong>0</strong></font></font><div class='respPicDiv'><img src='img/responseButtonOffersNo0_wht.png' class='respPic'></div></div>","null","2","Benjamin","7","Kept","0.2,0.8","13","0.2","trustrating_stim/white_00340_940422_fa_edt.bmp","2.5","23","6"
"html-keyboard-response","155","215689","0.0-19.0-1.6","63d7a0c6fe36d852418ac97a","bdp_trlrn","Wed Mar 15 2023 23:19:58 GMT-0400 (Eastern Daylight Time)","458958","Untrustworthy,Trustworthy","","901","","","","decision","","<div class='trialDiv'><img src='trustrating_stim/white_mw099.bmp'><br><font class='baseline'><strong>Sebastian</strong><p>Choose number of points to send.</font><div class='respPicDiv'><img src='img/responseButtonOffersNo0L.png' class='respPic'></div></div>","1","3","Sebastian","0","Shared","0.65,0.2","14","0.65","trustrating_stim/white_mw099.bmp","1","28","7"
"html-keyboard-response","156","215942","0.0-19.0-2.6","63d7a0c6fe36d852418ac97a","bdp_trlrn","Wed Mar 15 2023 23:19:58 GMT-0400 (Eastern Daylight Time)","458958","Untrustworthy,Trustworthy","","null","","","","decisionFB","","<div class='trialDiv'><img src='trustrating_stim/white_mw099.bmp'><br><font class='baseline'><strong>Sebastian</strong><p>Choose number of points to send.</font><div class='respPicDiv'><img src='img/responseButtonOffersNo0L1.png' class='respPic'></div></div>","null","3","Sebastian","0","Shared","0.65,0.2","14","0.65","trustrating_stim/white_mw099.bmp","1","27","7"
"html-keyboard-response","157","216944","0.0-19.0-3.6","63d7a0c6fe36d852418ac97a","bdp_trlrn","Wed Mar 15 2023 23:19:58 GMT-0400 (Eastern Daylight Time)","458958","Untrustworthy,Trustworthy","","null","","","","feedback","","<div class='trialDiv'><img src='trustrating_stim/white_mw099.bmp'><br><font class='baseline'><strong>Sebastian</strong><p>Received: <strong>4</strong></font> &nbsp; &nbsp; &nbsp; &nbsp; &nbsp; &nbsp;<font class='posOutcome'>Shared back: <strong>2</strong></font></font><div class='respPicDiv'><img src='img/responseButtonOffersNo0_wht.png' class='respPic'></div></div>","null","3","Sebastian","0","Shared","0.65,0.2","14","0.65","trustrating_stim/white_mw099.bmp","1","29","7"
"html-keyboard-response","158","217440","0.0-19.0-1.7","63d7a0c6fe36d852418ac97a","bdp_trlrn","Wed Mar 15 2023 23:19:58 GMT-0400 (Eastern Daylight Time)","458958","Untrustworthy,Trustworthy","","495","","","","decision","","<div class='trialDiv'><img src='trustrating_stim/white_00340_940422_fa_edt.bmp'><br><font class='baseline'><strong>Benjamin</strong><p>Choose number of points to send.</font><div class='respPicDiv'><img src='img/responseButtonOffersNo0L.png' class='respPic'></div></div>","1","3","Benjamin","7","Kept","0.2,0.8","13","0.2","trustrating_stim/white_00340_940422_fa_edt.bmp","2.5","34","8"
"html-keyboard-response","159","217692","0.0-19.0-2.7","63d7a0c6fe36d852418ac97a","bdp_trlrn","Wed Mar 15 2023 23:19:58 GMT-0400 (Eastern Daylight Time)","458958","Untrustworthy,Trustworthy","","null","","","","decisionFB","","<div class='trialDiv'><img src='trustrating_stim/white_00340_940422_fa_edt.bmp'><br><font class='baseline'><strong>Benjamin</strong><p>Choose number of points to send.</font><div class='respPicDiv'><img src='img/responseButtonOffersNo0L1.png' class='respPic'></div></div>","null","3","Benjamin","7","Kept","0.2,0.8","13","0.2","trustrating_stim/white_00340_940422_fa_edt.bmp","2.5","33","8"
"html-keyboard-response","160","218694","0.0-19.0-3.7","63d7a0c6fe36d852418ac97a","bdp_trlrn","Wed Mar 15 2023 23:19:58 GMT-0400 (Eastern Daylight Time)","458958","Untrustworthy,Trustworthy","","null","","","","feedback","","<div class='trialDiv'><img src='trustrating_stim/white_00340_940422_fa_edt.bmp'><br><font class='baseline'><strong>Benjamin</strong><p>Received: <strong>4</strong></font> &nbsp; &nbsp; &nbsp; &nbsp; &nbsp; &nbsp;<font class='negOutcome'>Shared back: <strong>0</strong></font></font><div class='respPicDiv'><img src='img/responseButtonOffersNo0_wht.png' class='respPic'></div></div>","null","3","Benjamin","7","Kept","0.2,0.8","13","0.2","trustrating_stim/white_00340_940422_fa_edt.bmp","2.5","33","8"
"html-keyboard-response","161","219236","0.0-19.0-1.8","63d7a0c6fe36d852418ac97a","bdp_trlrn","Wed Mar 15 2023 23:19:58 GMT-0400 (Eastern Daylight Time)","458958","Untrustworthy,Trustworthy","","540","","","","decision","","<div class='trialDiv'><img src='trustrating_stim/white_00120_931230_fa_edt.bmp'><br><font class='baseline'><strong>Timothy</strong><p>Choose number of points to send.</font><div class='respPicDiv'><img src='img/responseButtonOffersNo0L.png' class='respPic'></div></div>","1","3","Timothy","9","Kept","0.2,0.65","10","0.2","trustrating_stim/white_00120_931230_fa_edt.bmp","5.5","38","9"
"html-keyboard-response","162","219487","0.0-19.0-2.8","63d7a0c6fe36d852418ac97a","bdp_trlrn","Wed Mar 15 2023 23:19:58 GMT-0400 (Eastern Daylight Time)","458958","Untrustworthy,Trustworthy","","null","","","","decisionFB","","<div class='trialDiv'><img src='trustrating_stim/white_00120_931230_fa_edt.bmp'><br><font class='baseline'><strong>Timothy</strong><p>Choose number of points to send.</font><div class='respPicDiv'><img src='img/responseButtonOffersNo0L1.png' class='respPic'></div></div>","null","3","Timothy","9","Kept","0.2,0.65","10","0.2","trustrating_stim/white_00120_931230_fa_edt.bmp","5.5","37","9"
"html-keyboard-response","163","220489","0.0-19.0-3.8","63d7a0c6fe36d852418ac97a","bdp_trlrn","Wed Mar 15 2023 23:19:58 GMT-0400 (Eastern Daylight Time)","458958","Untrustworthy,Trustworthy","","null","","","","feedback","","<div class='trialDiv'><img src='trustrating_stim/white_00120_931230_fa_edt.bmp'><br><font class='baseline'><strong>Timothy</strong><p>Received: <strong>4</strong></font> &nbsp; &nbsp; &nbsp; &nbsp; &nbsp; &nbsp;<font class='negOutcome'>Shared back: <strong>0</strong></font></font><div class='respPicDiv'><img src='img/responseButtonOffersNo0_wht.png' class='respPic'></div></div>","null","3","Timothy","9","Kept","0.2,0.65","10","0.2","trustrating_stim/white_00120_931230_fa_edt.bmp","5.5","37","9"
"html-keyboard-response","164","221257","0.0-19.0-1.9","63d7a0c6fe36d852418ac97a","bdp_trlrn","Wed Mar 15 2023 23:19:58 GMT-0400 (Eastern Daylight Time)","458958","Untrustworthy,Trustworthy","","766","","","","decision","","<div class='trialDiv'><img src='trustrating_stim/white_00340_940422_fa_edt.bmp'><br><font class='baseline'><strong>Benjamin</strong><p>Choose number of points to send.</font><div class='respPicDiv'><img src='img/responseButtonOffersNo0L.png' class='respPic'></div></div>","1","4","Benjamin","7","Kept","0.2,0.8","13","0.2","trustrating_stim/white_00340_940422_fa_edt.bmp","2.5","42","10"
"html-keyboard-response","165","221509","0.0-19.0-2.9","63d7a0c6fe36d852418ac97a","bdp_trlrn","Wed Mar 15 2023 23:19:58 GMT-0400 (Eastern Daylight Time)","458958","Untrustworthy,Trustworthy","","null","","","","decisionFB","","<div class='trialDiv'><img src='trustrating_stim/white_00340_940422_fa_edt.bmp'><br><font class='baseline'><strong>Benjamin</strong><p>Choose number of points to send.</font><div class='respPicDiv'><img src='img/responseButtonOffersNo0L1.png' class='respPic'></div></div>","null","4","Benjamin","7","Kept","0.2,0.8","13","0.2","trustrating_stim/white_00340_940422_fa_edt.bmp","2.5","41","10"
"html-keyboard-response","166","222518","0.0-19.0-3.9","63d7a0c6fe36d852418ac97a","bdp_trlrn","Wed Mar 15 2023 23:19:58 GMT-0400 (Eastern Daylight Time)","458958","Untrustworthy,Trustworthy","","null","","","","feedback","","<div class='trialDiv'><img src='trustrating_stim/white_00340_940422_fa_edt.bmp'><br><font class='baseline'><strong>Benjamin</strong><p>Received: <strong>4</strong></font> &nbsp; &nbsp; &nbsp; &nbsp; &nbsp; &nbsp;<font class='negOutcome'>Shared back: <strong>0</strong></font></font><div class='respPicDiv'><img src='img/responseButtonOffersNo0_wht.png' class='respPic'></div></div>","null","4","Benjamin","7","Kept","0.2,0.8","13","0.2","trustrating_stim/white_00340_940422_fa_edt.bmp","2.5","41","10"
"html-keyboard-response","167","224448","0.0-19.0-1.10","63d7a0c6fe36d852418ac97a","bdp_trlrn","Wed Mar 15 2023 23:19:58 GMT-0400 (Eastern Daylight Time)","458958","Untrustworthy,Trustworthy","","1928","","","","decision","","<div class='trialDiv'><img src='trustrating_stim/white_mw099.bmp'><br><font class='baseline'><strong>Sebastian</strong><p>Choose number of points to send.</font><div class='respPicDiv'><img src='img/responseButtonOffersNo0L.png' class='respPic'></div></div>","5","4","Sebastian","0","Shared","0.65,0.2","14","0.65","trustrating_stim/white_mw099.bmp","1","46","11"
"html-keyboard-response","168","224700","0.0-19.0-2.10","63d7a0c6fe36d852418ac97a","bdp_trlrn","Wed Mar 15 2023 23:19:58 GMT-0400 (Eastern Daylight Time)","458958","Untrustworthy,Trustworthy","","null","","","","decisionFB","","<div class='trialDiv'><img src='trustrating_stim/white_mw099.bmp'><br><font class='baseline'><strong>Sebastian</strong><p>Choose number of points to send.</font><div class='respPicDiv'><img src='img/responseButtonOffersNo0L5.png' class='respPic'></div></div>","null","4","Sebastian","0","Shared","0.65,0.2","14","0.65","trustrating_stim/white_mw099.bmp","1","41","11"
"html-keyboard-response","169","225702","0.0-19.0-3.10","63d7a0c6fe36d852418ac97a","bdp_trlrn","Wed Mar 15 2023 23:19:58 GMT-0400 (Eastern Daylight Time)","458958","Untrustworthy,Trustworthy","","null","","","","feedback","","<div class='trialDiv'><img src='trustrating_stim/white_mw099.bmp'><br><font class='baseline'><strong>Sebastian</strong><p>Received: <strong>20</strong></font> &nbsp; &nbsp; &nbsp; &nbsp; &nbsp; &nbsp;<font class='posOutcome'>Shared back: <strong>10</strong></font></font><div class='respPicDiv'><img src='img/responseButtonOffersNo0_wht.png' class='respPic'></div></div>","null","4","Sebastian","0","Shared","0.65,0.2","14","0.65","trustrating_stim/white_mw099.bmp","1","51","11"
"html-keyboard-response","170","226403","0.0-19.0-1.11","63d7a0c6fe36d852418ac97a","bdp_trlrn","Wed Mar 15 2023 23:19:58 GMT-0400 (Eastern Daylight Time)","458958","Untrustworthy,Trustworthy","","700","","","","decision","","<div class='trialDiv'><img src='trustrating_stim/white_00120_931230_fa_edt.bmp'><br><font class='baseline'><strong>Timothy</strong><p>Choose number of points to send.</font><div class='respPicDiv'><img src='img/responseButtonOffersNo0L.png' class='respPic'></div></div>","1","4","Timothy","9","Kept","0.2,0.65","10","0.2","trustrating_stim/white_00120_931230_fa_edt.bmp","5.5","56","12"
"html-keyboard-response","171","226655","0.0-19.0-2.11","63d7a0c6fe36d852418ac97a","bdp_trlrn","Wed Mar 15 2023 23:19:58 GMT-0400 (Eastern Daylight Time)","458958","Untrustworthy,Trustworthy","","null","","","","decisionFB","","<div class='trialDiv'><img src='trustrating_stim/white_00120_931230_fa_edt.bmp'><br><font class='baseline'><strong>Timothy</strong><p>Choose number of points to send.</font><div class='respPicDiv'><img src='img/responseButtonOffersNo0L1.png' class='respPic'></div></div>","null","4","Timothy","9","Kept","0.2,0.65","10","0.2","trustrating_stim/white_00120_931230_fa_edt.bmp","5.5","55","12"
"html-keyboard-response","172","227658","0.0-19.0-3.11","63d7a0c6fe36d852418ac97a","bdp_trlrn","Wed Mar 15 2023 23:19:58 GMT-0400 (Eastern Daylight Time)","458958","Untrustworthy,Trustworthy","","null","","","","feedback","","<div class='trialDiv'><img src='trustrating_stim/white_00120_931230_fa_edt.bmp'><br><font class='baseline'><strong>Timothy</strong><p>Received: <strong>4</strong></font> &nbsp; &nbsp; &nbsp; &nbsp; &nbsp; &nbsp;<font class='negOutcome'>Shared back: <strong>0</strong></font></font><div class='respPicDiv'><img src='img/responseButtonOffersNo0_wht.png' class='respPic'></div></div>","null","4","Timothy","9","Kept","0.2,0.65","10","0.2","trustrating_stim/white_00120_931230_fa_edt.bmp","5.5","55","12"
"html-keyboard-response","173","228192","0.0-19.0-1.12","63d7a0c6fe36d852418ac97a","bdp_trlrn","Wed Mar 15 2023 23:19:58 GMT-0400 (Eastern Daylight Time)","458958","Untrustworthy,Trustworthy","","533","","","","decision","","<div class='trialDiv'><img src='trustrating_stim/white_00340_940422_fa_edt.bmp'><br><font class='baseline'><strong>Benjamin</strong><p>Choose number of points to send.</font><div class='respPicDiv'><img src='img/responseButtonOffersNo0L.png' class='respPic'></div></div>","1","5","Benjamin","7","Shared","0.2,0.8","13","0.2","trustrating_stim/white_00340_940422_fa_edt.bmp","2.5","60","13"
"html-keyboard-response","174","228443","0.0-19.0-2.12","63d7a0c6fe36d852418ac97a","bdp_trlrn","Wed Mar 15 2023 23:19:58 GMT-0400 (Eastern Daylight Time)","458958","Untrustworthy,Trustworthy","","null","","","","decisionFB","","<div class='trialDiv'><img src='trustrating_stim/white_00340_940422_fa_edt.bmp'><br><font class='baseline'><strong>Benjamin</strong><p>Choose number of points to send.</font><div class='respPicDiv'><img src='img/responseButtonOffersNo0L1.png' class='respPic'></div></div>","null","5","Benjamin","7","Shared","0.2,0.8","13","0.2","trustrating_stim/white_00340_940422_fa_edt.bmp","2.5","59","13"
"html-keyboard-response","175","229445","0.0-19.0-3.12","63d7a0c6fe36d852418ac97a","bdp_trlrn","Wed Mar 15 2023 23:19:58 GMT-0400 (Eastern Daylight Time)","458958","Untrustworthy,Trustworthy","","null","","","","feedback","","<div class='trialDiv'><img src='trustrating_stim/white_00340_940422_fa_edt.bmp'><br><font class='baseline'><strong>Benjamin</strong><p>Received: <strong>4</strong></font> &nbsp; &nbsp; &nbsp; &nbsp; &nbsp; &nbsp;<font class='posOutcome'>Shared back: <strong>2</strong></font></font><div class='respPicDiv'><img src='img/responseButtonOffersNo0_wht.png' class='respPic'></div></div>","null","5","Benjamin","7","Shared","0.2,0.8","13","0.2","trustrating_stim/white_00340_940422_fa_edt.bmp","2.5","61","13"
"html-keyboard-response","176","230165","0.0-19.0-1.13","63d7a0c6fe36d852418ac97a","bdp_trlrn","Wed Mar 15 2023 23:19:58 GMT-0400 (Eastern Daylight Time)","458958","Untrustworthy,Trustworthy","","719","","","","decision","","<div class='trialDiv'><img src='trustrating_stim/white_00120_931230_fa_edt.bmp'><br><font class='baseline'><strong>Timothy</strong><p>Choose number of points to send.</font><div class='respPicDiv'><img src='img/responseButtonOffersNo0L.png' class='respPic'></div></div>","1","5","Timothy","9","Kept","0.2,0.65","10","0.2","trustrating_stim/white_00120_931230_fa_edt.bmp","5.5","66","14"
"html-keyboard-response","177","230417","0.0-19.0-2.13","63d7a0c6fe36d852418ac97a","bdp_trlrn","Wed Mar 15 2023 23:19:58 GMT-0400 (Eastern Daylight Time)","458958","Untrustworthy,Trustworthy","","null","","","","decisionFB","","<div class='trialDiv'><img src='trustrating_stim/white_00120_931230_fa_edt.bmp'><br><font class='baseline'><strong>Timothy</strong><p>Choose number of points to send.</font><div class='respPicDiv'><img src='img/responseButtonOffersNo0L1.png' class='respPic'></div></div>","null","5","Timothy","9","Kept","0.2,0.65","10","0.2","trustrating_stim/white_00120_931230_fa_edt.bmp","5.5","65","14"
"html-keyboard-response","178","231421","0.0-19.0-3.13","63d7a0c6fe36d852418ac97a","bdp_trlrn","Wed Mar 15 2023 23:19:58 GMT-0400 (Eastern Daylight Time)","458958","Untrustworthy,Trustworthy","","null","","","","feedback","","<div class='trialDiv'><img src='trustrating_stim/white_00120_931230_fa_edt.bmp'><br><font class='baseline'><strong>Timothy</strong><p>Received: <strong>4</strong></font> &nbsp; &nbsp; &nbsp; &nbsp; &nbsp; &nbsp;<font class='negOutcome'>Shared back: <strong>0</strong></font></font><div class='respPicDiv'><img src='img/responseButtonOffersNo0_wht.png' class='respPic'></div></div>","null","5","Timothy","9","Kept","0.2,0.65","10","0.2","trustrating_stim/white_00120_931230_fa_edt.bmp","5.5","65","14"
"html-keyboard-response","179","232542","0.0-19.0-1.14","63d7a0c6fe36d852418ac97a","bdp_trlrn","Wed Mar 15 2023 23:19:58 GMT-0400 (Eastern Daylight Time)","458958","Untrustworthy,Trustworthy","","1120","","","","decision","","<div class='trialDiv'><img src='trustrating_stim/white_mw099.bmp'><br><font class='baseline'><strong>Sebastian</strong><p>Choose number of points to send.</font><div class='respPicDiv'><img src='img/responseButtonOffersNo0L.png' class='respPic'></div></div>","5","5","Sebastian","0","Shared","0.65,0.2","14","0.65","trustrating_stim/white_mw099.bmp","1","70","15"
"html-keyboard-response","180","232794","0.0-19.0-2.14","63d7a0c6fe36d852418ac97a","bdp_trlrn","Wed Mar 15 2023 23:19:58 GMT-0400 (Eastern Daylight Time)","458958","Untrustworthy,Trustworthy","","null","","","","decisionFB","","<div class='trialDiv'><img src='trustrating_stim/white_mw099.bmp'><br><font class='baseline'><strong>Sebastian</strong><p>Choose number of points to send.</font><div class='respPicDiv'><img src='img/responseButtonOffersNo0L5.png' class='respPic'></div></div>","null","5","Sebastian","0","Shared","0.65,0.2","14","0.65","trustrating_stim/white_mw099.bmp","1","65","15"
"html-keyboard-response","181","233797","0.0-19.0-3.14","63d7a0c6fe36d852418ac97a","bdp_trlrn","Wed Mar 15 2023 23:19:58 GMT-0400 (Eastern Daylight Time)","458958","Untrustworthy,Trustworthy","","null","","","","feedback","","<div class='trialDiv'><img src='trustrating_stim/white_mw099.bmp'><br><font class='baseline'><strong>Sebastian</strong><p>Received: <strong>20</strong></font> &nbsp; &nbsp; &nbsp; &nbsp; &nbsp; &nbsp;<font class='posOutcome'>Shared back: <strong>10</strong></font></font><div class='respPicDiv'><img src='img/responseButtonOffersNo0_wht.png' class='respPic'></div></div>","null","5","Sebastian","0","Shared","0.65,0.2","14","0.65","trustrating_stim/white_mw099.bmp","1","75","15"
"html-keyboard-response","182","234559","0.0-19.0-1.15","63d7a0c6fe36d852418ac97a","bdp_trlrn","Wed Mar 15 2023 23:19:58 GMT-0400 (Eastern Daylight Time)","458958","Untrustworthy,Trustworthy","","760","","","","decision","","<div class='trialDiv'><img src='trustrating_stim/white_00340_940422_fa_edt.bmp'><br><font class='baseline'><strong>Benjamin</strong><p>Choose number of points to send.</font><div class='respPicDiv'><img src='img/responseButtonOffersNo0L.png' class='respPic'></div></div>","1","6","Benjamin","7","Kept","0.2,0.8","13","0.2","trustrating_stim/white_00340_940422_fa_edt.bmp","2.5","80","16"
"html-keyboard-response","183","234811","0.0-19.0-2.15","63d7a0c6fe36d852418ac97a","bdp_trlrn","Wed Mar 15 2023 23:19:58 GMT-0400 (Eastern Daylight Time)","458958","Untrustworthy,Trustworthy","","null","","","","decisionFB","","<div class='trialDiv'><img src='trustrating_stim/white_00340_940422_fa_edt.bmp'><br><font class='baseline'><strong>Benjamin</strong><p>Choose number of points to send.</font><div class='respPicDiv'><img src='img/responseButtonOffersNo0L1.png' class='respPic'></div></div>","null","6","Benjamin","7","Kept","0.2,0.8","13","0.2","trustrating_stim/white_00340_940422_fa_edt.bmp","2.5","79","16"
"html-keyboard-response","184","235813","0.0-19.0-3.15","63d7a0c6fe36d852418ac97a","bdp_trlrn","Wed Mar 15 2023 23:19:58 GMT-0400 (Eastern Daylight Time)","458958","Untrustworthy,Trustworthy","","null","","","","feedback","","<div class='trialDiv'><img src='trustrating_stim/white_00340_940422_fa_edt.bmp'><br><font class='baseline'><strong>Benjamin</strong><p>Received: <strong>4</strong></font> &nbsp; &nbsp; &nbsp; &nbsp; &nbsp; &nbsp;<font class='negOutcome'>Shared back: <strong>0</strong></font></font><div class='respPicDiv'><img src='img/responseButtonOffersNo0_wht.png' class='respPic'></div></div>","null","6","Benjamin","7","Kept","0.2,0.8","13","0.2","trustrating_stim/white_00340_940422_fa_edt.bmp","2.5","79","16"
"html-keyboard-response","185","236786","0.0-19.0-1.16","63d7a0c6fe36d852418ac97a","bdp_trlrn","Wed Mar 15 2023 23:19:58 GMT-0400 (Eastern Daylight Time)","458958","Untrustworthy,Trustworthy","","971","","","","decision","","<div class='trialDiv'><img src='trustrating_stim/white_mw099.bmp'><br><font class='baseline'><strong>Sebastian</strong><p>Choose number of points to send.</font><div class='respPicDiv'><img src='img/responseButtonOffersNo0L.png' class='respPic'></div></div>","5","6","Sebastian","0","Kept","0.65,0.2","14","0.65","trustrating_stim/white_mw099.bmp","1","84","17"
"html-keyboard-response","186","237038","0.0-19.0-2.16","63d7a0c6fe36d852418ac97a","bdp_trlrn","Wed Mar 15 2023 23:19:58 GMT-0400 (Eastern Daylight Time)","458958","Untrustworthy,Trustworthy","","null","","","","decisionFB","","<div class='trialDiv'><img src='trustrating_stim/white_mw099.bmp'><br><font class='baseline'><strong>Sebastian</strong><p>Choose number of points to send.</font><div class='respPicDiv'><img src='img/responseButtonOffersNo0L5.png' class='respPic'></div></div>","null","6","Sebastian","0","Kept","0.65,0.2","14","0.65","trustrating_stim/white_mw099.bmp","1","79","17"
"html-keyboard-response","187","238040","0.0-19.0-3.16","63d7a0c6fe36d852418ac97a","bdp_trlrn","Wed Mar 15 2023 23:19:58 GMT-0400 (Eastern Daylight Time)","458958","Untrustworthy,Trustworthy","","null","","","","feedback","","<div class='trialDiv'><img src='trustrating_stim/white_mw099.bmp'><br><font class='baseline'><strong>Sebastian</strong><p>Received: <strong>20</strong></font> &nbsp; &nbsp; &nbsp; &nbsp; &nbsp; &nbsp;<font class='negOutcome'>Shared back: <strong>0</strong></font></font><div class='respPicDiv'><img src='img/responseButtonOffersNo0_wht.png' class='respPic'></div></div>","null","6","Sebastian","0","Kept","0.65,0.2","14","0.65","trustrating_stim/white_mw099.bmp","1","79","17"
"html-keyboard-response","188","238581","0.0-19.0-1.17","63d7a0c6fe36d852418ac97a","bdp_trlrn","Wed Mar 15 2023 23:19:58 GMT-0400 (Eastern Daylight Time)","458958","Untrustworthy,Trustworthy","","539","","","","decision","","<div class='trialDiv'><img src='trustrating_stim/white_00120_931230_fa_edt.bmp'><br><font class='baseline'><strong>Timothy</strong><p>Choose number of points to send.</font><div class='respPicDiv'><img src='img/responseButtonOffersNo0L.png' class='respPic'></div></div>","1","6","Timothy","9","Shared","0.2,0.65","10","0.2","trustrating_stim/white_00120_931230_fa_edt.bmp","5.5","84","18"
"html-keyboard-response","189","238832","0.0-19.0-2.17","63d7a0c6fe36d852418ac97a","bdp_trlrn","Wed Mar 15 2023 23:19:58 GMT-0400 (Eastern Daylight Time)","458958","Untrustworthy,Trustworthy","","null","","","","decisionFB","","<div class='trialDiv'><img src='trustrating_stim/white_00120_931230_fa_edt.bmp'><br><font class='baseline'><strong>Timothy</strong><p>Choose number of points to send.</font><div class='respPicDiv'><img src='img/responseButtonOffersNo0L1.png' class='respPic'></div></div>","null","6","Timothy","9","Shared","0.2,0.65","10","0.2","trustrating_stim/white_00120_931230_fa_edt.bmp","5.5","83","18"
"html-keyboard-response","190","239835","0.0-19.0-3.17","63d7a0c6fe36d852418ac97a","bdp_trlrn","Wed Mar 15 2023 23:19:58 GMT-0400 (Eastern Daylight Time)","458958","Untrustworthy,Trustworthy","","null","","","","feedback","","<div class='trialDiv'><img src='trustrating_stim/white_00120_931230_fa_edt.bmp'><br><font class='baseline'><strong>Timothy</strong><p>Received: <strong>4</strong></font> &nbsp; &nbsp; &nbsp; &nbsp; &nbsp; &nbsp;<font class='posOutcome'>Shared back: <strong>2</strong></font></font><div class='respPicDiv'><img src='img/responseButtonOffersNo0_wht.png' class='respPic'></div></div>","null","6","Timothy","9","Shared","0.2,0.65","10","0.2","trustrating_stim/white_00120_931230_fa_edt.bmp","5.5","85","18"
"html-keyboard-response","191","240514","0.0-19.0-1.18","63d7a0c6fe36d852418ac97a","bdp_trlrn","Wed Mar 15 2023 23:19:58 GMT-0400 (Eastern Daylight Time)","458958","Untrustworthy,Trustworthy","","677","","","","decision","","<div class='trialDiv'><img src='trustrating_stim/white_mw099.bmp'><br><font class='baseline'><strong>Sebastian</strong><p>Choose number of points to send.</font><div class='respPicDiv'><img src='img/responseButtonOffersNo0L.png' class='respPic'></div></div>","5","7","Sebastian","0","Kept","0.65,0.2","14","0.65","trustrating_stim/white_mw099.bmp","1","90","19"
"html-keyboard-response","192","240769","0.0-19.0-2.18","63d7a0c6fe36d852418ac97a","bdp_trlrn","Wed Mar 15 2023 23:19:58 GMT-0400 (Eastern Daylight Time)","458958","Untrustworthy,Trustworthy","","null","","","","decisionFB","","<div class='trialDiv'><img src='trustrating_stim/white_mw099.bmp'><br><font class='baseline'><strong>Sebastian</strong><p>Choose number of points to send.</font><div class='respPicDiv'><img src='img/responseButtonOffersNo0L5.png' class='respPic'></div></div>","null","7","Sebastian","0","Kept","0.65,0.2","14","0.65","trustrating_stim/white_mw099.bmp","1","85","19"
"html-keyboard-response","193","241771","0.0-19.0-3.18","63d7a0c6fe36d852418ac97a","bdp_trlrn","Wed Mar 15 2023 23:19:58 GMT-0400 (Eastern Daylight Time)","458958","Untrustworthy,Trustworthy","","null","","","","feedback","","<div class='trialDiv'><img src='trustrating_stim/white_mw099.bmp'><br><font class='baseline'><strong>Sebastian</strong><p>Received: <strong>20</strong></font> &nbsp; &nbsp; &nbsp; &nbsp; &nbsp; &nbsp;<font class='negOutcome'>Shared back: <strong>0</strong></font></font><div class='respPicDiv'><img src='img/responseButtonOffersNo0_wht.png' class='respPic'></div></div>","null","7","Sebastian","0","Kept","0.65,0.2","14","0.65","trustrating_stim/white_mw099.bmp","1","85","19"
"html-keyboard-response","194","242118","0.0-19.0-1.19","63d7a0c6fe36d852418ac97a","bdp_trlrn","Wed Mar 15 2023 23:19:58 GMT-0400 (Eastern Daylight Time)","458958","Untrustworthy,Trustworthy","","347","","","","decision","","<div class='trialDiv'><img src='trustrating_stim/white_00120_931230_fa_edt.bmp'><br><font class='baseline'><strong>Timothy</strong><p>Choose number of points to send.</font><div class='respPicDiv'><img src='img/responseButtonOffersNo0L.png' class='respPic'></div></div>","1","7","Timothy","9","Kept","0.2,0.65","10","0.2","trustrating_stim/white_00120_931230_fa_edt.bmp","5.5","90","20"
"html-keyboard-response","195","242371","0.0-19.0-2.19","63d7a0c6fe36d852418ac97a","bdp_trlrn","Wed Mar 15 2023 23:19:58 GMT-0400 (Eastern Daylight Time)","458958","Untrustworthy,Trustworthy","","null","","","","decisionFB","","<div class='trialDiv'><img src='trustrating_stim/white_00120_931230_fa_edt.bmp'><br><font class='baseline'><strong>Timothy</strong><p>Choose number of points to send.</font><div class='respPicDiv'><img src='img/responseButtonOffersNo0L1.png' class='respPic'></div></div>","null","7","Timothy","9","Kept","0.2,0.65","10","0.2","trustrating_stim/white_00120_931230_fa_edt.bmp","5.5","89","20"
"html-keyboard-response","196","243374","0.0-19.0-3.19","63d7a0c6fe36d852418ac97a","bdp_trlrn","Wed Mar 15 2023 23:19:58 GMT-0400 (Eastern Daylight Time)","458958","Untrustworthy,Trustworthy","","null","","","","feedback","","<div class='trialDiv'><img src='trustrating_stim/white_00120_931230_fa_edt.bmp'><br><font class='baseline'><strong>Timothy</strong><p>Received: <strong>4</strong></font> &nbsp; &nbsp; &nbsp; &nbsp; &nbsp; &nbsp;<font class='negOutcome'>Shared back: <strong>0</strong></font></font><div class='respPicDiv'><img src='img/responseButtonOffersNo0_wht.png' class='respPic'></div></div>","null","7","Timothy","9","Kept","0.2,0.65","10","0.2","trustrating_stim/white_00120_931230_fa_edt.bmp","5.5","89","20"
"html-keyboard-response","197","243898","0.0-19.0-1.20","63d7a0c6fe36d852418ac97a","bdp_trlrn","Wed Mar 15 2023 23:19:58 GMT-0400 (Eastern Daylight Time)","458958","Untrustworthy,Trustworthy","","523","","","","decision","","<div class='trialDiv'><img src='trustrating_stim/white_00340_940422_fa_edt.bmp'><br><font class='baseline'><strong>Benjamin</strong><p>Choose number of points to send.</font><div class='respPicDiv'><img src='img/responseButtonOffersNo0L.png' class='respPic'></div></div>","1","7","Benjamin","7","Kept","0.2,0.8","13","0.2","trustrating_stim/white_00340_940422_fa_edt.bmp","2.5","94","21"
"html-keyboard-response","198","244151","0.0-19.0-2.20","63d7a0c6fe36d852418ac97a","bdp_trlrn","Wed Mar 15 2023 23:19:58 GMT-0400 (Eastern Daylight Time)","458958","Untrustworthy,Trustworthy","","null","","","","decisionFB","","<div class='trialDiv'><img src='trustrating_stim/white_00340_940422_fa_edt.bmp'><br><font class='baseline'><strong>Benjamin</strong><p>Choose number of points to send.</font><div class='respPicDiv'><img src='img/responseButtonOffersNo0L1.png' class='respPic'></div></div>","null","7","Benjamin","7","Kept","0.2,0.8","13","0.2","trustrating_stim/white_00340_940422_fa_edt.bmp","2.5","93","21"
"html-keyboard-response","199","245153","0.0-19.0-3.20","63d7a0c6fe36d852418ac97a","bdp_trlrn","Wed Mar 15 2023 23:19:58 GMT-0400 (Eastern Daylight Time)","458958","Untrustworthy,Trustworthy","","null","","","","feedback","","<div class='trialDiv'><img src='trustrating_stim/white_00340_940422_fa_edt.bmp'><br><font class='baseline'><strong>Benjamin</strong><p>Received: <strong>4</strong></font> &nbsp; &nbsp; &nbsp; &nbsp; &nbsp; &nbsp;<font class='negOutcome'>Shared back: <strong>0</strong></font></font><div class='respPicDiv'><img src='img/responseButtonOffersNo0_wht.png' class='respPic'></div></div>","null","7","Benjamin","7","Kept","0.2,0.8","13","0.2","trustrating_stim/white_00340_940422_fa_edt.bmp","2.5","93","21"
"html-keyboard-response","200","245825","0.0-19.0-1.21","63d7a0c6fe36d852418ac97a","bdp_trlrn","Wed Mar 15 2023 23:19:58 GMT-0400 (Eastern Daylight Time)","458958","Untrustworthy,Trustworthy","","671","","","","decision","","<div class='trialDiv'><img src='trustrating_stim/white_00120_931230_fa_edt.bmp'><br><font class='baseline'><strong>Timothy</strong><p>Choose number of points to send.</font><div class='respPicDiv'><img src='img/responseButtonOffersNo0L.png' class='respPic'></div></div>","1","8","Timothy","9","Shared","0.2,0.65","10","0.2","trustrating_stim/white_00120_931230_fa_edt.bmp","5.5","98","22"
"html-keyboard-response","201","246077","0.0-19.0-2.21","63d7a0c6fe36d852418ac97a","bdp_trlrn","Wed Mar 15 2023 23:19:58 GMT-0400 (Eastern Daylight Time)","458958","Untrustworthy,Trustworthy","","null","","","","decisionFB","","<div class='trialDiv'><img src='trustrating_stim/white_00120_931230_fa_edt.bmp'><br><font class='baseline'><strong>Timothy</strong><p>Choose number of points to send.</font><div class='respPicDiv'><img src='img/responseButtonOffersNo0L1.png' class='respPic'></div></div>","null","8","Timothy","9","Shared","0.2,0.65","10","0.2","trustrating_stim/white_00120_931230_fa_edt.bmp","5.5","97","22"
"html-keyboard-response","202","247079","0.0-19.0-3.21","63d7a0c6fe36d852418ac97a","bdp_trlrn","Wed Mar 15 2023 23:19:58 GMT-0400 (Eastern Daylight Time)","458958","Untrustworthy,Trustworthy","","null","","","","feedback","","<div class='trialDiv'><img src='trustrating_stim/white_00120_931230_fa_edt.bmp'><br><font class='baseline'><strong>Timothy</strong><p>Received: <strong>4</strong></font> &nbsp; &nbsp; &nbsp; &nbsp; &nbsp; &nbsp;<font class='posOutcome'>Shared back: <strong>2</strong></font></font><div class='respPicDiv'><img src='img/responseButtonOffersNo0_wht.png' class='respPic'></div></div>","null","8","Timothy","9","Shared","0.2,0.65","10","0.2","trustrating_stim/white_00120_931230_fa_edt.bmp","5.5","99","22"
"html-keyboard-response","203","247760","0.0-19.0-1.22","63d7a0c6fe36d852418ac97a","bdp_trlrn","Wed Mar 15 2023 23:19:58 GMT-0400 (Eastern Daylight Time)","458958","Untrustworthy,Trustworthy","","679","","","","decision","","<div class='trialDiv'><img src='trustrating_stim/white_00340_940422_fa_edt.bmp'><br><font class='baseline'><strong>Benjamin</strong><p>Choose number of points to send.</font><div class='respPicDiv'><img src='img/responseButtonOffersNo0L.png' class='respPic'></div></div>","1","8","Benjamin","7","Shared","0.2,0.8","13","0.2","trustrating_stim/white_00340_940422_fa_edt.bmp","2.5","104","23"
"html-keyboard-response","204","248012","0.0-19.0-2.22","63d7a0c6fe36d852418ac97a","bdp_trlrn","Wed Mar 15 2023 23:19:58 GMT-0400 (Eastern Daylight Time)","458958","Untrustworthy,Trustworthy","","null","","","","decisionFB","","<div class='trialDiv'><img src='trustrating_stim/white_00340_940422_fa_edt.bmp'><br><font class='baseline'><strong>Benjamin</strong><p>Choose number of points to send.</font><div class='respPicDiv'><img src='img/responseButtonOffersNo0L1.png' class='respPic'></div></div>","null","8","Benjamin","7","Shared","0.2,0.8","13","0.2","trustrating_stim/white_00340_940422_fa_edt.bmp","2.5","103","23"
"html-keyboard-response","205","249014","0.0-19.0-3.22","63d7a0c6fe36d852418ac97a","bdp_trlrn","Wed Mar 15 2023 23:19:58 GMT-0400 (Eastern Daylight Time)","458958","Untrustworthy,Trustworthy","","null","","","","feedback","","<div class='trialDiv'><img src='trustrating_stim/white_00340_940422_fa_edt.bmp'><br><font class='baseline'><strong>Benjamin</strong><p>Received: <strong>4</strong></font> &nbsp; &nbsp; &nbsp; &nbsp; &nbsp; &nbsp;<font class='posOutcome'>Shared back: <strong>2</strong></font></font><div class='respPicDiv'><img src='img/responseButtonOffersNo0_wht.png' class='respPic'></div></div>","null","8","Benjamin","7","Shared","0.2,0.8","13","0.2","trustrating_stim/white_00340_940422_fa_edt.bmp","2.5","105","23"
"html-keyboard-response","206","249417","0.0-19.0-1.23","63d7a0c6fe36d852418ac97a","bdp_trlrn","Wed Mar 15 2023 23:19:58 GMT-0400 (Eastern Daylight Time)","458958","Untrustworthy,Trustworthy","","401","","","","decision","","<div class='trialDiv'><img src='trustrating_stim/white_mw099.bmp'><br><font class='baseline'><strong>Sebastian</strong><p>Choose number of points to send.</font><div class='respPicDiv'><img src='img/responseButtonOffersNo0L.png' class='respPic'></div></div>","5","8","Sebastian","0","Shared","0.65,0.2","14","0.65","trustrating_stim/white_mw099.bmp","1","110","24"
"html-keyboard-response","207","249669","0.0-19.0-2.23","63d7a0c6fe36d852418ac97a","bdp_trlrn","Wed Mar 15 2023 23:19:58 GMT-0400 (Eastern Daylight Time)","458958","Untrustworthy,Trustworthy","","null","","","","decisionFB","","<div class='trialDiv'><img src='trustrating_stim/white_mw099.bmp'><br><font class='baseline'><strong>Sebastian</strong><p>Choose number of points to send.</font><div class='respPicDiv'><img src='img/responseButtonOffersNo0L5.png' class='respPic'></div></div>","null","8","Sebastian","0","Shared","0.65,0.2","14","0.65","trustrating_stim/white_mw099.bmp","1","105","24"
"html-keyboard-response","208","250672","0.0-19.0-3.23","63d7a0c6fe36d852418ac97a","bdp_trlrn","Wed Mar 15 2023 23:19:58 GMT-0400 (Eastern Daylight Time)","458958","Untrustworthy,Trustworthy","","null","","","","feedback","","<div class='trialDiv'><img src='trustrating_stim/white_mw099.bmp'><br><font class='baseline'><strong>Sebastian</strong><p>Received: <strong>20</strong></font> &nbsp; &nbsp; &nbsp; &nbsp; &nbsp; &nbsp;<font class='posOutcome'>Shared back: <strong>10</strong></font></font><div class='respPicDiv'><img src='img/responseButtonOffersNo0_wht.png' class='respPic'></div></div>","null","8","Sebastian","0","Shared","0.65,0.2","14","0.65","trustrating_stim/white_mw099.bmp","1","115","24"
"html-keyboard-response","209","251265","0.0-19.0-1.24","63d7a0c6fe36d852418ac97a","bdp_trlrn","Wed Mar 15 2023 23:19:58 GMT-0400 (Eastern Daylight Time)","458958","Untrustworthy,Trustworthy","","592","","","","decision","","<div class='trialDiv'><img src='trustrating_stim/white_00120_931230_fa_edt.bmp'><br><font class='baseline'><strong>Timothy</strong><p>Choose number of points to send.</font><div class='respPicDiv'><img src='img/responseButtonOffersNo0L.png' class='respPic'></div></div>","1","9","Timothy","9","Kept","0.2,0.65","10","0.2","trustrating_stim/white_00120_931230_fa_edt.bmp","5.5","120","25"
"html-keyboard-response","210","251519","0.0-19.0-2.24","63d7a0c6fe36d852418ac97a","bdp_trlrn","Wed Mar 15 2023 23:19:58 GMT-0400 (Eastern Daylight Time)","458958","Untrustworthy,Trustworthy","","null","","","","decisionFB","","<div class='trialDiv'><img src='trustrating_stim/white_00120_931230_fa_edt.bmp'><br><font class='baseline'><strong>Timothy</strong><p>Choose number of points to send.</font><div class='respPicDiv'><img src='img/responseButtonOffersNo0L1.png' class='respPic'></div></div>","null","9","Timothy","9","Kept","0.2,0.65","10","0.2","trustrating_stim/white_00120_931230_fa_edt.bmp","5.5","119","25"
"html-keyboard-response","211","252521","0.0-19.0-3.24","63d7a0c6fe36d852418ac97a","bdp_trlrn","Wed Mar 15 2023 23:19:58 GMT-0400 (Eastern Daylight Time)","458958","Untrustworthy,Trustworthy","","null","","","","feedback","","<div class='trialDiv'><img src='trustrating_stim/white_00120_931230_fa_edt.bmp'><br><font class='baseline'><strong>Timothy</strong><p>Received: <strong>4</strong></font> &nbsp; &nbsp; &nbsp; &nbsp; &nbsp; &nbsp;<font class='negOutcome'>Shared back: <strong>0</strong></font></font><div class='respPicDiv'><img src='img/responseButtonOffersNo0_wht.png' class='respPic'></div></div>","null","9","Timothy","9","Kept","0.2,0.65","10","0.2","trustrating_stim/white_00120_931230_fa_edt.bmp","5.5","119","25"
"html-keyboard-response","212","252858","0.0-19.0-1.25","63d7a0c6fe36d852418ac97a","bdp_trlrn","Wed Mar 15 2023 23:19:58 GMT-0400 (Eastern Daylight Time)","458958","Untrustworthy,Trustworthy","","334","","","","decision","","<div class='trialDiv'><img src='trustrating_stim/white_00340_940422_fa_edt.bmp'><br><font class='baseline'><strong>Benjamin</strong><p>Choose number of points to send.</font><div class='respPicDiv'><img src='img/responseButtonOffersNo0L.png' class='respPic'></div></div>","2","9","Benjamin","7","Kept","0.2,0.8","13","0.2","trustrating_stim/white_00340_940422_fa_edt.bmp","2.5","124","26"
"html-keyboard-response","213","253109","0.0-19.0-2.25","63d7a0c6fe36d852418ac97a","bdp_trlrn","Wed Mar 15 2023 23:19:58 GMT-0400 (Eastern Daylight Time)","458958","Untrustworthy,Trustworthy","","null","","","","decisionFB","","<div class='trialDiv'><img src='trustrating_stim/white_00340_940422_fa_edt.bmp'><br><font class='baseline'><strong>Benjamin</strong><p>Choose number of points to send.</font><div class='respPicDiv'><img src='img/responseButtonOffersNo0L2.png' class='respPic'></div></div>","null","9","Benjamin","7","Kept","0.2,0.8","13","0.2","trustrating_stim/white_00340_940422_fa_edt.bmp","2.5","122","26"
"html-keyboard-response","214","254112","0.0-19.0-3.25","63d7a0c6fe36d852418ac97a","bdp_trlrn","Wed Mar 15 2023 23:19:58 GMT-0400 (Eastern Daylight Time)","458958","Untrustworthy,Trustworthy","","null","","","","feedback","","<div class='trialDiv'><img src='trustrating_stim/white_00340_940422_fa_edt.bmp'><br><font class='baseline'><strong>Benjamin</strong><p>Received: <strong>8</strong></font> &nbsp; &nbsp; &nbsp; &nbsp; &nbsp; &nbsp;<font class='negOutcome'>Shared back: <strong>0</strong></font></font><div class='respPicDiv'><img src='img/responseButtonOffersNo0_wht.png' class='respPic'></div></div>","null","9","Benjamin","7","Kept","0.2,0.8","13","0.2","trustrating_stim/white_00340_940422_fa_edt.bmp","2.5","122","26"
"html-keyboard-response","215","254509","0.0-19.0-1.26","63d7a0c6fe36d852418ac97a","bdp_trlrn","Wed Mar 15 2023 23:19:58 GMT-0400 (Eastern Daylight Time)","458958","Untrustworthy,Trustworthy","","395","","","","decision","","<div class='trialDiv'><img src='trustrating_stim/white_mw099.bmp'><br><font class='baseline'><strong>Sebastian</strong><p>Choose number of points to send.</font><div class='respPicDiv'><img src='img/responseButtonOffersNo0L.png' class='respPic'></div></div>","5","9","Sebastian","0","Shared","0.65,0.2","14","0.65","trustrating_stim/white_mw099.bmp","1","127","27"
"html-keyboard-response","216","254772","0.0-19.0-2.26","63d7a0c6fe36d852418ac97a","bdp_trlrn","Wed Mar 15 2023 23:19:58 GMT-0400 (Eastern Daylight Time)","458958","Untrustworthy,Trustworthy","","null","","","","decisionFB","","<div class='trialDiv'><img src='trustrating_stim/white_mw099.bmp'><br><font class='baseline'><strong>Sebastian</strong><p>Choose number of points to send.</font><div class='respPicDiv'><img src='img/responseButtonOffersNo0L5.png' class='respPic'></div></div>","null","9","Sebastian","0","Shared","0.65,0.2","14","0.65","trustrating_stim/white_mw099.bmp","1","122","27"
"html-keyboard-response","217","255774","0.0-19.0-3.26","63d7a0c6fe36d852418ac97a","bdp_trlrn","Wed Mar 15 2023 23:19:58 GMT-0400 (Eastern Daylight Time)","458958","Untrustworthy,Trustworthy","","null","","","","feedback","","<div class='trialDiv'><img src='trustrating_stim/white_mw099.bmp'><br><font class='baseline'><strong>Sebastian</strong><p>Received: <strong>20</strong></font> &nbsp; &nbsp; &nbsp; &nbsp; &nbsp; &nbsp;<font class='posOutcome'>Shared back: <strong>10</strong></font></font><div class='respPicDiv'><img src='img/responseButtonOffersNo0_wht.png' class='respPic'></div></div>","null","9","Sebastian","0","Shared","0.65,0.2","14","0.65","trustrating_stim/white_mw099.bmp","1","132","27"
"html-keyboard-response","218","256161","0.0-19.0-1.27","63d7a0c6fe36d852418ac97a","bdp_trlrn","Wed Mar 15 2023 23:19:58 GMT-0400 (Eastern Daylight Time)","458958","Untrustworthy,Trustworthy","","386","","","","decision","","<div class='trialDiv'><img src='trustrating_stim/white_00340_940422_fa_edt.bmp'><br><font class='baseline'><strong>Benjamin</strong><p>Choose number of points to send.</font><div class='respPicDiv'><img src='img/responseButtonOffersNo0L.png' class='respPic'></div></div>","2","10","Benjamin","7","Kept","0.2,0.8","13","0.2","trustrating_stim/white_00340_940422_fa_edt.bmp","2.5","137","28"
"html-keyboard-response","219","256412","0.0-19.0-2.27","63d7a0c6fe36d852418ac97a","bdp_trlrn","Wed Mar 15 2023 23:19:58 GMT-0400 (Eastern Daylight Time)","458958","Untrustworthy,Trustworthy","","null","","","","decisionFB","","<div class='trialDiv'><img src='trustrating_stim/white_00340_940422_fa_edt.bmp'><br><font class='baseline'><strong>Benjamin</strong><p>Choose number of points to send.</font><div class='respPicDiv'><img src='img/responseButtonOffersNo0L2.png' class='respPic'></div></div>","null","10","Benjamin","7","Kept","0.2,0.8","13","0.2","trustrating_stim/white_00340_940422_fa_edt.bmp","2.5","135","28"
