"trial_type","trial_index","time_elapsed","internal_node_id","subject_id","task","startTime","totalTime","labels","view_history","rt","event","trial","time","trialtype","success","stimulus","key_press","aground","name","faceID","outcome","agenttype","agentswpt","agentcurrpshare","face","avgRating","point_total","round"
"pavlovia","0","3","0.0-0.0","5f4000a47ed89c0e7f2e3760","bdp_trlrn","Wed Mar 15 2023 14:37:04 GMT-0400 (Eastern Daylight Time)","650675","Trustworthy,Untrustworthy","","","","","","","","","","","","","","","","","","","",""
"instructions","1","6060","0.0-1.0","5f4000a47ed89c0e7f2e3760","bdp_trlrn","Wed Mar 15 2023 14:37:04 GMT-0400 (Eastern Daylight Time)","650675","Trustworthy,Untrustworthy","[{""page_index"":0,""viewing_time"":6057}]","6057","","","","","","","","","","","","","","","","","",""
"","","","","5f4000a47ed89c0e7f2e3760","bdp_trlrn","Wed Mar 15 2023 14:37:04 GMT-0400 (Eastern Daylight Time)","650675","Trustworthy,Untrustworthy","","","fullscreenenter","2","8397","fullscreenenter","","","","","","","","","","","","","",""
"fullscreen","2","9369","0.0-2.0","5f4000a47ed89c0e7f2e3760","bdp_trlrn","Wed Mar 15 2023 14:37:04 GMT-0400 (Eastern Daylight Time)","650675","Trustworthy,Untrustworthy","","","","","","","true","","","","","","","","","","","","",""
"instructions","3","48034","0.0-4.0","5f4000a47ed89c0e7f2e3760","bdp_trlrn","Wed Mar 15 2023 14:37:04 GMT-0400 (Eastern Daylight Time)","650675","Trustworthy,Untrustworthy","[{""page_index"":0,""viewing_time"":7999},{""page_index"":1,""viewing_time"":30664}]","38663","","","","","","","","","","","","","","","","","",""
"instructions","4","49105","0.0-5.0","5f4000a47ed89c0e7f2e3760","bdp_trlrn","Wed Mar 15 2023 14:37:04 GMT-0400 (Eastern Daylight Time)","650675","Trustworthy,Untrustworthy","[{""page_index"":0,""viewing_time"":1069}]","1070","","","","","","","","","","","","","","","","","",""
"image-keyboard-response","5","52682","0.0-6.0-1.0","5f4000a47ed89c0e7f2e3760","bdp_trlrn","Wed Mar 15 2023 14:37:04 GMT-0400 (Eastern Daylight Time)","650675","Trustworthy,Untrustworthy","","3476","","","","rating","","trustrating_stim/white_00785_941205_fb_edt.bmp","4","","","","","","","","","","",""
"image-keyboard-response","6","52895","0.0-6.0-2.0","5f4000a47ed89c0e7f2e3760","bdp_trlrn","Wed Mar 15 2023 14:37:04 GMT-0400 (Eastern Daylight Time)","650675","Trustworthy,Untrustworthy","","null","","","","ratingFB","","trustrating_stim/white_00785_941205_fb_edt.bmp","null","","","","","","","","","","",""
"image-keyboard-response","7","54790","0.0-6.0-1.1","5f4000a47ed89c0e7f2e3760","bdp_trlrn","Wed Mar 15 2023 14:37:04 GMT-0400 (Eastern Daylight Time)","650675","Trustworthy,Untrustworthy","","1793","","","","rating","","trustrating_stim/white_00519_940519_fb_edt.bmp","4","","","","","","","","","","",""
"image-keyboard-response","8","55000","0.0-6.0-2.1","5f4000a47ed89c0e7f2e3760","bdp_trlrn","Wed Mar 15 2023 14:37:04 GMT-0400 (Eastern Daylight Time)","650675","Trustworthy,Untrustworthy","","null","","","","ratingFB","","trustrating_stim/white_00519_940519_fb_edt.bmp","null","","","","","","","","","","",""
"image-keyboard-response","9","56923","0.0-6.0-1.2","5f4000a47ed89c0e7f2e3760","bdp_trlrn","Wed Mar 15 2023 14:37:04 GMT-0400 (Eastern Daylight Time)","650675","Trustworthy,Untrustworthy","","1822","","","","rating","","trustrating_stim/white_mw060.bmp","3","","","","","","","","","","",""
"image-keyboard-response","10","57139","0.0-6.0-2.2","5f4000a47ed89c0e7f2e3760","bdp_trlrn","Wed Mar 15 2023 14:37:04 GMT-0400 (Eastern Daylight Time)","650675","Trustworthy,Untrustworthy","","null","","","","ratingFB","","trustrating_stim/white_mw060.bmp","null","","","","","","","","","","",""
"image-keyboard-response","11","59573","0.0-6.0-1.3","5f4000a47ed89c0e7f2e3760","bdp_trlrn","Wed Mar 15 2023 14:37:04 GMT-0400 (Eastern Daylight Time)","650675","Trustworthy,Untrustworthy","","2326","","","","rating","","trustrating_stim/white_mw035.bmp","7","","","","","","","","","","",""
"image-keyboard-response","12","59784","0.0-6.0-2.3","5f4000a47ed89c0e7f2e3760","bdp_trlrn","Wed Mar 15 2023 14:37:04 GMT-0400 (Eastern Daylight Time)","650675","Trustworthy,Untrustworthy","","null","","","","ratingFB","","trustrating_stim/white_mw035.bmp","null","","","","","","","","","","",""
"image-keyboard-response","13","61023","0.0-6.0-1.4","5f4000a47ed89c0e7f2e3760","bdp_trlrn","Wed Mar 15 2023 14:37:04 GMT-0400 (Eastern Daylight Time)","650675","Trustworthy,Untrustworthy","","1130","","","","rating","","trustrating_stim/white_mw066.bmp","7","","","","","","","","","","",""
"image-keyboard-response","14","61230","0.0-6.0-2.4","5f4000a47ed89c0e7f2e3760","bdp_trlrn","Wed Mar 15 2023 14:37:04 GMT-0400 (Eastern Daylight Time)","650675","Trustworthy,Untrustworthy","","null","","","","ratingFB","","trustrating_stim/white_mw066.bmp","null","","","","","","","","","","",""
"image-keyboard-response","15","62547","0.0-6.0-1.5","5f4000a47ed89c0e7f2e3760","bdp_trlrn","Wed Mar 15 2023 14:37:04 GMT-0400 (Eastern Daylight Time)","650675","Trustworthy,Untrustworthy","","1208","","","","rating","","trustrating_stim/white_mw099.bmp","5","","","","","","","","","","",""
"image-keyboard-response","16","62762","0.0-6.0-2.5","5f4000a47ed89c0e7f2e3760","bdp_trlrn","Wed Mar 15 2023 14:37:04 GMT-0400 (Eastern Daylight Time)","650675","Trustworthy,Untrustworthy","","null","","","","ratingFB","","trustrating_stim/white_mw099.bmp","null","","","","","","","","","","",""
"image-keyboard-response","17","63863","0.0-6.0-1.6","5f4000a47ed89c0e7f2e3760","bdp_trlrn","Wed Mar 15 2023 14:37:04 GMT-0400 (Eastern Daylight Time)","650675","Trustworthy,Untrustworthy","","990","","","","rating","","trustrating_stim/white_mw048.bmp","3","","","","","","","","","","",""
"image-keyboard-response","18","64078","0.0-6.0-2.6","5f4000a47ed89c0e7f2e3760","bdp_trlrn","Wed Mar 15 2023 14:37:04 GMT-0400 (Eastern Daylight Time)","650675","Trustworthy,Untrustworthy","","null","","","","ratingFB","","trustrating_stim/white_mw048.bmp","null","","","","","","","","","","",""
"image-keyboard-response","19","66274","0.0-6.0-1.7","5f4000a47ed89c0e7f2e3760","bdp_trlrn","Wed Mar 15 2023 14:37:04 GMT-0400 (Eastern Daylight Time)","650675","Trustworthy,Untrustworthy","","2087","","","","rating","","trustrating_stim/white_00223_940128_fb_edt.bmp","4","","","","","","","","","","",""
"image-keyboard-response","20","66489","0.0-6.0-2.7","5f4000a47ed89c0e7f2e3760","bdp_trlrn","Wed Mar 15 2023 14:37:04 GMT-0400 (Eastern Daylight Time)","650675","Trustworthy,Untrustworthy","","null","","","","ratingFB","","trustrating_stim/white_00223_940128_fb_edt.bmp","null","","","","","","","","","","",""
"image-keyboard-response","21","67920","0.0-6.0-1.8","5f4000a47ed89c0e7f2e3760","bdp_trlrn","Wed Mar 15 2023 14:37:04 GMT-0400 (Eastern Daylight Time)","650675","Trustworthy,Untrustworthy","","1330","","","","rating","","trustrating_stim/white_mw056.bmp","4","","","","","","","","","","",""
"image-keyboard-response","22","68125","0.0-6.0-2.8","5f4000a47ed89c0e7f2e3760","bdp_trlrn","Wed Mar 15 2023 14:37:04 GMT-0400 (Eastern Daylight Time)","650675","Trustworthy,Untrustworthy","","null","","","","ratingFB","","trustrating_stim/white_mw056.bmp","null","","","","","","","","","","",""
"image-keyboard-response","23","70606","0.0-6.0-1.9","5f4000a47ed89c0e7f2e3760","bdp_trlrn","Wed Mar 15 2023 14:37:04 GMT-0400 (Eastern Daylight Time)","650675","Trustworthy,Untrustworthy","","2372","","","","rating","","trustrating_stim/white_00807_941205_fb_edt.bmp","5","","","","","","","","","","",""
"image-keyboard-response","24","70820","0.0-6.0-2.9","5f4000a47ed89c0e7f2e3760","bdp_trlrn","Wed Mar 15 2023 14:37:04 GMT-0400 (Eastern Daylight Time)","650675","Trustworthy,Untrustworthy","","null","","","","ratingFB","","trustrating_stim/white_00807_941205_fb_edt.bmp","null","","","","","","","","","","",""
"image-keyboard-response","25","73519","0.0-6.0-1.10","5f4000a47ed89c0e7f2e3760","bdp_trlrn","Wed Mar 15 2023 14:37:04 GMT-0400 (Eastern Daylight Time)","650675","Trustworthy,Untrustworthy","","2590","","","","rating","","trustrating_stim/white_00109_931230_fa_edt.bmp","4","","","","","","","","","","",""
"image-keyboard-response","26","73725","0.0-6.0-2.10","5f4000a47ed89c0e7f2e3760","bdp_trlrn","Wed Mar 15 2023 14:37:04 GMT-0400 (Eastern Daylight Time)","650675","Trustworthy,Untrustworthy","","null","","","","ratingFB","","trustrating_stim/white_00109_931230_fa_edt.bmp","null","","","","","","","","","","",""
"image-keyboard-response","27","76621","0.0-6.0-1.11","5f4000a47ed89c0e7f2e3760","bdp_trlrn","Wed Mar 15 2023 14:37:04 GMT-0400 (Eastern Daylight Time)","650675","Trustworthy,Untrustworthy","","2793","","","","rating","","trustrating_stim/white_mw084.bmp","6","","","","","","","","","","",""
"image-keyboard-response","28","76822","0.0-6.0-2.11","5f4000a47ed89c0e7f2e3760","bdp_trlrn","Wed Mar 15 2023 14:37:04 GMT-0400 (Eastern Daylight Time)","650675","Trustworthy,Untrustworthy","","null","","","","ratingFB","","trustrating_stim/white_mw084.bmp","null","","","","","","","","","","",""
"image-keyboard-response","29","78053","0.0-6.0-1.12","5f4000a47ed89c0e7f2e3760","bdp_trlrn","Wed Mar 15 2023 14:37:04 GMT-0400 (Eastern Daylight Time)","650675","Trustworthy,Untrustworthy","","1120","","","","rating","","trustrating_stim/white_00340_940422_fa_edt.bmp","3","","","","","","","","","","",""
"image-keyboard-response","30","78257","0.0-6.0-2.12","5f4000a47ed89c0e7f2e3760","bdp_trlrn","Wed Mar 15 2023 14:37:04 GMT-0400 (Eastern Daylight Time)","650675","Trustworthy,Untrustworthy","","null","","","","ratingFB","","trustrating_stim/white_00340_940422_fa_edt.bmp","null","","","","","","","","","","",""
"image-keyboard-response","31","79286","0.0-6.0-1.13","5f4000a47ed89c0e7f2e3760","bdp_trlrn","Wed Mar 15 2023 14:37:04 GMT-0400 (Eastern Daylight Time)","650675","Trustworthy,Untrustworthy","","922","","","","rating","","trustrating_stim/white_00577_940928_fa_edt.bmp","3","","","","","","","","","","",""
"image-keyboard-response","32","79499","0.0-6.0-2.13","5f4000a47ed89c0e7f2e3760","bdp_trlrn","Wed Mar 15 2023 14:37:04 GMT-0400 (Eastern Daylight Time)","650675","Trustworthy,Untrustworthy","","null","","","","ratingFB","","trustrating_stim/white_00577_940928_fa_edt.bmp","null","","","","","","","","","","",""
"image-keyboard-response","33","81276","0.0-6.0-1.14","5f4000a47ed89c0e7f2e3760","bdp_trlrn","Wed Mar 15 2023 14:37:04 GMT-0400 (Eastern Daylight Time)","650675","Trustworthy,Untrustworthy","","1666","","","","rating","","trustrating_stim/white_00299_940422_fa_edt.bmp","4","","","","","","","","","","",""
"image-keyboard-response","34","81478","0.0-6.0-2.14","5f4000a47ed89c0e7f2e3760","bdp_trlrn","Wed Mar 15 2023 14:37:04 GMT-0400 (Eastern Daylight Time)","650675","Trustworthy,Untrustworthy","","null","","","","ratingFB","","trustrating_stim/white_00299_940422_fa_edt.bmp","null","","","","","","","","","","",""
"image-keyboard-response","35","83045","0.0-6.0-1.15","5f4000a47ed89c0e7f2e3760","bdp_trlrn","Wed Mar 15 2023 14:37:04 GMT-0400 (Eastern Daylight Time)","650675","Trustworthy,Untrustworthy","","1465","","","","rating","","trustrating_stim/white_00129_931230_fb_edt.bmp","8","","","","","","","","","","",""
"image-keyboard-response","36","83248","0.0-6.0-2.15","5f4000a47ed89c0e7f2e3760","bdp_trlrn","Wed Mar 15 2023 14:37:04 GMT-0400 (Eastern Daylight Time)","650675","Trustworthy,Untrustworthy","","null","","","","ratingFB","","trustrating_stim/white_00129_931230_fb_edt.bmp","null","","","","","","","","","","",""
"image-keyboard-response","37","84969","0.0-6.0-1.16","5f4000a47ed89c0e7f2e3760","bdp_trlrn","Wed Mar 15 2023 14:37:04 GMT-0400 (Eastern Daylight Time)","650675","Trustworthy,Untrustworthy","","1613","","","","rating","","trustrating_stim/white_mw046.bmp","6","","","","","","","","","","",""
"image-keyboard-response","38","85185","0.0-6.0-2.16","5f4000a47ed89c0e7f2e3760","bdp_trlrn","Wed Mar 15 2023 14:37:04 GMT-0400 (Eastern Daylight Time)","650675","Trustworthy,Untrustworthy","","null","","","","ratingFB","","trustrating_stim/white_mw046.bmp","null","","","","","","","","","","",""
"image-keyboard-response","39","88365","0.0-6.0-1.17","5f4000a47ed89c0e7f2e3760","bdp_trlrn","Wed Mar 15 2023 14:37:04 GMT-0400 (Eastern Daylight Time)","650675","Trustworthy,Untrustworthy","","3078","","","","rating","","trustrating_stim/white_mw089.bmp","4","","","","","","","","","","",""
"image-keyboard-response","40","88574","0.0-6.0-2.17","5f4000a47ed89c0e7f2e3760","bdp_trlrn","Wed Mar 15 2023 14:37:04 GMT-0400 (Eastern Daylight Time)","650675","Trustworthy,Untrustworthy","","null","","","","ratingFB","","trustrating_stim/white_mw089.bmp","null","","","","","","","","","","",""
"image-keyboard-response","41","89944","0.0-6.0-1.18","5f4000a47ed89c0e7f2e3760","bdp_trlrn","Wed Mar 15 2023 14:37:04 GMT-0400 (Eastern Daylight Time)","650675","Trustworthy,Untrustworthy","","1261","","","","rating","","trustrating_stim/white_00898_960530_fa_edt.bmp","7","","","","","","","","","","",""
"image-keyboard-response","42","90159","0.0-6.0-2.18","5f4000a47ed89c0e7f2e3760","bdp_trlrn","Wed Mar 15 2023 14:37:04 GMT-0400 (Eastern Daylight Time)","650675","Trustworthy,Untrustworthy","","null","","","","ratingFB","","trustrating_stim/white_00898_960530_fa_edt.bmp","null","","","","","","","","","","",""
"image-keyboard-response","43","92149","0.0-6.0-1.19","5f4000a47ed89c0e7f2e3760","bdp_trlrn","Wed Mar 15 2023 14:37:04 GMT-0400 (Eastern Daylight Time)","650675","Trustworthy,Untrustworthy","","1879","","","","rating","","trustrating_stim/white_00120_931230_fa_edt.bmp","7","","","","","","","","","","",""
"image-keyboard-response","44","92355","0.0-6.0-2.19","5f4000a47ed89c0e7f2e3760","bdp_trlrn","Wed Mar 15 2023 14:37:04 GMT-0400 (Eastern Daylight Time)","650675","Trustworthy,Untrustworthy","","null","","","","ratingFB","","trustrating_stim/white_00120_931230_fa_edt.bmp","null","","","","","","","","","","",""
"image-keyboard-response","45","93597","0.0-6.0-1.20","5f4000a47ed89c0e7f2e3760","bdp_trlrn","Wed Mar 15 2023 14:37:04 GMT-0400 (Eastern Daylight Time)","650675","Trustworthy,Untrustworthy","","1140","","","","rating","","trustrating_stim/white_00659_941121_fa_edt.bmp","2","","","","","","","","","","",""
"image-keyboard-response","46","93802","0.0-6.0-2.20","5f4000a47ed89c0e7f2e3760","bdp_trlrn","Wed Mar 15 2023 14:37:04 GMT-0400 (Eastern Daylight Time)","650675","Trustworthy,Untrustworthy","","null","","","","ratingFB","","trustrating_stim/white_00659_941121_fa_edt.bmp","null","","","","","","","","","","",""
"image-keyboard-response","47","95411","0.0-6.0-1.21","5f4000a47ed89c0e7f2e3760","bdp_trlrn","Wed Mar 15 2023 14:37:04 GMT-0400 (Eastern Daylight Time)","650675","Trustworthy,Untrustworthy","","1500","","","","rating","","trustrating_stim/white_mw049.bmp","4","","","","","","","","","","",""
"image-keyboard-response","48","95625","0.0-6.0-2.21","5f4000a47ed89c0e7f2e3760","bdp_trlrn","Wed Mar 15 2023 14:37:04 GMT-0400 (Eastern Daylight Time)","650675","Trustworthy,Untrustworthy","","null","","","","ratingFB","","trustrating_stim/white_mw049.bmp","null","","","","","","","","","","",""
"image-keyboard-response","49","100860","0.0-6.0-1.22","5f4000a47ed89c0e7f2e3760","bdp_trlrn","Wed Mar 15 2023 14:37:04 GMT-0400 (Eastern Daylight Time)","650675","Trustworthy,Untrustworthy","","5125","","","","rating","","trustrating_stim/white_00761_941201_fb_edt.bmp","5","","","","","","","","","","",""
"image-keyboard-response","50","101075","0.0-6.0-2.22","5f4000a47ed89c0e7f2e3760","bdp_trlrn","Wed Mar 15 2023 14:37:04 GMT-0400 (Eastern Daylight Time)","650675","Trustworthy,Untrustworthy","","null","","","","ratingFB","","trustrating_stim/white_00761_941201_fb_edt.bmp","null","","","","","","","","","","",""
"image-keyboard-response","51","102347","0.0-6.0-1.23","5f4000a47ed89c0e7f2e3760","bdp_trlrn","Wed Mar 15 2023 14:37:04 GMT-0400 (Eastern Daylight Time)","650675","Trustworthy,Untrustworthy","","1162","","","","rating","","trustrating_stim/white_mw033.bmp","3","","","","","","","","","","",""
"image-keyboard-response","52","102562","0.0-6.0-2.23","5f4000a47ed89c0e7f2e3760","bdp_trlrn","Wed Mar 15 2023 14:37:04 GMT-0400 (Eastern Daylight Time)","650675","Trustworthy,Untrustworthy","","null","","","","ratingFB","","trustrating_stim/white_mw033.bmp","null","","","","","","","","","","",""
"image-keyboard-response","53","103513","0.0-6.0-1.24","5f4000a47ed89c0e7f2e3760","bdp_trlrn","Wed Mar 15 2023 14:37:04 GMT-0400 (Eastern Daylight Time)","650675","Trustworthy,Untrustworthy","","843","","","","rating","","trustrating_stim/white_mw063.bmp","3","","","","","","","","","","",""
"image-keyboard-response","54","103729","0.0-6.0-2.24","5f4000a47ed89c0e7f2e3760","bdp_trlrn","Wed Mar 15 2023 14:37:04 GMT-0400 (Eastern Daylight Time)","650675","Trustworthy,Untrustworthy","","null","","","","ratingFB","","trustrating_stim/white_mw063.bmp","null","","","","","","","","","","",""
"image-keyboard-response","55","105459","0.0-6.0-1.25","5f4000a47ed89c0e7f2e3760","bdp_trlrn","Wed Mar 15 2023 14:37:04 GMT-0400 (Eastern Daylight Time)","650675","Trustworthy,Untrustworthy","","1627","","","","rating","","trustrating_stim/white_mw071.bmp","3","","","","","","","","","","",""
"image-keyboard-response","56","105669","0.0-6.0-2.25","5f4000a47ed89c0e7f2e3760","bdp_trlrn","Wed Mar 15 2023 14:37:04 GMT-0400 (Eastern Daylight Time)","650675","Trustworthy,Untrustworthy","","null","","","","ratingFB","","trustrating_stim/white_mw071.bmp","null","","","","","","","","","","",""
"image-keyboard-response","57","107419","0.0-6.0-1.26","5f4000a47ed89c0e7f2e3760","bdp_trlrn","Wed Mar 15 2023 14:37:04 GMT-0400 (Eastern Daylight Time)","650675","Trustworthy,Untrustworthy","","1641","","","","rating","","trustrating_stim/white_00602_940928_fb_edt.bmp","4","","","","","","","","","","",""
"image-keyboard-response","58","107627","0.0-6.0-2.26","5f4000a47ed89c0e7f2e3760","bdp_trlrn","Wed Mar 15 2023 14:37:04 GMT-0400 (Eastern Daylight Time)","650675","Trustworthy,Untrustworthy","","null","","","","ratingFB","","trustrating_stim/white_00602_940928_fb_edt.bmp","null","","","","","","","","","","",""
"image-keyboard-response","59","109159","0.0-6.0-1.27","5f4000a47ed89c0e7f2e3760","bdp_trlrn","Wed Mar 15 2023 14:37:04 GMT-0400 (Eastern Daylight Time)","650675","Trustworthy,Untrustworthy","","1423","","","","rating","","trustrating_stim/white_mw053.bmp","3","","","","","","","","","","",""
"image-keyboard-response","60","109374","0.0-6.0-2.27","5f4000a47ed89c0e7f2e3760","bdp_trlrn","Wed Mar 15 2023 14:37:04 GMT-0400 (Eastern Daylight Time)","650675","Trustworthy,Untrustworthy","","null","","","","ratingFB","","trustrating_stim/white_mw053.bmp","null","","","","","","","","","","",""
"image-keyboard-response","61","112599","0.0-6.0-1.28","5f4000a47ed89c0e7f2e3760","bdp_trlrn","Wed Mar 15 2023 14:37:04 GMT-0400 (Eastern Daylight Time)","650675","Trustworthy,Untrustworthy","","3123","","","","rating","","trustrating_stim/white_00757_941201_fa_edt.bmp","4","","","","","","","","","","",""
"image-keyboard-response","62","112808","0.0-6.0-2.28","5f4000a47ed89c0e7f2e3760","bdp_trlrn","Wed Mar 15 2023 14:37:04 GMT-0400 (Eastern Daylight Time)","650675","Trustworthy,Untrustworthy","","null","","","","ratingFB","","trustrating_stim/white_00757_941201_fa_edt.bmp","null","","","","","","","","","","",""
"image-keyboard-response","63","114095","0.0-6.0-1.29","5f4000a47ed89c0e7f2e3760","bdp_trlrn","Wed Mar 15 2023 14:37:04 GMT-0400 (Eastern Daylight Time)","650675","Trustworthy,Untrustworthy","","1177","","","","rating","","trustrating_stim/white_mw097.bmp","2","","","","","","","","","","",""
"image-keyboard-response","64","114303","0.0-6.0-2.29","5f4000a47ed89c0e7f2e3760","bdp_trlrn","Wed Mar 15 2023 14:37:04 GMT-0400 (Eastern Daylight Time)","650675","Trustworthy,Untrustworthy","","null","","","","ratingFB","","trustrating_stim/white_mw097.bmp","null","","","","","","","","","","",""
"image-keyboard-response","65","117909","0.0-6.0-1.30","5f4000a47ed89c0e7f2e3760","bdp_trlrn","Wed Mar 15 2023 14:37:04 GMT-0400 (Eastern Daylight Time)","650675","Trustworthy,Untrustworthy","","3498","","","","rating","","trustrating_stim/white_00223_940128_fb_edt.bmp","4","","","","","","","","","","",""
"image-keyboard-response","66","118120","0.0-6.0-2.30","5f4000a47ed89c0e7f2e3760","bdp_trlrn","Wed Mar 15 2023 14:37:04 GMT-0400 (Eastern Daylight Time)","650675","Trustworthy,Untrustworthy","","null","","","","ratingFB","","trustrating_stim/white_00223_940128_fb_edt.bmp","null","","","","","","","","","","",""
"image-keyboard-response","67","119897","0.0-6.0-1.31","5f4000a47ed89c0e7f2e3760","bdp_trlrn","Wed Mar 15 2023 14:37:04 GMT-0400 (Eastern Daylight Time)","650675","Trustworthy,Untrustworthy","","1676","","","","rating","","trustrating_stim/white_00761_941201_fb_edt.bmp","6","","","","","","","","","","",""
"image-keyboard-response","68","120100","0.0-6.0-2.31","5f4000a47ed89c0e7f2e3760","bdp_trlrn","Wed Mar 15 2023 14:37:04 GMT-0400 (Eastern Daylight Time)","650675","Trustworthy,Untrustworthy","","null","","","","ratingFB","","trustrating_stim/white_00761_941201_fb_edt.bmp","null","","","","","","","","","","",""
"image-keyboard-response","69","122306","0.0-6.0-1.32","5f4000a47ed89c0e7f2e3760","bdp_trlrn","Wed Mar 15 2023 14:37:04 GMT-0400 (Eastern Daylight Time)","650675","Trustworthy,Untrustworthy","","2097","","","","rating","","trustrating_stim/white_mw049.bmp","4","","","","","","","","","","",""
"image-keyboard-response","70","122512","0.0-6.0-2.32","5f4000a47ed89c0e7f2e3760","bdp_trlrn","Wed Mar 15 2023 14:37:04 GMT-0400 (Eastern Daylight Time)","650675","Trustworthy,Untrustworthy","","null","","","","ratingFB","","trustrating_stim/white_mw049.bmp","null","","","","","","","","","","",""
"image-keyboard-response","71","124358","0.0-6.0-1.33","5f4000a47ed89c0e7f2e3760","bdp_trlrn","Wed Mar 15 2023 14:37:04 GMT-0400 (Eastern Daylight Time)","650675","Trustworthy,Untrustworthy","","1737","","","","rating","","trustrating_stim/white_00898_960530_fa_edt.bmp","5","","","","","","","","","","",""
"image-keyboard-response","72","124563","0.0-6.0-2.33","5f4000a47ed89c0e7f2e3760","bdp_trlrn","Wed Mar 15 2023 14:37:04 GMT-0400 (Eastern Daylight Time)","650675","Trustworthy,Untrustworthy","","null","","","","ratingFB","","trustrating_stim/white_00898_960530_fa_edt.bmp","null","","","","","","","","","","",""
"image-keyboard-response","73","127228","0.0-6.0-1.34","5f4000a47ed89c0e7f2e3760","bdp_trlrn","Wed Mar 15 2023 14:37:04 GMT-0400 (Eastern Daylight Time)","650675","Trustworthy,Untrustworthy","","2563","","","","rating","","trustrating_stim/white_00109_931230_fa_edt.bmp","3","","","","","","","","","","",""
"image-keyboard-response","74","127442","0.0-6.0-2.34","5f4000a47ed89c0e7f2e3760","bdp_trlrn","Wed Mar 15 2023 14:37:04 GMT-0400 (Eastern Daylight Time)","650675","Trustworthy,Untrustworthy","","null","","","","ratingFB","","trustrating_stim/white_00109_931230_fa_edt.bmp","null","","","","","","","","","","",""
"image-keyboard-response","75","128858","0.0-6.0-1.35","5f4000a47ed89c0e7f2e3760","bdp_trlrn","Wed Mar 15 2023 14:37:04 GMT-0400 (Eastern Daylight Time)","650675","Trustworthy,Untrustworthy","","1314","","","","rating","","trustrating_stim/white_00577_940928_fa_edt.bmp","3","","","","","","","","","","",""
"image-keyboard-response","76","129073","0.0-6.0-2.35","5f4000a47ed89c0e7f2e3760","bdp_trlrn","Wed Mar 15 2023 14:37:04 GMT-0400 (Eastern Daylight Time)","650675","Trustworthy,Untrustworthy","","null","","","","ratingFB","","trustrating_stim/white_00577_940928_fa_edt.bmp","null","","","","","","","","","","",""
"image-keyboard-response","77","130591","0.0-6.0-1.36","5f4000a47ed89c0e7f2e3760","bdp_trlrn","Wed Mar 15 2023 14:37:04 GMT-0400 (Eastern Daylight Time)","650675","Trustworthy,Untrustworthy","","1416","","","","rating","","trustrating_stim/white_00757_941201_fa_edt.bmp","3","","","","","","","","","","",""
"image-keyboard-response","78","130804","0.0-6.0-2.36","5f4000a47ed89c0e7f2e3760","bdp_trlrn","Wed Mar 15 2023 14:37:04 GMT-0400 (Eastern Daylight Time)","650675","Trustworthy,Untrustworthy","","null","","","","ratingFB","","trustrating_stim/white_00757_941201_fa_edt.bmp","null","","","","","","","","","","",""
"image-keyboard-response","79","132368","0.0-6.0-1.37","5f4000a47ed89c0e7f2e3760","bdp_trlrn","Wed Mar 15 2023 14:37:04 GMT-0400 (Eastern Daylight Time)","650675","Trustworthy,Untrustworthy","","1455","","","","rating","","trustrating_stim/white_00120_931230_fa_edt.bmp","4","","","","","","","","","","",""
"image-keyboard-response","80","132577","0.0-6.0-2.37","5f4000a47ed89c0e7f2e3760","bdp_trlrn","Wed Mar 15 2023 14:37:04 GMT-0400 (Eastern Daylight Time)","650675","Trustworthy,Untrustworthy","","null","","","","ratingFB","","trustrating_stim/white_00120_931230_fa_edt.bmp","null","","","","","","","","","","",""
"image-keyboard-response","81","134339","0.0-6.0-1.38","5f4000a47ed89c0e7f2e3760","bdp_trlrn","Wed Mar 15 2023 14:37:04 GMT-0400 (Eastern Daylight Time)","650675","Trustworthy,Untrustworthy","","1659","","","","rating","","trustrating_stim/white_00299_940422_fa_edt.bmp","4","","","","","","","","","","",""
"image-keyboard-response","82","134555","0.0-6.0-2.38","5f4000a47ed89c0e7f2e3760","bdp_trlrn","Wed Mar 15 2023 14:37:04 GMT-0400 (Eastern Daylight Time)","650675","Trustworthy,Untrustworthy","","null","","","","ratingFB","","trustrating_stim/white_00299_940422_fa_edt.bmp","null","","","","","","","","","","",""
"image-keyboard-response","83","135747","0.0-6.0-1.39","5f4000a47ed89c0e7f2e3760","bdp_trlrn","Wed Mar 15 2023 14:37:04 GMT-0400 (Eastern Daylight Time)","650675","Trustworthy,Untrustworthy","","1082","","","","rating","","trustrating_stim/white_mw056.bmp","3","","","","","","","","","","",""
"image-keyboard-response","84","135952","0.0-6.0-2.39","5f4000a47ed89c0e7f2e3760","bdp_trlrn","Wed Mar 15 2023 14:37:04 GMT-0400 (Eastern Daylight Time)","650675","Trustworthy,Untrustworthy","","null","","","","ratingFB","","trustrating_stim/white_mw056.bmp","null","","","","","","","","","","",""
"image-keyboard-response","85","137098","0.0-6.0-1.40","5f4000a47ed89c0e7f2e3760","bdp_trlrn","Wed Mar 15 2023 14:37:04 GMT-0400 (Eastern Daylight Time)","650675","Trustworthy,Untrustworthy","","1044","","","","rating","","trustrating_stim/white_mw033.bmp","3","","","","","","","","","","",""
"image-keyboard-response","86","137306","0.0-6.0-2.40","5f4000a47ed89c0e7f2e3760","bdp_trlrn","Wed Mar 15 2023 14:37:04 GMT-0400 (Eastern Daylight Time)","650675","Trustworthy,Untrustworthy","","null","","","","ratingFB","","trustrating_stim/white_mw033.bmp","null","","","","","","","","","","",""
"image-keyboard-response","87","138175","0.0-6.0-1.41","5f4000a47ed89c0e7f2e3760","bdp_trlrn","Wed Mar 15 2023 14:37:04 GMT-0400 (Eastern Daylight Time)","650675","Trustworthy,Untrustworthy","","759","","","","rating","","trustrating_stim/white_mw099.bmp","3","","","","","","","","","","",""
"image-keyboard-response","88","138382","0.0-6.0-2.41","5f4000a47ed89c0e7f2e3760","bdp_trlrn","Wed Mar 15 2023 14:37:04 GMT-0400 (Eastern Daylight Time)","650675","Trustworthy,Untrustworthy","","null","","","","ratingFB","","trustrating_stim/white_mw099.bmp","null","","","","","","","","","","",""
"image-keyboard-response","89","140180","0.0-6.0-1.42","5f4000a47ed89c0e7f2e3760","bdp_trlrn","Wed Mar 15 2023 14:37:04 GMT-0400 (Eastern Daylight Time)","650675","Trustworthy,Untrustworthy","","1696","","","","rating","","trustrating_stim/white_mw084.bmp","5","","","","","","","","","","",""
"image-keyboard-response","90","140390","0.0-6.0-2.42","5f4000a47ed89c0e7f2e3760","bdp_trlrn","Wed Mar 15 2023 14:37:04 GMT-0400 (Eastern Daylight Time)","650675","Trustworthy,Untrustworthy","","null","","","","ratingFB","","trustrating_stim/white_mw084.bmp","null","","","","","","","","","","",""
"image-keyboard-response","91","143732","0.0-6.0-1.43","5f4000a47ed89c0e7f2e3760","bdp_trlrn","Wed Mar 15 2023 14:37:04 GMT-0400 (Eastern Daylight Time)","650675","Trustworthy,Untrustworthy","","3232","","","","rating","","trustrating_stim/white_mw048.bmp","5","","","","","","","","","","",""
"image-keyboard-response","92","143948","0.0-6.0-2.43","5f4000a47ed89c0e7f2e3760","bdp_trlrn","Wed Mar 15 2023 14:37:04 GMT-0400 (Eastern Daylight Time)","650675","Trustworthy,Untrustworthy","","null","","","","ratingFB","","trustrating_stim/white_mw048.bmp","null","","","","","","","","","","",""
"image-keyboard-response","93","146077","0.0-6.0-1.44","5f4000a47ed89c0e7f2e3760","bdp_trlrn","Wed Mar 15 2023 14:37:04 GMT-0400 (Eastern Daylight Time)","650675","Trustworthy,Untrustworthy","","2027","","","","rating","","trustrating_stim/white_mw035.bmp","5","","","","","","","","","","",""
"image-keyboard-response","94","146282","0.0-6.0-2.44","5f4000a47ed89c0e7f2e3760","bdp_trlrn","Wed Mar 15 2023 14:37:04 GMT-0400 (Eastern Daylight Time)","650675","Trustworthy,Untrustworthy","","null","","","","ratingFB","","trustrating_stim/white_mw035.bmp","null","","","","","","","","","","",""
"image-keyboard-response","95","147544","0.0-6.0-1.45","5f4000a47ed89c0e7f2e3760","bdp_trlrn","Wed Mar 15 2023 14:37:04 GMT-0400 (Eastern Daylight Time)","650675","Trustworthy,Untrustworthy","","1153","","","","rating","","trustrating_stim/white_mw097.bmp","3","","","","","","","","","","",""
"image-keyboard-response","96","147749","0.0-6.0-2.45","5f4000a47ed89c0e7f2e3760","bdp_trlrn","Wed Mar 15 2023 14:37:04 GMT-0400 (Eastern Daylight Time)","650675","Trustworthy,Untrustworthy","","null","","","","ratingFB","","trustrating_stim/white_mw097.bmp","null","","","","","","","","","","",""
"image-keyboard-response","97","149496","0.0-6.0-1.46","5f4000a47ed89c0e7f2e3760","bdp_trlrn","Wed Mar 15 2023 14:37:04 GMT-0400 (Eastern Daylight Time)","650675","Trustworthy,Untrustworthy","","1646","","","","rating","","trustrating_stim/white_mw046.bmp","4","","","","","","","","","","",""
"image-keyboard-response","98","149698","0.0-6.0-2.46","5f4000a47ed89c0e7f2e3760","bdp_trlrn","Wed Mar 15 2023 14:37:04 GMT-0400 (Eastern Daylight Time)","650675","Trustworthy,Untrustworthy","","null","","","","ratingFB","","trustrating_stim/white_mw046.bmp","null","","","","","","","","","","",""
"image-keyboard-response","99","151079","0.0-6.0-1.47","5f4000a47ed89c0e7f2e3760","bdp_trlrn","Wed Mar 15 2023 14:37:04 GMT-0400 (Eastern Daylight Time)","650675","Trustworthy,Untrustworthy","","1279","","","","rating","","trustrating_stim/white_00807_941205_fb_edt.bmp","4","","","","","","","","","","",""
"image-keyboard-response","100","151283","0.0-6.0-2.47","5f4000a47ed89c0e7f2e3760","bdp_trlrn","Wed Mar 15 2023 14:37:04 GMT-0400 (Eastern Daylight Time)","650675","Trustworthy,Untrustworthy","","null","","","","ratingFB","","trustrating_stim/white_00807_941205_fb_edt.bmp","null","","","","","","","","","","",""
"image-keyboard-response","101","153209","0.0-6.0-1.48","5f4000a47ed89c0e7f2e3760","bdp_trlrn","Wed Mar 15 2023 14:37:04 GMT-0400 (Eastern Daylight Time)","650675","Trustworthy,Untrustworthy","","1818","","","","rating","","trustrating_stim/white_00129_931230_fb_edt.bmp","7","","","","","","","","","","",""
"image-keyboard-response","102","153417","0.0-6.0-2.48","5f4000a47ed89c0e7f2e3760","bdp_trlrn","Wed Mar 15 2023 14:37:04 GMT-0400 (Eastern Daylight Time)","650675","Trustworthy,Untrustworthy","","null","","","","ratingFB","","trustrating_stim/white_00129_931230_fb_edt.bmp","null","","","","","","","","","","",""
"image-keyboard-response","103","154750","0.0-6.0-1.49","5f4000a47ed89c0e7f2e3760","bdp_trlrn","Wed Mar 15 2023 14:37:04 GMT-0400 (Eastern Daylight Time)","650675","Trustworthy,Untrustworthy","","1231","","","","rating","","trustrating_stim/white_mw071.bmp","4","","","","","","","","","","",""
"image-keyboard-response","104","154966","0.0-6.0-2.49","5f4000a47ed89c0e7f2e3760","bdp_trlrn","Wed Mar 15 2023 14:37:04 GMT-0400 (Eastern Daylight Time)","650675","Trustworthy,Untrustworthy","","null","","","","ratingFB","","trustrating_stim/white_mw071.bmp","null","","","","","","","","","","",""
"image-keyboard-response","105","156357","0.0-6.0-1.50","5f4000a47ed89c0e7f2e3760","bdp_trlrn","Wed Mar 15 2023 14:37:04 GMT-0400 (Eastern Daylight Time)","650675","Trustworthy,Untrustworthy","","1282","","","","rating","","trustrating_stim/white_00785_941205_fb_edt.bmp","4","","","","","","","","","","",""
"image-keyboard-response","106","156571","0.0-6.0-2.50","5f4000a47ed89c0e7f2e3760","bdp_trlrn","Wed Mar 15 2023 14:37:04 GMT-0400 (Eastern Daylight Time)","650675","Trustworthy,Untrustworthy","","null","","","","ratingFB","","trustrating_stim/white_00785_941205_fb_edt.bmp","null","","","","","","","","","","",""
"image-keyboard-response","107","157830","0.0-6.0-1.51","5f4000a47ed89c0e7f2e3760","bdp_trlrn","Wed Mar 15 2023 14:37:04 GMT-0400 (Eastern Daylight Time)","650675","Trustworthy,Untrustworthy","","1152","","","","rating","","trustrating_stim/white_mw066.bmp","4","","","","","","","","","","",""
"image-keyboard-response","108","158033","0.0-6.0-2.51","5f4000a47ed89c0e7f2e3760","bdp_trlrn","Wed Mar 15 2023 14:37:04 GMT-0400 (Eastern Daylight Time)","650675","Trustworthy,Untrustworthy","","null","","","","ratingFB","","trustrating_stim/white_mw066.bmp","null","","","","","","","","","","",""
"image-keyboard-response","109","159476","0.0-6.0-1.52","5f4000a47ed89c0e7f2e3760","bdp_trlrn","Wed Mar 15 2023 14:37:04 GMT-0400 (Eastern Daylight Time)","650675","Trustworthy,Untrustworthy","","1334","","","","rating","","trustrating_stim/white_mw063.bmp","3","","","","","","","","","","",""
"image-keyboard-response","110","159687","0.0-6.0-2.52","5f4000a47ed89c0e7f2e3760","bdp_trlrn","Wed Mar 15 2023 14:37:04 GMT-0400 (Eastern Daylight Time)","650675","Trustworthy,Untrustworthy","","null","","","","ratingFB","","trustrating_stim/white_mw063.bmp","null","","","","","","","","","","",""
"image-keyboard-response","111","162068","0.0-6.0-1.53","5f4000a47ed89c0e7f2e3760","bdp_trlrn","Wed Mar 15 2023 14:37:04 GMT-0400 (Eastern Daylight Time)","650675","Trustworthy,Untrustworthy","","2274","","","","rating","","trustrating_stim/white_00519_940519_fb_edt.bmp","5","","","","","","","","","","",""
"image-keyboard-response","112","162275","0.0-6.0-2.53","5f4000a47ed89c0e7f2e3760","bdp_trlrn","Wed Mar 15 2023 14:37:04 GMT-0400 (Eastern Daylight Time)","650675","Trustworthy,Untrustworthy","","null","","","","ratingFB","","trustrating_stim/white_00519_940519_fb_edt.bmp","null","","","","","","","","","","",""
"image-keyboard-response","113","164300","0.0-6.0-1.54","5f4000a47ed89c0e7f2e3760","bdp_trlrn","Wed Mar 15 2023 14:37:04 GMT-0400 (Eastern Daylight Time)","650675","Trustworthy,Untrustworthy","","1916","","","","rating","","trustrating_stim/white_00340_940422_fa_edt.bmp","4","","","","","","","","","","",""
"image-keyboard-response","114","164515","0.0-6.0-2.54","5f4000a47ed89c0e7f2e3760","bdp_trlrn","Wed Mar 15 2023 14:37:04 GMT-0400 (Eastern Daylight Time)","650675","Trustworthy,Untrustworthy","","null","","","","ratingFB","","trustrating_stim/white_00340_940422_fa_edt.bmp","null","","","","","","","","","","",""
"image-keyboard-response","115","166556","0.0-6.0-1.55","5f4000a47ed89c0e7f2e3760","bdp_trlrn","Wed Mar 15 2023 14:37:04 GMT-0400 (Eastern Daylight Time)","650675","Trustworthy,Untrustworthy","","1933","","","","rating","","trustrating_stim/white_00659_941121_fa_edt.bmp","4","","","","","","","","","","",""
"image-keyboard-response","116","166763","0.0-6.0-2.55","5f4000a47ed89c0e7f2e3760","bdp_trlrn","Wed Mar 15 2023 14:37:04 GMT-0400 (Eastern Daylight Time)","650675","Trustworthy,Untrustworthy","","null","","","","ratingFB","","trustrating_stim/white_00659_941121_fa_edt.bmp","null","","","","","","","","","","",""
"image-keyboard-response","117","169144","0.0-6.0-1.56","5f4000a47ed89c0e7f2e3760","bdp_trlrn","Wed Mar 15 2023 14:37:04 GMT-0400 (Eastern Daylight Time)","650675","Trustworthy,Untrustworthy","","2271","","","","rating","","trustrating_stim/white_00602_940928_fb_edt.bmp","4","","","","","","","","","","",""
"image-keyboard-response","118","169350","0.0-6.0-2.56","5f4000a47ed89c0e7f2e3760","bdp_trlrn","Wed Mar 15 2023 14:37:04 GMT-0400 (Eastern Daylight Time)","650675","Trustworthy,Untrustworthy","","null","","","","ratingFB","","trustrating_stim/white_00602_940928_fb_edt.bmp","null","","","","","","","","","","",""
"image-keyboard-response","119","171031","0.0-6.0-1.57","5f4000a47ed89c0e7f2e3760","bdp_trlrn","Wed Mar 15 2023 14:37:04 GMT-0400 (Eastern Daylight Time)","650675","Trustworthy,Untrustworthy","","1580","","","","rating","","trustrating_stim/white_mw053.bmp","3","","","","","","","","","","",""
"image-keyboard-response","120","171248","0.0-6.0-2.57","5f4000a47ed89c0e7f2e3760","bdp_trlrn","Wed Mar 15 2023 14:37:04 GMT-0400 (Eastern Daylight Time)","650675","Trustworthy,Untrustworthy","","null","","","","ratingFB","","trustrating_stim/white_mw053.bmp","null","","","","","","","","","","",""
"image-keyboard-response","121","173109","0.0-6.0-1.58","5f4000a47ed89c0e7f2e3760","bdp_trlrn","Wed Mar 15 2023 14:37:04 GMT-0400 (Eastern Daylight Time)","650675","Trustworthy,Untrustworthy","","1759","","","","rating","","trustrating_stim/white_mw060.bmp","3","","","","","","","","","","",""
"image-keyboard-response","122","173314","0.0-6.0-2.58","5f4000a47ed89c0e7f2e3760","bdp_trlrn","Wed Mar 15 2023 14:37:04 GMT-0400 (Eastern Daylight Time)","650675","Trustworthy,Untrustworthy","","null","","","","ratingFB","","trustrating_stim/white_mw060.bmp","null","","","","","","","","","","",""
"image-keyboard-response","123","174576","0.0-6.0-1.59","5f4000a47ed89c0e7f2e3760","bdp_trlrn","Wed Mar 15 2023 14:37:04 GMT-0400 (Eastern Daylight Time)","650675","Trustworthy,Untrustworthy","","1153","","","","rating","","trustrating_stim/white_mw089.bmp","5","","","","","","","","","","",""
"image-keyboard-response","124","174792","0.0-6.0-2.59","5f4000a47ed89c0e7f2e3760","bdp_trlrn","Wed Mar 15 2023 14:37:04 GMT-0400 (Eastern Daylight Time)","650675","Trustworthy,Untrustworthy","","null","","","","ratingFB","","trustrating_stim/white_mw089.bmp","null","","","","","","","","","","",""
"instructions","125","178035","0.0-7.0","5f4000a47ed89c0e7f2e3760","bdp_trlrn","Wed Mar 15 2023 14:37:04 GMT-0400 (Eastern Daylight Time)","650675","Trustworthy,Untrustworthy","[{""page_index"":0,""viewing_time"":3134}]","3134","","","","","","","","","","","","","","","","","",""
"instructions","126","278219","0.0-8.0","5f4000a47ed89c0e7f2e3760","bdp_trlrn","Wed Mar 15 2023 14:37:04 GMT-0400 (Eastern Daylight Time)","650675","Trustworthy,Untrustworthy","[{""page_index"":0,""viewing_time"":31728},{""page_index"":1,""viewing_time"":6370},{""page_index"":2,""viewing_time"":14485},{""page_index"":3,""viewing_time"":6241},{""page_index"":4,""viewing_time"":9752},{""page_index"":5,""viewing_time"":6255},{""page_index"":6,""viewing_time"":12053},{""page_index"":7,""viewing_time"":13197}]","100081","","","","","","","","","","","","","","","","","",""
"html-keyboard-response","127","286705","0.0-9.0","5f4000a47ed89c0e7f2e3760","bdp_trlrn","Wed Mar 15 2023 14:37:04 GMT-0400 (Eastern Daylight Time)","650675","Trustworthy,Untrustworthy","","8485","","","","","","<div class='header' style='text-align:left; position: absolute; top: 5%; left: 5%;'><small>Task 2 of 5</small></div><div class='instruxDiv'><p><strong>1) What is the minimum number of points you can choose to send to your partner?</strong></p><p>a) 0</p><p>b) 1</p><p>c) 5</p>","B","","","","","","","","","","",""
"html-keyboard-response","128","289094","0.0-10.0","5f4000a47ed89c0e7f2e3760","bdp_trlrn","Wed Mar 15 2023 14:37:04 GMT-0400 (Eastern Daylight Time)","650675","Trustworthy,Untrustworthy","","2273","","","","","","<div class='header' style='text-align:left; position: absolute; top: 5%; left: 5%;'><small>Task 2 of 5</small></div><div class='instruxDiv'><p><strong>1) What is the minimum number of points you can choose to send to your partner?</strong></p><p>a) 0</p><p style='color:#00FF00'>b) 1</p><p>c) 5</p><h3 style='color:#00FF00'>Correct!</h3><h3 class='center-content'>The correct response is b).</h3><h3 class='center-content'>The minimum number of points you can choose to send to your partner is 1 point.</h3><p><em>Press SPACEBAR to continue</em></p></div>"," ","","","","","","","","","","",""
"html-keyboard-response","129","292643","0.0-11.0","5f4000a47ed89c0e7f2e3760","bdp_trlrn","Wed Mar 15 2023 14:37:04 GMT-0400 (Eastern Daylight Time)","650675","Trustworthy,Untrustworthy","","3432","","","","","","<div class='header' style='text-align:left; position: absolute; top: 5%; left: 5%;'><small>Task 2 of 5</small></div><div class='instruxDiv'><p><strong>2) What is the maximum number of points you can choose to send to your partner?</strong></p><p>a) 8</p><p>b) 5</p><p>c) 3</p>","B","","","","","","","","","","",""
"html-keyboard-response","130","293868","0.0-12.0","5f4000a47ed89c0e7f2e3760","bdp_trlrn","Wed Mar 15 2023 14:37:04 GMT-0400 (Eastern Daylight Time)","650675","Trustworthy,Untrustworthy","","1116","","","","","","<div class='header' style='text-align:left; position: absolute; top: 5%; left: 5%;'><small>Task 2 of 5</small></div><div class='instruxDiv'><p><strong>2) What is the maximum number of points you can choose to send to your partner?</strong></p><p>a) 8</p><p style='color:#00FF00'>b) 5</p><p>c) 3</p><h3 style='color:#00FF00'>Correct!</h3><h3 class='center-content'>The correct response is b).</h3><h3 class='center-content'>The maximum number of points you can choose to send to your partner is 5 points.</h3><p><em>Press SPACEBAR to continue</em></p></div>"," ","","","","","","","","","","",""
"html-keyboard-response","131","297712","0.0-13.0","5f4000a47ed89c0e7f2e3760","bdp_trlrn","Wed Mar 15 2023 14:37:04 GMT-0400 (Eastern Daylight Time)","650675","Trustworthy,Untrustworthy","","3743","","","","","","<div class='header' style='text-align:left; position: absolute; top: 5%; left: 5%;'><small>Task 2 of 5</small></div><div class='instruxDiv'><p><strong>3) What happens to the amount of points you send to your partner?</strong></p><p>a) Nothing</p><p>b) It doubles</p><p>c) It quadruples</p>","C","","","","","","","","","","",""
"html-keyboard-response","132","298637","0.0-14.0","5f4000a47ed89c0e7f2e3760","bdp_trlrn","Wed Mar 15 2023 14:37:04 GMT-0400 (Eastern Daylight Time)","650675","Trustworthy,Untrustworthy","","812","","","","","","<div class='header' style='text-align:left; position: absolute; top: 5%; left: 5%;'><small>Task 2 of 5</small></div><div class='instruxDiv'><p><strong>3) What happens to the amount of points you send to your partner?</strong></p><p>a) Nothing</p><p>b) It doubles</p><p style='color:#00FF00'>c) It quadruples</p><h3 style='color:#00FF00'>Correct!</h3><h3 class='center-content'>The correct response is c).</h3><h3 class='center-content'>The amount of points you send to your partner quadruples.</h3><p><em>Press SPACEBAR to continue</em></p></div>"," ","","","","","","","","","","",""
"html-keyboard-response","133","304179","0.0-15.0","5f4000a47ed89c0e7f2e3760","bdp_trlrn","Wed Mar 15 2023 14:37:04 GMT-0400 (Eastern Daylight Time)","650675","Trustworthy,Untrustworthy","","5440","","","","","","<div class='header' style='text-align:left; position: absolute; top: 5%; left: 5%;'><small>Task 2 of 5</small></div><div class='instruxDiv'><p><strong>4) If you decided to share 4 out of 5 points with your partner, and they decided to share half of the amount they received with you, how many points would you receive back from them on this round?</strong></p><p>a) 16</p><p>b) 0</p><p>c) 8</p>","C","","","","","","","","","","",""
"html-keyboard-response","134","305058","0.0-16.0","5f4000a47ed89c0e7f2e3760","bdp_trlrn","Wed Mar 15 2023 14:37:04 GMT-0400 (Eastern Daylight Time)","650675","Trustworthy,Untrustworthy","","769","","","","","","<div class='header' style='text-align:left; position: absolute; top: 5%; left: 5%;'><small>Task 2 of 5</small></div><div class='instruxDiv'><p><strong>4) If you decided to share 4 out of 5 points with your partner, and they decided to share half of the amount they received with you, how many points would you receive back from them on this round?</strong></p><p>a) 16</p><p>b) 0</p><p style='color:#00FF00'>c) 8</p><h3 style='color:#00FF00'>Correct!</h3><h3 class='center-content'>The correct response is c).</h3><h3 class='center-content'>If you shared 4 out of 5 points with your partner and they decided to share half of the amount they received with you, you would receive 8 points back (i.e. (4 x 4)/2 = 8).</h3><p><em>Press SPACEBAR to continue</em></p></div>"," ","","","","","","","","","","",""
"html-keyboard-response","135","310178","0.0-17.0","5f4000a47ed89c0e7f2e3760","bdp_trlrn","Wed Mar 15 2023 14:37:04 GMT-0400 (Eastern Daylight Time)","650675","Trustworthy,Untrustworthy","","null","","","","","","<div class='header' style='text-align:left; position: absolute; top: 5%; left: 5%;'><small>Task 2 of 5</small></div><div class='instruxDiv'><p>Thank you for completing the quiz<p>These are the actual partners you will be interacting with in the next block:<p><div class='tc' align='center'><img class='introPic' src='trustrating_stim/white_mw060.bmp'><br><strong>Gavin</strong></div><div class='bl' align='center'><img class='introPic' src='trustrating_stim/white_00602_940928_fb_edt.bmp'><br><strong>James</strong></div><div class='br' align='center'><img class='introPic' src='trustrating_stim/white_mw066.bmp'><br><strong>Devin</strong></div></div><p>Across <strong>66 rounds</strong> you will interact with each partner <strong>22 times</strong> (in random order).<p style='align:center; color:white'><font <em>Press SPACEBAR to continue</em></p>","null","","","","","","","","","","",""
"instructions","136","320999","0.0-18.0","5f4000a47ed89c0e7f2e3760","bdp_trlrn","Wed Mar 15 2023 14:37:04 GMT-0400 (Eastern Daylight Time)","650675","Trustworthy,Untrustworthy","[{""page_index"":0,""viewing_time"":7314},{""page_index"":1,""viewing_time"":3505}]","10820","","","","","","","","","","","","","","","","","",""
"html-keyboard-response","137","323315","0.0-19.0-1.0","5f4000a47ed89c0e7f2e3760","bdp_trlrn","Wed Mar 15 2023 14:37:04 GMT-0400 (Eastern Daylight Time)","650675","Trustworthy,Untrustworthy","","2210","","","","decision","","<div class='trialDiv'><img src='trustrating_stim/white_mw066.bmp'><br><font class='baseline'><strong>Devin</strong><p>Choose number of points to send.</font><div class='respPicDiv'><img src='img/responseButtonOffersNo0L.png' class='respPic'></div></div>","3","1","Devin","8","Shared","0.8,0.35","13","0.8","trustrating_stim/white_mw066.bmp","5.5","5","1"
"html-keyboard-response","138","323576","0.0-19.0-2.0","5f4000a47ed89c0e7f2e3760","bdp_trlrn","Wed Mar 15 2023 14:37:04 GMT-0400 (Eastern Daylight Time)","650675","Trustworthy,Untrustworthy","","null","","","","decisionFB","","<div class='trialDiv'><img src='trustrating_stim/white_mw066.bmp'><br><font class='baseline'><strong>Devin</strong><p>Choose number of points to send.</font><div class='respPicDiv'><img src='img/responseButtonOffersNo0L3.png' class='respPic'></div></div>","null","1","Devin","8","Shared","0.8,0.35","13","0.8","trustrating_stim/white_mw066.bmp","5.5","2","1"
"html-keyboard-response","139","324588","0.0-19.0-3.0","5f4000a47ed89c0e7f2e3760","bdp_trlrn","Wed Mar 15 2023 14:37:04 GMT-0400 (Eastern Daylight Time)","650675","Trustworthy,Untrustworthy","","null","","","","feedback","","<div class='trialDiv'><img src='trustrating_stim/white_mw066.bmp'><br><font class='baseline'><strong>Devin</strong><p>Received: <strong>12</strong></font> &nbsp; &nbsp; &nbsp; &nbsp; &nbsp; &nbsp;<font class='posOutcome'>Shared back: <strong>6</strong></font></font><div class='respPicDiv'><img src='img/responseButtonOffersNo0_wht.png' class='respPic'></div></div>","null","1","Devin","8","Shared","0.8,0.35","13","0.8","trustrating_stim/white_mw066.bmp","5.5","8","1"
"html-keyboard-response","140","326438","0.0-19.0-1.1","5f4000a47ed89c0e7f2e3760","bdp_trlrn","Wed Mar 15 2023 14:37:04 GMT-0400 (Eastern Daylight Time)","650675","Trustworthy,Untrustworthy","","1849","","","","decision","","<div class='trialDiv'><img src='trustrating_stim/white_00602_940928_fb_edt.bmp'><br><font class='baseline'><strong>James</strong><p>Choose number of points to send.</font><div class='respPicDiv'><img src='img/responseButtonOffersNo0L.png' class='respPic'></div></div>","3","1","James","6","Kept","0.2,0.65","11","0.2","trustrating_stim/white_00602_940928_fb_edt.bmp","4","13","2"
"html-keyboard-response","141","326699","0.0-19.0-2.1","5f4000a47ed89c0e7f2e3760","bdp_trlrn","Wed Mar 15 2023 14:37:04 GMT-0400 (Eastern Daylight Time)","650675","Trustworthy,Untrustworthy","","null","","","","decisionFB","","<div class='trialDiv'><img src='trustrating_stim/white_00602_940928_fb_edt.bmp'><br><font class='baseline'><strong>James</strong><p>Choose number of points to send.</font><div class='respPicDiv'><img src='img/responseButtonOffersNo0L3.png' class='respPic'></div></div>","null","1","James","6","Kept","0.2,0.65","11","0.2","trustrating_stim/white_00602_940928_fb_edt.bmp","4","10","2"
"html-keyboard-response","142","327706","0.0-19.0-3.1","5f4000a47ed89c0e7f2e3760","bdp_trlrn","Wed Mar 15 2023 14:37:04 GMT-0400 (Eastern Daylight Time)","650675","Trustworthy,Untrustworthy","","null","","","","feedback","","<div class='trialDiv'><img src='trustrating_stim/white_00602_940928_fb_edt.bmp'><br><font class='baseline'><strong>James</strong><p>Received: <strong>12</strong></font> &nbsp; &nbsp; &nbsp; &nbsp; &nbsp; &nbsp;<font class='negOutcome'>Shared back: <strong>0</strong></font></font><div class='respPicDiv'><img src='img/responseButtonOffersNo0_wht.png' class='respPic'></div></div>","null","1","James","6","Kept","0.2,0.65","11","0.2","trustrating_stim/white_00602_940928_fb_edt.bmp","4","10","2"
"html-keyboard-response","143","331499","0.0-19.0-1.2","5f4000a47ed89c0e7f2e3760","bdp_trlrn","Wed Mar 15 2023 14:37:04 GMT-0400 (Eastern Daylight Time)","650675","Trustworthy,Untrustworthy","","3792","","","","decision","","<div class='trialDiv'><img src='trustrating_stim/white_mw060.bmp'><br><font class='baseline'><strong>Gavin</strong><p>Choose number of points to send.</font><div class='respPicDiv'><img src='img/responseButtonOffersNo0L.png' class='respPic'></div></div>","3","1","Gavin","1","Shared","0.2,0.8","11","0.2","trustrating_stim/white_mw060.bmp","3","15","3"
"html-keyboard-response","144","331761","0.0-19.0-2.2","5f4000a47ed89c0e7f2e3760","bdp_trlrn","Wed Mar 15 2023 14:37:04 GMT-0400 (Eastern Daylight Time)","650675","Trustworthy,Untrustworthy","","null","","","","decisionFB","","<div class='trialDiv'><img src='trustrating_stim/white_mw060.bmp'><br><font class='baseline'><strong>Gavin</strong><p>Choose number of points to send.</font><div class='respPicDiv'><img src='img/responseButtonOffersNo0L3.png' class='respPic'></div></div>","null","1","Gavin","1","Shared","0.2,0.8","11","0.2","trustrating_stim/white_mw060.bmp","3","12","3"
"html-keyboard-response","145","332767","0.0-19.0-3.2","5f4000a47ed89c0e7f2e3760","bdp_trlrn","Wed Mar 15 2023 14:37:04 GMT-0400 (Eastern Daylight Time)","650675","Trustworthy,Untrustworthy","","null","","","","feedback","","<div class='trialDiv'><img src='trustrating_stim/white_mw060.bmp'><br><font class='baseline'><strong>Gavin</strong><p>Received: <strong>12</strong></font> &nbsp; &nbsp; &nbsp; &nbsp; &nbsp; &nbsp;<font class='posOutcome'>Shared back: <strong>6</strong></font></font><div class='respPicDiv'><img src='img/responseButtonOffersNo0_wht.png' class='respPic'></div></div>","null","1","Gavin","1","Shared","0.2,0.8","11","0.2","trustrating_stim/white_mw060.bmp","3","18","3"
"html-keyboard-response","146","335094","0.0-19.0-1.3","5f4000a47ed89c0e7f2e3760","bdp_trlrn","Wed Mar 15 2023 14:37:04 GMT-0400 (Eastern Daylight Time)","650675","Trustworthy,Untrustworthy","","2326","","","","decision","","<div class='trialDiv'><img src='trustrating_stim/white_00602_940928_fb_edt.bmp'><br><font class='baseline'><strong>James</strong><p>Choose number of points to send.</font><div class='respPicDiv'><img src='img/responseButtonOffersNo0L.png' class='respPic'></div></div>","1","2","James","6","Shared","0.2,0.65","11","0.2","trustrating_stim/white_00602_940928_fb_edt.bmp","4","23","4"
"html-keyboard-response","147","335350","0.0-19.0-2.3","5f4000a47ed89c0e7f2e3760","bdp_trlrn","Wed Mar 15 2023 14:37:04 GMT-0400 (Eastern Daylight Time)","650675","Trustworthy,Untrustworthy","","null","","","","decisionFB","","<div class='trialDiv'><img src='trustrating_stim/white_00602_940928_fb_edt.bmp'><br><font class='baseline'><strong>James</strong><p>Choose number of points to send.</font><div class='respPicDiv'><img src='img/responseButtonOffersNo0L1.png' class='respPic'></div></div>","null","2","James","6","Shared","0.2,0.65","11","0.2","trustrating_stim/white_00602_940928_fb_edt.bmp","4","22","4"
"html-keyboard-response","148","336351","0.0-19.0-3.3","5f4000a47ed89c0e7f2e3760","bdp_trlrn","Wed Mar 15 2023 14:37:04 GMT-0400 (Eastern Daylight Time)","650675","Trustworthy,Untrustworthy","","null","","","","feedback","","<div class='trialDiv'><img src='trustrating_stim/white_00602_940928_fb_edt.bmp'><br><font class='baseline'><strong>James</strong><p>Received: <strong>4</strong></font> &nbsp; &nbsp; &nbsp; &nbsp; &nbsp; &nbsp;<font class='posOutcome'>Shared back: <strong>2</strong></font></font><div class='respPicDiv'><img src='img/responseButtonOffersNo0_wht.png' class='respPic'></div></div>","null","2","James","6","Shared","0.2,0.65","11","0.2","trustrating_stim/white_00602_940928_fb_edt.bmp","4","24","4"
"html-keyboard-response","149","338046","0.0-19.0-1.4","5f4000a47ed89c0e7f2e3760","bdp_trlrn","Wed Mar 15 2023 14:37:04 GMT-0400 (Eastern Daylight Time)","650675","Trustworthy,Untrustworthy","","1694","","","","decision","","<div class='trialDiv'><img src='trustrating_stim/white_mw060.bmp'><br><font class='baseline'><strong>Gavin</strong><p>Choose number of points to send.</font><div class='respPicDiv'><img src='img/responseButtonOffersNo0L.png' class='respPic'></div></div>","3","2","Gavin","1","Shared","0.2,0.8","11","0.2","trustrating_stim/white_mw060.bmp","3","29","5"
"html-keyboard-response","150","338312","0.0-19.0-2.4","5f4000a47ed89c0e7f2e3760","bdp_trlrn","Wed Mar 15 2023 14:37:04 GMT-0400 (Eastern Daylight Time)","650675","Trustworthy,Untrustworthy","","null","","","","decisionFB","","<div class='trialDiv'><img src='trustrating_stim/white_mw060.bmp'><br><font class='baseline'><strong>Gavin</strong><p>Choose number of points to send.</font><div class='respPicDiv'><img src='img/responseButtonOffersNo0L3.png' class='respPic'></div></div>","null","2","Gavin","1","Shared","0.2,0.8","11","0.2","trustrating_stim/white_mw060.bmp","3","26","5"
"html-keyboard-response","151","339323","0.0-19.0-3.4","5f4000a47ed89c0e7f2e3760","bdp_trlrn","Wed Mar 15 2023 14:37:04 GMT-0400 (Eastern Daylight Time)","650675","Trustworthy,Untrustworthy","","null","","","","feedback","","<div class='trialDiv'><img src='trustrating_stim/white_mw060.bmp'><br><font class='baseline'><strong>Gavin</strong><p>Received: <strong>12</strong></font> &nbsp; &nbsp; &nbsp; &nbsp; &nbsp; &nbsp;<font class='posOutcome'>Shared back: <strong>6</strong></font></font><div class='respPicDiv'><img src='img/responseButtonOffersNo0_wht.png' class='respPic'></div></div>","null","2","Gavin","1","Shared","0.2,0.8","11","0.2","trustrating_stim/white_mw060.bmp","3","32","5"
"html-keyboard-response","152","340758","0.0-19.0-1.5","5f4000a47ed89c0e7f2e3760","bdp_trlrn","Wed Mar 15 2023 14:37:04 GMT-0400 (Eastern Daylight Time)","650675","Trustworthy,Untrustworthy","","1434","","","","decision","","<div class='trialDiv'><img src='trustrating_stim/white_mw066.bmp'><br><font class='baseline'><strong>Devin</strong><p>Choose number of points to send.</font><div class='respPicDiv'><img src='img/responseButtonOffersNo0L.png' class='respPic'></div></div>","3","2","Devin","8","Kept","0.8,0.35","13","0.8","trustrating_stim/white_mw066.bmp","5.5","37","6"
"html-keyboard-response","153","341018","0.0-19.0-2.5","5f4000a47ed89c0e7f2e3760","bdp_trlrn","Wed Mar 15 2023 14:37:04 GMT-0400 (Eastern Daylight Time)","650675","Trustworthy,Untrustworthy","","null","","","","decisionFB","","<div class='trialDiv'><img src='trustrating_stim/white_mw066.bmp'><br><font class='baseline'><strong>Devin</strong><p>Choose number of points to send.</font><div class='respPicDiv'><img src='img/responseButtonOffersNo0L3.png' class='respPic'></div></div>","null","2","Devin","8","Kept","0.8,0.35","13","0.8","trustrating_stim/white_mw066.bmp","5.5","34","6"
"html-keyboard-response","154","342031","0.0-19.0-3.5","5f4000a47ed89c0e7f2e3760","bdp_trlrn","Wed Mar 15 2023 14:37:04 GMT-0400 (Eastern Daylight Time)","650675","Trustworthy,Untrustworthy","","null","","","","feedback","","<div class='trialDiv'><img src='trustrating_stim/white_mw066.bmp'><br><font class='baseline'><strong>Devin</strong><p>Received: <strong>12</strong></font> &nbsp; &nbsp; &nbsp; &nbsp; &nbsp; &nbsp;<font class='negOutcome'>Shared back: <strong>0</strong></font></font><div class='respPicDiv'><img src='img/responseButtonOffersNo0_wht.png' class='respPic'></div></div>","null","2","Devin","8","Kept","0.8,0.35","13","0.8","trustrating_stim/white_mw066.bmp","5.5","34","6"
"html-keyboard-response","155","343368","0.0-19.0-1.6","5f4000a47ed89c0e7f2e3760","bdp_trlrn","Wed Mar 15 2023 14:37:04 GMT-0400 (Eastern Daylight Time)","650675","Trustworthy,Untrustworthy","","1337","","","","decision","","<div class='trialDiv'><img src='trustrating_stim/white_00602_940928_fb_edt.bmp'><br><font class='baseline'><strong>James</strong><p>Choose number of points to send.</font><div class='respPicDiv'><img src='img/responseButtonOffersNo0L.png' class='respPic'></div></div>","3","3","James","6","Kept","0.2,0.65","11","0.2","trustrating_stim/white_00602_940928_fb_edt.bmp","4","39","7"
"html-keyboard-response","156","343629","0.0-19.0-2.6","5f4000a47ed89c0e7f2e3760","bdp_trlrn","Wed Mar 15 2023 14:37:04 GMT-0400 (Eastern Daylight Time)","650675","Trustworthy,Untrustworthy","","null","","","","decisionFB","","<div class='trialDiv'><img src='trustrating_stim/white_00602_940928_fb_edt.bmp'><br><font class='baseline'><strong>James</strong><p>Choose number of points to send.</font><div class='respPicDiv'><img src='img/responseButtonOffersNo0L3.png' class='respPic'></div></div>","null","3","James","6","Kept","0.2,0.65","11","0.2","trustrating_stim/white_00602_940928_fb_edt.bmp","4","36","7"
"html-keyboard-response","157","344643","0.0-19.0-3.6","5f4000a47ed89c0e7f2e3760","bdp_trlrn","Wed Mar 15 2023 14:37:04 GMT-0400 (Eastern Daylight Time)","650675","Trustworthy,Untrustworthy","","null","","","","feedback","","<div class='trialDiv'><img src='trustrating_stim/white_00602_940928_fb_edt.bmp'><br><font class='baseline'><strong>James</strong><p>Received: <strong>12</strong></font> &nbsp; &nbsp; &nbsp; &nbsp; &nbsp; &nbsp;<font class='negOutcome'>Shared back: <strong>0</strong></font></font><div class='respPicDiv'><img src='img/responseButtonOffersNo0_wht.png' class='respPic'></div></div>","null","3","James","6","Kept","0.2,0.65","11","0.2","trustrating_stim/white_00602_940928_fb_edt.bmp","4","36","7"
"html-keyboard-response","158","346033","0.0-19.0-1.7","5f4000a47ed89c0e7f2e3760","bdp_trlrn","Wed Mar 15 2023 14:37:04 GMT-0400 (Eastern Daylight Time)","650675","Trustworthy,Untrustworthy","","1389","","","","decision","","<div class='trialDiv'><img src='trustrating_stim/white_mw060.bmp'><br><font class='baseline'><strong>Gavin</strong><p>Choose number of points to send.</font><div class='respPicDiv'><img src='img/responseButtonOffersNo0L.png' class='respPic'></div></div>","3","3","Gavin","1","Kept","0.2,0.8","11","0.2","trustrating_stim/white_mw060.bmp","3","41","8"
"html-keyboard-response","159","346288","0.0-19.0-2.7","5f4000a47ed89c0e7f2e3760","bdp_trlrn","Wed Mar 15 2023 14:37:04 GMT-0400 (Eastern Daylight Time)","650675","Trustworthy,Untrustworthy","","null","","","","decisionFB","","<div class='trialDiv'><img src='trustrating_stim/white_mw060.bmp'><br><font class='baseline'><strong>Gavin</strong><p>Choose number of points to send.</font><div class='respPicDiv'><img src='img/responseButtonOffersNo0L3.png' class='respPic'></div></div>","null","3","Gavin","1","Kept","0.2,0.8","11","0.2","trustrating_stim/white_mw060.bmp","3","38","8"
"html-keyboard-response","160","347300","0.0-19.0-3.7","5f4000a47ed89c0e7f2e3760","bdp_trlrn","Wed Mar 15 2023 14:37:04 GMT-0400 (Eastern Daylight Time)","650675","Trustworthy,Untrustworthy","","null","","","","feedback","","<div class='trialDiv'><img src='trustrating_stim/white_mw060.bmp'><br><font class='baseline'><strong>Gavin</strong><p>Received: <strong>12</strong></font> &nbsp; &nbsp; &nbsp; &nbsp; &nbsp; &nbsp;<font class='negOutcome'>Shared back: <strong>0</strong></font></font><div class='respPicDiv'><img src='img/responseButtonOffersNo0_wht.png' class='respPic'></div></div>","null","3","Gavin","1","Kept","0.2,0.8","11","0.2","trustrating_stim/white_mw060.bmp","3","38","8"
"html-keyboard-response","161","348878","0.0-19.0-1.8","5f4000a47ed89c0e7f2e3760","bdp_trlrn","Wed Mar 15 2023 14:37:04 GMT-0400 (Eastern Daylight Time)","650675","Trustworthy,Untrustworthy","","1577","","","","decision","","<div class='trialDiv'><img src='trustrating_stim/white_mw066.bmp'><br><font class='baseline'><strong>Devin</strong><p>Choose number of points to send.</font><div class='respPicDiv'><img src='img/responseButtonOffersNo0L.png' class='respPic'></div></div>","3","3","Devin","8","Shared","0.8,0.35","13","0.8","trustrating_stim/white_mw066.bmp","5.5","43","9"
"html-keyboard-response","162","349134","0.0-19.0-2.8","5f4000a47ed89c0e7f2e3760","bdp_trlrn","Wed Mar 15 2023 14:37:04 GMT-0400 (Eastern Daylight Time)","650675","Trustworthy,Untrustworthy","","null","","","","decisionFB","","<div class='trialDiv'><img src='trustrating_stim/white_mw066.bmp'><br><font class='baseline'><strong>Devin</strong><p>Choose number of points to send.</font><div class='respPicDiv'><img src='img/responseButtonOffersNo0L3.png' class='respPic'></div></div>","null","3","Devin","8","Shared","0.8,0.35","13","0.8","trustrating_stim/white_mw066.bmp","5.5","40","9"
"html-keyboard-response","163","350146","0.0-19.0-3.8","5f4000a47ed89c0e7f2e3760","bdp_trlrn","Wed Mar 15 2023 14:37:04 GMT-0400 (Eastern Daylight Time)","650675","Trustworthy,Untrustworthy","","null","","","","feedback","","<div class='trialDiv'><img src='trustrating_stim/white_mw066.bmp'><br><font class='baseline'><strong>Devin</strong><p>Received: <strong>12</strong></font> &nbsp; &nbsp; &nbsp; &nbsp; &nbsp; &nbsp;<font class='posOutcome'>Shared back: <strong>6</strong></font></font><div class='respPicDiv'><img src='img/responseButtonOffersNo0_wht.png' class='respPic'></div></div>","null","3","Devin","8","Shared","0.8,0.35","13","0.8","trustrating_stim/white_mw066.bmp","5.5","46","9"
"html-keyboard-response","164","351442","0.0-19.0-1.9","5f4000a47ed89c0e7f2e3760","bdp_trlrn","Wed Mar 15 2023 14:37:04 GMT-0400 (Eastern Daylight Time)","650675","Trustworthy,Untrustworthy","","1294","","","","decision","","<div class='trialDiv'><img src='trustrating_stim/white_00602_940928_fb_edt.bmp'><br><font class='baseline'><strong>James</strong><p>Choose number of points to send.</font><div class='respPicDiv'><img src='img/responseButtonOffersNo0L.png' class='respPic'></div></div>","3","4","James","6","Kept","0.2,0.65","11","0.2","trustrating_stim/white_00602_940928_fb_edt.bmp","4","51","10"
"html-keyboard-response","165","351699","0.0-19.0-2.9","5f4000a47ed89c0e7f2e3760","bdp_trlrn","Wed Mar 15 2023 14:37:04 GMT-0400 (Eastern Daylight Time)","650675","Trustworthy,Untrustworthy","","null","","","","decisionFB","","<div class='trialDiv'><img src='trustrating_stim/white_00602_940928_fb_edt.bmp'><br><font class='baseline'><strong>James</strong><p>Choose number of points to send.</font><div class='respPicDiv'><img src='img/responseButtonOffersNo0L3.png' class='respPic'></div></div>","null","4","James","6","Kept","0.2,0.65","11","0.2","trustrating_stim/white_00602_940928_fb_edt.bmp","4","48","10"
"html-keyboard-response","166","352710","0.0-19.0-3.9","5f4000a47ed89c0e7f2e3760","bdp_trlrn","Wed Mar 15 2023 14:37:04 GMT-0400 (Eastern Daylight Time)","650675","Trustworthy,Untrustworthy","","null","","","","feedback","","<div class='trialDiv'><img src='trustrating_stim/white_00602_940928_fb_edt.bmp'><br><font class='baseline'><strong>James</strong><p>Received: <strong>12</strong></font> &nbsp; &nbsp; &nbsp; &nbsp; &nbsp; &nbsp;<font class='negOutcome'>Shared back: <strong>0</strong></font></font><div class='respPicDiv'><img src='img/responseButtonOffersNo0_wht.png' class='respPic'></div></div>","null","4","James","6","Kept","0.2,0.65","11","0.2","trustrating_stim/white_00602_940928_fb_edt.bmp","4","48","10"
"html-keyboard-response","167","354864","0.0-19.0-1.10","5f4000a47ed89c0e7f2e3760","bdp_trlrn","Wed Mar 15 2023 14:37:04 GMT-0400 (Eastern Daylight Time)","650675","Trustworthy,Untrustworthy","","2153","","","","decision","","<div class='trialDiv'><img src='trustrating_stim/white_mw060.bmp'><br><font class='baseline'><strong>Gavin</strong><p>Choose number of points to send.</font><div class='respPicDiv'><img src='img/responseButtonOffersNo0L.png' class='respPic'></div></div>","3","4","Gavin","1","Kept","0.2,0.8","11","0.2","trustrating_stim/white_mw060.bmp","3","53","11"
"html-keyboard-response","168","355122","0.0-19.0-2.10","5f4000a47ed89c0e7f2e3760","bdp_trlrn","Wed Mar 15 2023 14:37:04 GMT-0400 (Eastern Daylight Time)","650675","Trustworthy,Untrustworthy","","null","","","","decisionFB","","<div class='trialDiv'><img src='trustrating_stim/white_mw060.bmp'><br><font class='baseline'><strong>Gavin</strong><p>Choose number of points to send.</font><div class='respPicDiv'><img src='img/responseButtonOffersNo0L3.png' class='respPic'></div></div>","null","4","Gavin","1","Kept","0.2,0.8","11","0.2","trustrating_stim/white_mw060.bmp","3","50","11"
"html-keyboard-response","169","356135","0.0-19.0-3.10","5f4000a47ed89c0e7f2e3760","bdp_trlrn","Wed Mar 15 2023 14:37:04 GMT-0400 (Eastern Daylight Time)","650675","Trustworthy,Untrustworthy","","null","","","","feedback","","<div class='trialDiv'><img src='trustrating_stim/white_mw060.bmp'><br><font class='baseline'><strong>Gavin</strong><p>Received: <strong>12</strong></font> &nbsp; &nbsp; &nbsp; &nbsp; &nbsp; &nbsp;<font class='negOutcome'>Shared back: <strong>0</strong></font></font><div class='respPicDiv'><img src='img/responseButtonOffersNo0_wht.png' class='respPic'></div></div>","null","4","Gavin","1","Kept","0.2,0.8","11","0.2","trustrating_stim/white_mw060.bmp","3","50","11"
"html-keyboard-response","170","359849","0.0-19.0-1.11","5f4000a47ed89c0e7f2e3760","bdp_trlrn","Wed Mar 15 2023 14:37:04 GMT-0400 (Eastern Daylight Time)","650675","Trustworthy,Untrustworthy","","3714","","","","decision","","<div class='trialDiv'><img src='trustrating_stim/white_mw066.bmp'><br><font class='baseline'><strong>Devin</strong><p>Choose number of points to send.</font><div class='respPicDiv'><img src='img/responseButtonOffersNo0L.png' class='respPic'></div></div>","5","4","Devin","8","Shared","0.8,0.35","13","0.8","trustrating_stim/white_mw066.bmp","5.5","55","12"
"html-keyboard-response","171","360109","0.0-19.0-2.11","5f4000a47ed89c0e7f2e3760","bdp_trlrn","Wed Mar 15 2023 14:37:04 GMT-0400 (Eastern Daylight Time)","650675","Trustworthy,Untrustworthy","","null","","","","decisionFB","","<div class='trialDiv'><img src='trustrating_stim/white_mw066.bmp'><br><font class='baseline'><strong>Devin</strong><p>Choose number of points to send.</font><div class='respPicDiv'><img src='img/responseButtonOffersNo0L5.png' class='respPic'></div></div>","null","4","Devin","8","Shared","0.8,0.35","13","0.8","trustrating_stim/white_mw066.bmp","5.5","50","12"
"html-keyboard-response","172","361118","0.0-19.0-3.11","5f4000a47ed89c0e7f2e3760","bdp_trlrn","Wed Mar 15 2023 14:37:04 GMT-0400 (Eastern Daylight Time)","650675","Trustworthy,Untrustworthy","","null","","","","feedback","","<div class='trialDiv'><img src='trustrating_stim/white_mw066.bmp'><br><font class='baseline'><strong>Devin</strong><p>Received: <strong>20</strong></font> &nbsp; &nbsp; &nbsp; &nbsp; &nbsp; &nbsp;<font class='posOutcome'>Shared back: <strong>10</strong></font></font><div class='respPicDiv'><img src='img/responseButtonOffersNo0_wht.png' class='respPic'></div></div>","null","4","Devin","8","Shared","0.8,0.35","13","0.8","trustrating_stim/white_mw066.bmp","5.5","60","12"
"html-keyboard-response","173","362141","0.0-19.0-1.12","5f4000a47ed89c0e7f2e3760","bdp_trlrn","Wed Mar 15 2023 14:37:04 GMT-0400 (Eastern Daylight Time)","650675","Trustworthy,Untrustworthy","","1023","","","","decision","","<div class='trialDiv'><img src='trustrating_stim/white_mw060.bmp'><br><font class='baseline'><strong>Gavin</strong><p>Choose number of points to send.</font><div class='respPicDiv'><img src='img/responseButtonOffersNo0L.png' class='respPic'></div></div>","1","5","Gavin","1","Shared","0.2,0.8","11","0.2","trustrating_stim/white_mw060.bmp","3","65","13"
"html-keyboard-response","174","362408","0.0-19.0-2.12","5f4000a47ed89c0e7f2e3760","bdp_trlrn","Wed Mar 15 2023 14:37:04 GMT-0400 (Eastern Daylight Time)","650675","Trustworthy,Untrustworthy","","null","","","","decisionFB","","<div class='trialDiv'><img src='trustrating_stim/white_mw060.bmp'><br><font class='baseline'><strong>Gavin</strong><p>Choose number of points to send.</font><div class='respPicDiv'><img src='img/responseButtonOffersNo0L1.png' class='respPic'></div></div>","null","5","Gavin","1","Shared","0.2,0.8","11","0.2","trustrating_stim/white_mw060.bmp","3","64","13"
"html-keyboard-response","175","363413","0.0-19.0-3.12","5f4000a47ed89c0e7f2e3760","bdp_trlrn","Wed Mar 15 2023 14:37:04 GMT-0400 (Eastern Daylight Time)","650675","Trustworthy,Untrustworthy","","null","","","","feedback","","<div class='trialDiv'><img src='trustrating_stim/white_mw060.bmp'><br><font class='baseline'><strong>Gavin</strong><p>Received: <strong>4</strong></font> &nbsp; &nbsp; &nbsp; &nbsp; &nbsp; &nbsp;<font class='posOutcome'>Shared back: <strong>2</strong></font></font><div class='respPicDiv'><img src='img/responseButtonOffersNo0_wht.png' class='respPic'></div></div>","null","5","Gavin","1","Shared","0.2,0.8","11","0.2","trustrating_stim/white_mw060.bmp","3","66","13"
"html-keyboard-response","176","364628","0.0-19.0-1.13","5f4000a47ed89c0e7f2e3760","bdp_trlrn","Wed Mar 15 2023 14:37:04 GMT-0400 (Eastern Daylight Time)","650675","Trustworthy,Untrustworthy","","1215","","","","decision","","<div class='trialDiv'><img src='trustrating_stim/white_00602_940928_fb_edt.bmp'><br><font class='baseline'><strong>James</strong><p>Choose number of points to send.</font><div class='respPicDiv'><img src='img/responseButtonOffersNo0L.png' class='respPic'></div></div>","1","5","James","6","Shared","0.2,0.65","11","0.2","trustrating_stim/white_00602_940928_fb_edt.bmp","4","71","14"
"html-keyboard-response","177","364890","0.0-19.0-2.13","5f4000a47ed89c0e7f2e3760","bdp_trlrn","Wed Mar 15 2023 14:37:04 GMT-0400 (Eastern Daylight Time)","650675","Trustworthy,Untrustworthy","","null","","","","decisionFB","","<div class='trialDiv'><img src='trustrating_stim/white_00602_940928_fb_edt.bmp'><br><font class='baseline'><strong>James</strong><p>Choose number of points to send.</font><div class='respPicDiv'><img src='img/responseButtonOffersNo0L1.png' class='respPic'></div></div>","null","5","James","6","Shared","0.2,0.65","11","0.2","trustrating_stim/white_00602_940928_fb_edt.bmp","4","70","14"
"html-keyboard-response","178","365898","0.0-19.0-3.13","5f4000a47ed89c0e7f2e3760","bdp_trlrn","Wed Mar 15 2023 14:37:04 GMT-0400 (Eastern Daylight Time)","650675","Trustworthy,Untrustworthy","","null","","","","feedback","","<div class='trialDiv'><img src='trustrating_stim/white_00602_940928_fb_edt.bmp'><br><font class='baseline'><strong>James</strong><p>Received: <strong>4</strong></font> &nbsp; &nbsp; &nbsp; &nbsp; &nbsp; &nbsp;<font class='posOutcome'>Shared back: <strong>2</strong></font></font><div class='respPicDiv'><img src='img/responseButtonOffersNo0_wht.png' class='respPic'></div></div>","null","5","James","6","Shared","0.2,0.65","11","0.2","trustrating_stim/white_00602_940928_fb_edt.bmp","4","72","14"
"html-keyboard-response","179","366993","0.0-19.0-1.14","5f4000a47ed89c0e7f2e3760","bdp_trlrn","Wed Mar 15 2023 14:37:04 GMT-0400 (Eastern Daylight Time)","650675","Trustworthy,Untrustworthy","","1093","","","","decision","","<div class='trialDiv'><img src='trustrating_stim/white_mw066.bmp'><br><font class='baseline'><strong>Devin</strong><p>Choose number of points to send.</font><div class='respPicDiv'><img src='img/responseButtonOffersNo0L.png' class='respPic'></div></div>","5","5","Devin","8","Shared","0.8,0.35","13","0.8","trustrating_stim/white_mw066.bmp","5.5","77","15"
"html-keyboard-response","180","367244","0.0-19.0-2.14","5f4000a47ed89c0e7f2e3760","bdp_trlrn","Wed Mar 15 2023 14:37:04 GMT-0400 (Eastern Daylight Time)","650675","Trustworthy,Untrustworthy","","null","","","","decisionFB","","<div class='trialDiv'><img src='trustrating_stim/white_mw066.bmp'><br><font class='baseline'><strong>Devin</strong><p>Choose number of points to send.</font><div class='respPicDiv'><img src='img/responseButtonOffersNo0L5.png' class='respPic'></div></div>","null","5","Devin","8","Shared","0.8,0.35","13","0.8","trustrating_stim/white_mw066.bmp","5.5","72","15"
"html-keyboard-response","181","368255","0.0-19.0-3.14","5f4000a47ed89c0e7f2e3760","bdp_trlrn","Wed Mar 15 2023 14:37:04 GMT-0400 (Eastern Daylight Time)","650675","Trustworthy,Untrustworthy","","null","","","","feedback","","<div class='trialDiv'><img src='trustrating_stim/white_mw066.bmp'><br><font class='baseline'><strong>Devin</strong><p>Received: <strong>20</strong></font> &nbsp; &nbsp; &nbsp; &nbsp; &nbsp; &nbsp;<font class='posOutcome'>Shared back: <strong>10</strong></font></font><div class='respPicDiv'><img src='img/responseButtonOffersNo0_wht.png' class='respPic'></div></div>","null","5","Devin","8","Shared","0.8,0.35","13","0.8","trustrating_stim/white_mw066.bmp","5.5","82","15"
"html-keyboard-response","182","370009","0.0-19.0-1.15","5f4000a47ed89c0e7f2e3760","bdp_trlrn","Wed Mar 15 2023 14:37:04 GMT-0400 (Eastern Daylight Time)","650675","Trustworthy,Untrustworthy","","1753","","","","decision","","<div class='trialDiv'><img src='trustrating_stim/white_00602_940928_fb_edt.bmp'><br><font class='baseline'><strong>James</strong><p>Choose number of points to send.</font><div class='respPicDiv'><img src='img/responseButtonOffersNo0L.png' class='respPic'></div></div>","3","6","James","6","Shared","0.2,0.65","11","0.2","trustrating_stim/white_00602_940928_fb_edt.bmp","4","87","16"
"html-keyboard-response","183","370266","0.0-19.0-2.15","5f4000a47ed89c0e7f2e3760","bdp_trlrn","Wed Mar 15 2023 14:37:04 GMT-0400 (Eastern Daylight Time)","650675","Trustworthy,Untrustworthy","","null","","","","decisionFB","","<div class='trialDiv'><img src='trustrating_stim/white_00602_940928_fb_edt.bmp'><br><font class='baseline'><strong>James</strong><p>Choose number of points to send.</font><div class='respPicDiv'><img src='img/responseButtonOffersNo0L3.png' class='respPic'></div></div>","null","6","James","6","Shared","0.2,0.65","11","0.2","trustrating_stim/white_00602_940928_fb_edt.bmp","4","84","16"
"html-keyboard-response","184","371276","0.0-19.0-3.15","5f4000a47ed89c0e7f2e3760","bdp_trlrn","Wed Mar 15 2023 14:37:04 GMT-0400 (Eastern Daylight Time)","650675","Trustworthy,Untrustworthy","","null","","","","feedback","","<div class='trialDiv'><img src='trustrating_stim/white_00602_940928_fb_edt.bmp'><br><font class='baseline'><strong>James</strong><p>Received: <strong>12</strong></font> &nbsp; &nbsp; &nbsp; &nbsp; &nbsp; &nbsp;<font class='posOutcome'>Shared back: <strong>6</strong></font></font><div class='respPicDiv'><img src='img/responseButtonOffersNo0_wht.png' class='respPic'></div></div>","null","6","James","6","Shared","0.2,0.65","11","0.2","trustrating_stim/white_00602_940928_fb_edt.bmp","4","90","16"
"html-keyboard-response","185","372239","0.0-19.0-1.16","5f4000a47ed89c0e7f2e3760","bdp_trlrn","Wed Mar 15 2023 14:37:04 GMT-0400 (Eastern Daylight Time)","650675","Trustworthy,Untrustworthy","","963","","","","decision","","<div class='trialDiv'><img src='trustrating_stim/white_mw060.bmp'><br><font class='baseline'><strong>Gavin</strong><p>Choose number of points to send.</font><div class='respPicDiv'><img src='img/responseButtonOffersNo0L.png' class='respPic'></div></div>","3","6","Gavin","1","Kept","0.2,0.8","11","0.2","trustrating_stim/white_mw060.bmp","3","95","17"
"html-keyboard-response","186","372490","0.0-19.0-2.16","5f4000a47ed89c0e7f2e3760","bdp_trlrn","Wed Mar 15 2023 14:37:04 GMT-0400 (Eastern Daylight Time)","650675","Trustworthy,Untrustworthy","","null","","","","decisionFB","","<div class='trialDiv'><img src='trustrating_stim/white_mw060.bmp'><br><font class='baseline'><strong>Gavin</strong><p>Choose number of points to send.</font><div class='respPicDiv'><img src='img/responseButtonOffersNo0L3.png' class='respPic'></div></div>","null","6","Gavin","1","Kept","0.2,0.8","11","0.2","trustrating_stim/white_mw060.bmp","3","92","17"
"html-keyboard-response","187","373493","0.0-19.0-3.16","5f4000a47ed89c0e7f2e3760","bdp_trlrn","Wed Mar 15 2023 14:37:04 GMT-0400 (Eastern Daylight Time)","650675","Trustworthy,Untrustworthy","","null","","","","feedback","","<div class='trialDiv'><img src='trustrating_stim/white_mw060.bmp'><br><font class='baseline'><strong>Gavin</strong><p>Received: <strong>12</strong></font> &nbsp; &nbsp; &nbsp; &nbsp; &nbsp; &nbsp;<font class='negOutcome'>Shared back: <strong>0</strong></font></font><div class='respPicDiv'><img src='img/responseButtonOffersNo0_wht.png' class='respPic'></div></div>","null","6","Gavin","1","Kept","0.2,0.8","11","0.2","trustrating_stim/white_mw060.bmp","3","92","17"
"html-keyboard-response","188","374223","0.0-19.0-1.17","5f4000a47ed89c0e7f2e3760","bdp_trlrn","Wed Mar 15 2023 14:37:04 GMT-0400 (Eastern Daylight Time)","650675","Trustworthy,Untrustworthy","","729","","","","decision","","<div class='trialDiv'><img src='trustrating_stim/white_mw066.bmp'><br><font class='baseline'><strong>Devin</strong><p>Choose number of points to send.</font><div class='respPicDiv'><img src='img/responseButtonOffersNo0L.png' class='respPic'></div></div>","5","6","Devin","8","Shared","0.8,0.35","13","0.8","trustrating_stim/white_mw066.bmp","5.5","97","18"
"html-keyboard-response","189","374474","0.0-19.0-2.17","5f4000a47ed89c0e7f2e3760","bdp_trlrn","Wed Mar 15 2023 14:37:04 GMT-0400 (Eastern Daylight Time)","650675","Trustworthy,Untrustworthy","","null","","","","decisionFB","","<div class='trialDiv'><img src='trustrating_stim/white_mw066.bmp'><br><font class='baseline'><strong>Devin</strong><p>Choose number of points to send.</font><div class='respPicDiv'><img src='img/responseButtonOffersNo0L5.png' class='respPic'></div></div>","null","6","Devin","8","Shared","0.8,0.35","13","0.8","trustrating_stim/white_mw066.bmp","5.5","92","18"
"html-keyboard-response","190","375487","0.0-19.0-3.17","5f4000a47ed89c0e7f2e3760","bdp_trlrn","Wed Mar 15 2023 14:37:04 GMT-0400 (Eastern Daylight Time)","650675","Trustworthy,Untrustworthy","","null","","","","feedback","","<div class='trialDiv'><img src='trustrating_stim/white_mw066.bmp'><br><font class='baseline'><strong>Devin</strong><p>Received: <strong>20</strong></font> &nbsp; &nbsp; &nbsp; &nbsp; &nbsp; &nbsp;<font class='posOutcome'>Shared back: <strong>10</strong></font></font><div class='respPicDiv'><img src='img/responseButtonOffersNo0_wht.png' class='respPic'></div></div>","null","6","Devin","8","Shared","0.8,0.35","13","0.8","trustrating_stim/white_mw066.bmp","5.5","102","18"
"html-keyboard-response","191","376056","0.0-19.0-1.18","5f4000a47ed89c0e7f2e3760","bdp_trlrn","Wed Mar 15 2023 14:37:04 GMT-0400 (Eastern Daylight Time)","650675","Trustworthy,Untrustworthy","","568","","","","decision","","<div class='trialDiv'><img src='trustrating_stim/white_00602_940928_fb_edt.bmp'><br><font class='baseline'><strong>James</strong><p>Choose number of points to send.</font><div class='respPicDiv'><img src='img/responseButtonOffersNo0L.png' class='respPic'></div></div>","3","7","James","6","Kept","0.2,0.65","11","0.2","trustrating_stim/white_00602_940928_fb_edt.bmp","4","107","19"
"html-keyboard-response","192","376314","0.0-19.0-2.18","5f4000a47ed89c0e7f2e3760","bdp_trlrn","Wed Mar 15 2023 14:37:04 GMT-0400 (Eastern Daylight Time)","650675","Trustworthy,Untrustworthy","","null","","","","decisionFB","","<div class='trialDiv'><img src='trustrating_stim/white_00602_940928_fb_edt.bmp'><br><font class='baseline'><strong>James</strong><p>Choose number of points to send.</font><div class='respPicDiv'><img src='img/responseButtonOffersNo0L3.png' class='respPic'></div></div>","null","7","James","6","Kept","0.2,0.65","11","0.2","trustrating_stim/white_00602_940928_fb_edt.bmp","4","104","19"
"html-keyboard-response","193","377323","0.0-19.0-3.18","5f4000a47ed89c0e7f2e3760","bdp_trlrn","Wed Mar 15 2023 14:37:04 GMT-0400 (Eastern Daylight Time)","650675","Trustworthy,Untrustworthy","","null","","","","feedback","","<div class='trialDiv'><img src='trustrating_stim/white_00602_940928_fb_edt.bmp'><br><font class='baseline'><strong>James</strong><p>Received: <strong>12</strong></font> &nbsp; &nbsp; &nbsp; &nbsp; &nbsp; &nbsp;<font class='negOutcome'>Shared back: <strong>0</strong></font></font><div class='respPicDiv'><img src='img/responseButtonOffersNo0_wht.png' class='respPic'></div></div>","null","7","James","6","Kept","0.2,0.65","11","0.2","trustrating_stim/white_00602_940928_fb_edt.bmp","4","104","19"
"html-keyboard-response","194","378246","0.0-19.0-1.19","5f4000a47ed89c0e7f2e3760","bdp_trlrn","Wed Mar 15 2023 14:37:04 GMT-0400 (Eastern Daylight Time)","650675","Trustworthy,Untrustworthy","","922","","","","decision","","<div class='trialDiv'><img src='trustrating_stim/white_mw066.bmp'><br><font class='baseline'><strong>Devin</strong><p>Choose number of points to send.</font><div class='respPicDiv'><img src='img/responseButtonOffersNo0L.png' class='respPic'></div></div>","5","7","Devin","8","Shared","0.8,0.35","13","0.8","trustrating_stim/white_mw066.bmp","5.5","109","20"
"html-keyboard-response","195","378504","0.0-19.0-2.19","5f4000a47ed89c0e7f2e3760","bdp_trlrn","Wed Mar 15 2023 14:37:04 GMT-0400 (Eastern Daylight Time)","650675","Trustworthy,Untrustworthy","","null","","","","decisionFB","","<div class='trialDiv'><img src='trustrating_stim/white_mw066.bmp'><br><font class='baseline'><strong>Devin</strong><p>Choose number of points to send.</font><div class='respPicDiv'><img src='img/responseButtonOffersNo0L5.png' class='respPic'></div></div>","null","7","Devin","8","Shared","0.8,0.35","13","0.8","trustrating_stim/white_mw066.bmp","5.5","104","20"
"html-keyboard-response","196","379506","0.0-19.0-3.19","5f4000a47ed89c0e7f2e3760","bdp_trlrn","Wed Mar 15 2023 14:37:04 GMT-0400 (Eastern Daylight Time)","650675","Trustworthy,Untrustworthy","","null","","","","feedback","","<div class='trialDiv'><img src='trustrating_stim/white_mw066.bmp'><br><font class='baseline'><strong>Devin</strong><p>Received: <strong>20</strong></font> &nbsp; &nbsp; &nbsp; &nbsp; &nbsp; &nbsp;<font class='posOutcome'>Shared back: <strong>10</strong></font></font><div class='respPicDiv'><img src='img/responseButtonOffersNo0_wht.png' class='respPic'></div></div>","null","7","Devin","8","Shared","0.8,0.35","13","0.8","trustrating_stim/white_mw066.bmp","5.5","114","20"
"html-keyboard-response","197","380081","0.0-19.0-1.20","5f4000a47ed89c0e7f2e3760","bdp_trlrn","Wed Mar 15 2023 14:37:04 GMT-0400 (Eastern Daylight Time)","650675","Trustworthy,Untrustworthy","","575","","","","decision","","<div class='trialDiv'><img src='trustrating_stim/white_mw060.bmp'><br><font class='baseline'><strong>Gavin</strong><p>Choose number of points to send.</font><div class='respPicDiv'><img src='img/responseButtonOffersNo0L.png' class='respPic'></div></div>","3","7","Gavin","1","Kept","0.2,0.8","11","0.2","trustrating_stim/white_mw060.bmp","3","119","21"
"html-keyboard-response","198","380342","0.0-19.0-2.20","5f4000a47ed89c0e7f2e3760","bdp_trlrn","Wed Mar 15 2023 14:37:04 GMT-0400 (Eastern Daylight Time)","650675","Trustworthy,Untrustworthy","","null","","","","decisionFB","","<div class='trialDiv'><img src='trustrating_stim/white_mw060.bmp'><br><font class='baseline'><strong>Gavin</strong><p>Choose number of points to send.</font><div class='respPicDiv'><img src='img/responseButtonOffersNo0L3.png' class='respPic'></div></div>","null","7","Gavin","1","Kept","0.2,0.8","11","0.2","trustrating_stim/white_mw060.bmp","3","116","21"
"html-keyboard-response","199","381347","0.0-19.0-3.20","5f4000a47ed89c0e7f2e3760","bdp_trlrn","Wed Mar 15 2023 14:37:04 GMT-0400 (Eastern Daylight Time)","650675","Trustworthy,Untrustworthy","","null","","","","feedback","","<div class='trialDiv'><img src='trustrating_stim/white_mw060.bmp'><br><font class='baseline'><strong>Gavin</strong><p>Received: <strong>12</strong></font> &nbsp; &nbsp; &nbsp; &nbsp; &nbsp; &nbsp;<font class='negOutcome'>Shared back: <strong>0</strong></font></font><div class='respPicDiv'><img src='img/responseButtonOffersNo0_wht.png' class='respPic'></div></div>","null","7","Gavin","1","Kept","0.2,0.8","11","0.2","trustrating_stim/white_mw060.bmp","3","116","21"
"html-keyboard-response","200","382116","0.0-19.0-1.21","5f4000a47ed89c0e7f2e3760","bdp_trlrn","Wed Mar 15 2023 14:37:04 GMT-0400 (Eastern Daylight Time)","650675","Trustworthy,Untrustworthy","","768","","","","decision","","<div class='trialDiv'><img src='trustrating_stim/white_mw066.bmp'><br><font class='baseline'><strong>Devin</strong><p>Choose number of points to send.</font><div class='respPicDiv'><img src='img/responseButtonOffersNo0L.png' class='respPic'></div></div>","5","8","Devin","8","Shared","0.8,0.35","13","0.8","trustrating_stim/white_mw066.bmp","5.5","121","22"
"html-keyboard-response","201","382372","0.0-19.0-2.21","5f4000a47ed89c0e7f2e3760","bdp_trlrn","Wed Mar 15 2023 14:37:04 GMT-0400 (Eastern Daylight Time)","650675","Trustworthy,Untrustworthy","","null","","","","decisionFB","","<div class='trialDiv'><img src='trustrating_stim/white_mw066.bmp'><br><font class='baseline'><strong>Devin</strong><p>Choose number of points to send.</font><div class='respPicDiv'><img src='img/responseButtonOffersNo0L5.png' class='respPic'></div></div>","null","8","Devin","8","Shared","0.8,0.35","13","0.8","trustrating_stim/white_mw066.bmp","5.5","116","22"
"html-keyboard-response","202","383384","0.0-19.0-3.21","5f4000a47ed89c0e7f2e3760","bdp_trlrn","Wed Mar 15 2023 14:37:04 GMT-0400 (Eastern Daylight Time)","650675","Trustworthy,Untrustworthy","","null","","","","feedback","","<div class='trialDiv'><img src='trustrating_stim/white_mw066.bmp'><br><font class='baseline'><strong>Devin</strong><p>Received: <strong>20</strong></font> &nbsp; &nbsp; &nbsp; &nbsp; &nbsp; &nbsp;<font class='posOutcome'>Shared back: <strong>10</strong></font></font><div class='respPicDiv'><img src='img/responseButtonOffersNo0_wht.png' class='respPic'></div></div>","null","8","Devin","8","Shared","0.8,0.35","13","0.8","trustrating_stim/white_mw066.bmp","5.5","126","22"
"html-keyboard-response","203","384474","0.0-19.0-1.22","5f4000a47ed89c0e7f2e3760","bdp_trlrn","Wed Mar 15 2023 14:37:04 GMT-0400 (Eastern Daylight Time)","650675","Trustworthy,Untrustworthy","","1089","","","","decision","","<div class='trialDiv'><img src='trustrating_stim/white_00602_940928_fb_edt.bmp'><br><font class='baseline'><strong>James</strong><p>Choose number of points to send.</font><div class='respPicDiv'><img src='img/responseButtonOffersNo0L.png' class='respPic'></div></div>","2","8","James","6","Kept","0.2,0.65","11","0.2","trustrating_stim/white_00602_940928_fb_edt.bmp","4","131","23"
"html-keyboard-response","204","384726","0.0-19.0-2.22","5f4000a47ed89c0e7f2e3760","bdp_trlrn","Wed Mar 15 2023 14:37:04 GMT-0400 (Eastern Daylight Time)","650675","Trustworthy,Untrustworthy","","null","","","","decisionFB","","<div class='trialDiv'><img src='trustrating_stim/white_00602_940928_fb_edt.bmp'><br><font class='baseline'><strong>James</strong><p>Choose number of points to send.</font><div class='respPicDiv'><img src='img/responseButtonOffersNo0L2.png' class='respPic'></div></div>","null","8","James","6","Kept","0.2,0.65","11","0.2","trustrating_stim/white_00602_940928_fb_edt.bmp","4","129","23"
"html-keyboard-response","205","385733","0.0-19.0-3.22","5f4000a47ed89c0e7f2e3760","bdp_trlrn","Wed Mar 15 2023 14:37:04 GMT-0400 (Eastern Daylight Time)","650675","Trustworthy,Untrustworthy","","null","","","","feedback","","<div class='trialDiv'><img src='trustrating_stim/white_00602_940928_fb_edt.bmp'><br><font class='baseline'><strong>James</strong><p>Received: <strong>8</strong></font> &nbsp; &nbsp; &nbsp; &nbsp; &nbsp; &nbsp;<font class='negOutcome'>Shared back: <strong>0</strong></font></font><div class='respPicDiv'><img src='img/responseButtonOffersNo0_wht.png' class='respPic'></div></div>","null","8","James","6","Kept","0.2,0.65","11","0.2","trustrating_stim/white_00602_940928_fb_edt.bmp","4","129","23"
"html-keyboard-response","206","386663","0.0-19.0-1.23","5f4000a47ed89c0e7f2e3760","bdp_trlrn","Wed Mar 15 2023 14:37:04 GMT-0400 (Eastern Daylight Time)","650675","Trustworthy,Untrustworthy","","930","","","","decision","","<div class='trialDiv'><img src='trustrating_stim/white_mw060.bmp'><br><font class='baseline'><strong>Gavin</strong><p>Choose number of points to send.</font><div class='respPicDiv'><img src='img/responseButtonOffersNo0L.png' class='respPic'></div></div>","2","8","Gavin","1","Kept","0.2,0.8","11","0.2","trustrating_stim/white_mw060.bmp","3","134","24"
"html-keyboard-response","207","386915","0.0-19.0-2.23","5f4000a47ed89c0e7f2e3760","bdp_trlrn","Wed Mar 15 2023 14:37:04 GMT-0400 (Eastern Daylight Time)","650675","Trustworthy,Untrustworthy","","null","","","","decisionFB","","<div class='trialDiv'><img src='trustrating_stim/white_mw060.bmp'><br><font class='baseline'><strong>Gavin</strong><p>Choose number of points to send.</font><div class='respPicDiv'><img src='img/responseButtonOffersNo0L2.png' class='respPic'></div></div>","null","8","Gavin","1","Kept","0.2,0.8","11","0.2","trustrating_stim/white_mw060.bmp","3","132","24"
"html-keyboard-response","208","387923","0.0-19.0-3.23","5f4000a47ed89c0e7f2e3760","bdp_trlrn","Wed Mar 15 2023 14:37:04 GMT-0400 (Eastern Daylight Time)","650675","Trustworthy,Untrustworthy","","null","","","","feedback","","<div class='trialDiv'><img src='trustrating_stim/white_mw060.bmp'><br><font class='baseline'><strong>Gavin</strong><p>Received: <strong>8</strong></font> &nbsp; &nbsp; &nbsp; &nbsp; &nbsp; &nbsp;<font class='negOutcome'>Shared back: <strong>0</strong></font></font><div class='respPicDiv'><img src='img/responseButtonOffersNo0_wht.png' class='respPic'></div></div>","null","8","Gavin","1","Kept","0.2,0.8","11","0.2","trustrating_stim/white_mw060.bmp","3","132","24"
"html-keyboard-response","209","388973","0.0-19.0-1.24","5f4000a47ed89c0e7f2e3760","bdp_trlrn","Wed Mar 15 2023 14:37:04 GMT-0400 (Eastern Daylight Time)","650675","Trustworthy,Untrustworthy","","1049","","","","decision","","<div class='trialDiv'><img src='trustrating_stim/white_mw066.bmp'><br><font class='baseline'><strong>Devin</strong><p>Choose number of points to send.</font><div class='respPicDiv'><img src='img/responseButtonOffersNo0L.png' class='respPic'></div></div>","5","9","Devin","8","Kept","0.8,0.35","13","0.8","trustrating_stim/white_mw066.bmp","5.5","137","25"
"html-keyboard-response","210","389234","0.0-19.0-2.24","5f4000a47ed89c0e7f2e3760","bdp_trlrn","Wed Mar 15 2023 14:37:04 GMT-0400 (Eastern Daylight Time)","650675","Trustworthy,Untrustworthy","","null","","","","decisionFB","","<div class='trialDiv'><img src='trustrating_stim/white_mw066.bmp'><br><font class='baseline'><strong>Devin</strong><p>Choose number of points to send.</font><div class='respPicDiv'><img src='img/responseButtonOffersNo0L5.png' class='respPic'></div></div>","null","9","Devin","8","Kept","0.8,0.35","13","0.8","trustrating_stim/white_mw066.bmp","5.5","132","25"
"html-keyboard-response","211","390241","0.0-19.0-3.24","5f4000a47ed89c0e7f2e3760","bdp_trlrn","Wed Mar 15 2023 14:37:04 GMT-0400 (Eastern Daylight Time)","650675","Trustworthy,Untrustworthy","","null","","","","feedback","","<div class='trialDiv'><img src='trustrating_stim/white_mw066.bmp'><br><font class='baseline'><strong>Devin</strong><p>Received: <strong>20</strong></font> &nbsp; &nbsp; &nbsp; &nbsp; &nbsp; &nbsp;<font class='negOutcome'>Shared back: <strong>0</strong></font></font><div class='respPicDiv'><img src='img/responseButtonOffersNo0_wht.png' class='respPic'></div></div>","null","9","Devin","8","Kept","0.8,0.35","13","0.8","trustrating_stim/white_mw066.bmp","5.5","132","25"
"html-keyboard-response","212","391300","0.0-19.0-1.25","5f4000a47ed89c0e7f2e3760","bdp_trlrn","Wed Mar 15 2023 14:37:04 GMT-0400 (Eastern Daylight Time)","650675","Trustworthy,Untrustworthy","","1058","","","","decision","","<div class='trialDiv'><img src='trustrating_stim/white_00602_940928_fb_edt.bmp'><br><font class='baseline'><strong>James</strong><p>Choose number of points to send.</font><div class='respPicDiv'><img src='img/responseButtonOffersNo0L.png' class='respPic'></div></div>","2","9","James","6","Kept","0.2,0.65","11","0.2","trustrating_stim/white_00602_940928_fb_edt.bmp","4","137","26"
"html-keyboard-response","213","391564","0.0-19.0-2.25","5f4000a47ed89c0e7f2e3760","bdp_trlrn","Wed Mar 15 2023 14:37:04 GMT-0400 (Eastern Daylight Time)","650675","Trustworthy,Untrustworthy","","null","","","","decisionFB","","<div class='trialDiv'><img src='trustrating_stim/white_00602_940928_fb_edt.bmp'><br><font class='baseline'><strong>James</strong><p>Choose number of points to send.</font><div class='respPicDiv'><img src='img/responseButtonOffersNo0L2.png' class='respPic'></div></div>","null","9","James","6","Kept","0.2,0.65","11","0.2","trustrating_stim/white_00602_940928_fb_edt.bmp","4","135","26"
"html-keyboard-response","214","392574","0.0-19.0-3.25","5f4000a47ed89c0e7f2e3760","bdp_trlrn","Wed Mar 15 2023 14:37:04 GMT-0400 (Eastern Daylight Time)","650675","Trustworthy,Untrustworthy","","null","","","","feedback","","<div class='trialDiv'><img src='trustrating_stim/white_00602_940928_fb_edt.bmp'><br><font class='baseline'><strong>James</strong><p>Received: <strong>8</strong></font> &nbsp; &nbsp; &nbsp; &nbsp; &nbsp; &nbsp;<font class='negOutcome'>Shared back: <strong>0</strong></font></font><div class='respPicDiv'><img src='img/responseButtonOffersNo0_wht.png' class='respPic'></div></div>","null","9","James","6","Kept","0.2,0.65","11","0.2","trustrating_stim/white_00602_940928_fb_edt.bmp","4","135","26"
"html-keyboard-response","215","393423","0.0-19.0-1.26","5f4000a47ed89c0e7f2e3760","bdp_trlrn","Wed Mar 15 2023 14:37:04 GMT-0400 (Eastern Daylight Time)","650675","Trustworthy,Untrustworthy","","848","","","","decision","","<div class='trialDiv'><img src='trustrating_stim/white_mw060.bmp'><br><font class='baseline'><strong>Gavin</strong><p>Choose number of points to send.</font><div class='respPicDiv'><img src='img/responseButtonOffersNo0L.png' class='respPic'></div></div>","2","9","Gavin","1","Kept","0.2,0.8","11","0.2","trustrating_stim/white_mw060.bmp","3","140","27"
"html-keyboard-response","216","393676","0.0-19.0-2.26","5f4000a47ed89c0e7f2e3760","bdp_trlrn","Wed Mar 15 2023 14:37:04 GMT-0400 (Eastern Daylight Time)","650675","Trustworthy,Untrustworthy","","null","","","","decisionFB","","<div class='trialDiv'><img src='trustrating_stim/white_mw060.bmp'><br><font class='baseline'><strong>Gavin</strong><p>Choose number of points to send.</font><div class='respPicDiv'><img src='img/responseButtonOffersNo0L2.png' class='respPic'></div></div>","null","9","Gavin","1","Kept","0.2,0.8","11","0.2","trustrating_stim/white_mw060.bmp","3","138","27"
"html-keyboard-response","217","394682","0.0-19.0-3.26","5f4000a47ed89c0e7f2e3760","bdp_trlrn","Wed Mar 15 2023 14:37:04 GMT-0400 (Eastern Daylight Time)","650675","Trustworthy,Untrustworthy","","null","","","","feedback","","<div class='trialDiv'><img src='trustrating_stim/white_mw060.bmp'><br><font class='baseline'><strong>Gavin</strong><p>Received: <strong>8</strong></font> &nbsp; &nbsp; &nbsp; &nbsp; &nbsp; &nbsp;<font class='negOutcome'>Shared back: <strong>0</strong></font></font><div class='respPicDiv'><img src='img/responseButtonOffersNo0_wht.png' class='respPic'></div></div>","null","9","Gavin","1","Kept","0.2,0.8","11","0.2","trustrating_stim/white_mw060.bmp","3","138","27"
"html-keyboard-response","218","395543","0.0-19.0-1.27","5f4000a47ed89c0e7f2e3760","bdp_trlrn","Wed Mar 15 2023 14:37:04 GMT-0400 (Eastern Daylight Time)","650675","Trustworthy,Untrustworthy","","860","","","","decision","","<div class='trialDiv'><img src='trustrating_stim/white_00602_940928_fb_edt.bmp'><br><font class='baseline'><strong>James</strong><p>Choose number of points to send.</font><div class='respPicDiv'><img src='img/responseButtonOffersNo0L.png' class='respPic'></div></div>","5","10","James","6","Kept","0.2,0.65","11","0.2","trustrating_stim/white_00602_940928_fb_edt.bmp","4","143","28"
"html-keyboard-response","219","395803","0.0-19.0-2.27","5f4000a47ed89c0e7f2e3760","bdp_trlrn","Wed Mar 15 2023 14:37:04 GMT-0400 (Eastern Daylight Time)","650675","Trustworthy,Untrustworthy","","null","","","","decisionFB","","<div class='trialDiv'><img src='trustrating_stim/white_00602_940928_fb_edt.bmp'><br><font class='baseline'><strong>James</strong><p>Choose number of points to send.</font><div class='respPicDiv'><img src='img/responseButtonOffersNo0L5.png' class='respPic'></div></div>","null","10","James","6","Kept","0.2,0.65","11","0.2","trustrating_stim/white_00602_940928_fb_edt.bmp","4","138","28"
"html-keyboard-response","220","396816","0.0-19.0-3.27","5f4000a47ed89c0e7f2e3760","bdp_trlrn","Wed Mar 15 2023 14:37:04 GMT-0400 (Eastern Daylight Time)","650675","Trustworthy,Untrustworthy","","null","","","","feedback","","<div class='trialDiv'><img src='trustrating_stim/white_00602_940928_fb_edt.bmp'><br><font class='baseline'><strong>James</strong><p>Received: <strong>20</strong></font> &nbsp; &nbsp; &nbsp; &nbsp; &nbsp; &nbsp;<font class='negOutcome'>Shared back: <strong>0</strong></font></font><div class='respPicDiv'><img src='img/responseButtonOffersNo0_wht.png' class='respPic'></div></div>","null","10","James","6","Kept","0.2,0.65","11","0.2","trustrating_stim/white_00602_940928_fb_edt.bmp","4","138","28"
"html-keyboard-response","221","398167","0.0-19.0-1.28","5f4000a47ed89c0e7f2e3760","bdp_trlrn","Wed Mar 15 2023 14:37:04 GMT-0400 (Eastern Daylight Time)","650675","Trustworthy,Untrustworthy","","1350","","","","decision","","<div class='trialDiv'><img src='trustrating_stim/white_mw060.bmp'><br><font class='baseline'><strong>Gavin</strong><p>Choose number of points to send.</font><div class='respPicDiv'><img src='img/responseButtonOffersNo0L.png' class='respPic'></div></div>","1","10","Gavin","1","Kept","0.2,0.8","11","0.2","trustrating_stim/white_mw060.bmp","3","143","29"
