"event","trial","time","trialtype","subject_id","task","startTime","totalTime","labels","trial_type","trial_index","time_elapsed","internal_node_id","view_history","rt","success","stimulus","key_press","aground","name","faceID","outcome","agenttype","agentswpt","agentcurrpshare","face","avgRating","point_total","round"
"focus","0","0","focusevent","63e55887d67a5c7e32a678fa","bdp_trlrn","Mon Mar 13 2023 13:18:48 GMT-0500 (Central Daylight Time)","654207","Trustworthy,Untrustworthy","","","","","","","","","","","","","","","","","","","",""
"","","","","63e55887d67a5c7e32a678fa","bdp_trlrn","Mon Mar 13 2023 13:18:48 GMT-0500 (Central Daylight Time)","654207","Trustworthy,Untrustworthy","pavlovia","0","38","0.0-0.0","","","","","","","","","","","","","","","",""
"","","","","63e55887d67a5c7e32a678fa","bdp_trlrn","Mon Mar 13 2023 13:18:48 GMT-0500 (Central Daylight Time)","654207","Trustworthy,Untrustworthy","instructions","1","3950","0.0-1.0","[{""page_index"":0,""viewing_time"":3911}]","3911","","","","","","","","","","","","","",""
"fullscreenexit","2","10927","fullscreenexit","63e55887d67a5c7e32a678fa","bdp_trlrn","Mon Mar 13 2023 13:18:48 GMT-0500 (Central Daylight Time)","654207","Trustworthy,Untrustworthy","","","","","","","","","","","","","","","","","","","",""
"","","","","63e55887d67a5c7e32a678fa","bdp_trlrn","Mon Mar 13 2023 13:18:48 GMT-0500 (Central Daylight Time)","654207","Trustworthy,Untrustworthy","fullscreen","2","11081","0.0-2.0","","","true","","","","","","","","","","","","",""
"","","","fullscreenfail","63e55887d67a5c7e32a678fa","bdp_trlrn","Mon Mar 13 2023 13:18:48 GMT-0500 (Central Daylight Time)","654207","Trustworthy,Untrustworthy","image-keyboard-response","3","22864","0.0-3.0-0.0","","11778","","","32","","","","","","","","","","",""
"","","","","63e55887d67a5c7e32a678fa","bdp_trlrn","Mon Mar 13 2023 13:18:48 GMT-0500 (Central Daylight Time)","654207","Trustworthy,Untrustworthy","instructions","4","52481","0.0-4.0","[{""page_index"":0,""viewing_time"":6},{""page_index"":1,""viewing_time"":29352}]","29358","","","","","","","","","","","","","",""
"","","","","63e55887d67a5c7e32a678fa","bdp_trlrn","Mon Mar 13 2023 13:18:48 GMT-0500 (Central Daylight Time)","654207","Trustworthy,Untrustworthy","instructions","5","54392","0.0-5.0","[{""page_index"":0,""viewing_time"":1910}]","1910","","","","","","","","","","","","","",""
"","","","rating","63e55887d67a5c7e32a678fa","bdp_trlrn","Mon Mar 13 2023 13:18:48 GMT-0500 (Central Daylight Time)","654207","Trustworthy,Untrustworthy","image-keyboard-response","6","58614","0.0-6.0-1.0","","4110","","trustrating_stim/white_mw097.bmp","2","","","","","","","","","","",""
"","","","ratingFB","63e55887d67a5c7e32a678fa","bdp_trlrn","Mon Mar 13 2023 13:18:48 GMT-0500 (Central Daylight Time)","654207","Trustworthy,Untrustworthy","image-keyboard-response","7","58831","0.0-6.0-2.0","","null","","trustrating_stim/white_mw097.bmp","null","","","","","","","","","","",""
"","","","rating","63e55887d67a5c7e32a678fa","bdp_trlrn","Mon Mar 13 2023 13:18:48 GMT-0500 (Central Daylight Time)","654207","Trustworthy,Untrustworthy","image-keyboard-response","8","60276","0.0-6.0-1.1","","1333","","trustrating_stim/white_mw046.bmp","3","","","","","","","","","","",""
"","","","ratingFB","63e55887d67a5c7e32a678fa","bdp_trlrn","Mon Mar 13 2023 13:18:48 GMT-0500 (Central Daylight Time)","654207","Trustworthy,Untrustworthy","image-keyboard-response","9","60478","0.0-6.0-2.1","","null","","trustrating_stim/white_mw046.bmp","null","","","","","","","","","","",""
"","","","rating","63e55887d67a5c7e32a678fa","bdp_trlrn","Mon Mar 13 2023 13:18:48 GMT-0500 (Central Daylight Time)","654207","Trustworthy,Untrustworthy","image-keyboard-response","10","62318","0.0-6.0-1.2","","1723","","trustrating_stim/white_mw084.bmp","3","","","","","","","","","","",""
"","","","ratingFB","63e55887d67a5c7e32a678fa","bdp_trlrn","Mon Mar 13 2023 13:18:48 GMT-0500 (Central Daylight Time)","654207","Trustworthy,Untrustworthy","image-keyboard-response","11","62522","0.0-6.0-2.2","","null","","trustrating_stim/white_mw084.bmp","null","","","","","","","","","","",""
"","","","rating","63e55887d67a5c7e32a678fa","bdp_trlrn","Mon Mar 13 2023 13:18:48 GMT-0500 (Central Daylight Time)","654207","Trustworthy,Untrustworthy","image-keyboard-response","12","66650","0.0-6.0-1.3","","4017","","trustrating_stim/white_mw048.bmp","4","","","","","","","","","","",""
"","","","ratingFB","63e55887d67a5c7e32a678fa","bdp_trlrn","Mon Mar 13 2023 13:18:48 GMT-0500 (Central Daylight Time)","654207","Trustworthy,Untrustworthy","image-keyboard-response","13","66861","0.0-6.0-2.3","","null","","trustrating_stim/white_mw048.bmp","null","","","","","","","","","","",""
"","","","rating","63e55887d67a5c7e32a678fa","bdp_trlrn","Mon Mar 13 2023 13:18:48 GMT-0500 (Central Daylight Time)","654207","Trustworthy,Untrustworthy","image-keyboard-response","14","69037","0.0-6.0-1.4","","2065","","trustrating_stim/white_mw060.bmp","3","","","","","","","","","","",""
"","","","ratingFB","63e55887d67a5c7e32a678fa","bdp_trlrn","Mon Mar 13 2023 13:18:48 GMT-0500 (Central Daylight Time)","654207","Trustworthy,Untrustworthy","image-keyboard-response","15","69256","0.0-6.0-2.4","","null","","trustrating_stim/white_mw060.bmp","null","","","","","","","","","","",""
"","","","rating","63e55887d67a5c7e32a678fa","bdp_trlrn","Mon Mar 13 2023 13:18:48 GMT-0500 (Central Daylight Time)","654207","Trustworthy,Untrustworthy","image-keyboard-response","16","71670","0.0-6.0-1.5","","2301","","trustrating_stim/white_00109_931230_fa_edt.bmp","7","","","","","","","","","","",""
"","","","ratingFB","63e55887d67a5c7e32a678fa","bdp_trlrn","Mon Mar 13 2023 13:18:48 GMT-0500 (Central Daylight Time)","654207","Trustworthy,Untrustworthy","image-keyboard-response","17","71880","0.0-6.0-2.5","","null","","trustrating_stim/white_00109_931230_fa_edt.bmp","null","","","","","","","","","","",""
"","","","rating","63e55887d67a5c7e32a678fa","bdp_trlrn","Mon Mar 13 2023 13:18:48 GMT-0500 (Central Daylight Time)","654207","Trustworthy,Untrustworthy","image-keyboard-response","18","73399","0.0-6.0-1.6","","1408","","trustrating_stim/white_00785_941205_fb_edt.bmp","2","","","","","","","","","","",""
"","","","ratingFB","63e55887d67a5c7e32a678fa","bdp_trlrn","Mon Mar 13 2023 13:18:48 GMT-0500 (Central Daylight Time)","654207","Trustworthy,Untrustworthy","image-keyboard-response","19","73616","0.0-6.0-2.6","","null","","trustrating_stim/white_00785_941205_fb_edt.bmp","null","","","","","","","","","","",""
"","","","rating","63e55887d67a5c7e32a678fa","bdp_trlrn","Mon Mar 13 2023 13:18:48 GMT-0500 (Central Daylight Time)","654207","Trustworthy,Untrustworthy","image-keyboard-response","20","77090","0.0-6.0-1.7","","3362","","trustrating_stim/white_00129_931230_fb_edt.bmp","6","","","","","","","","","","",""
"","","","ratingFB","63e55887d67a5c7e32a678fa","bdp_trlrn","Mon Mar 13 2023 13:18:48 GMT-0500 (Central Daylight Time)","654207","Trustworthy,Untrustworthy","image-keyboard-response","21","77302","0.0-6.0-2.7","","null","","trustrating_stim/white_00129_931230_fb_edt.bmp","null","","","","","","","","","","",""
"","","","rating","63e55887d67a5c7e32a678fa","bdp_trlrn","Mon Mar 13 2023 13:18:48 GMT-0500 (Central Daylight Time)","654207","Trustworthy,Untrustworthy","image-keyboard-response","22","80967","0.0-6.0-1.8","","3555","","trustrating_stim/white_00519_940519_fb_edt.bmp","2","","","","","","","","","","",""
"","","","ratingFB","63e55887d67a5c7e32a678fa","bdp_trlrn","Mon Mar 13 2023 13:18:48 GMT-0500 (Central Daylight Time)","654207","Trustworthy,Untrustworthy","image-keyboard-response","23","81170","0.0-6.0-2.8","","null","","trustrating_stim/white_00519_940519_fb_edt.bmp","null","","","","","","","","","","",""
"","","","rating","63e55887d67a5c7e32a678fa","bdp_trlrn","Mon Mar 13 2023 13:18:48 GMT-0500 (Central Daylight Time)","654207","Trustworthy,Untrustworthy","image-keyboard-response","24","83662","0.0-6.0-1.9","","2382","","trustrating_stim/white_mw035.bmp","3","","","","","","","","","","",""
"","","","ratingFB","63e55887d67a5c7e32a678fa","bdp_trlrn","Mon Mar 13 2023 13:18:48 GMT-0500 (Central Daylight Time)","654207","Trustworthy,Untrustworthy","image-keyboard-response","25","83870","0.0-6.0-2.9","","null","","trustrating_stim/white_mw035.bmp","null","","","","","","","","","","",""
"","","","rating","63e55887d67a5c7e32a678fa","bdp_trlrn","Mon Mar 13 2023 13:18:48 GMT-0500 (Central Daylight Time)","654207","Trustworthy,Untrustworthy","image-keyboard-response","26","85515","0.0-6.0-1.10","","1541","","trustrating_stim/white_mw063.bmp","3","","","","","","","","","","",""
"","","","ratingFB","63e55887d67a5c7e32a678fa","bdp_trlrn","Mon Mar 13 2023 13:18:48 GMT-0500 (Central Daylight Time)","654207","Trustworthy,Untrustworthy","image-keyboard-response","27","85725","0.0-6.0-2.10","","null","","trustrating_stim/white_mw063.bmp","null","","","","","","","","","","",""
"","","","rating","63e55887d67a5c7e32a678fa","bdp_trlrn","Mon Mar 13 2023 13:18:48 GMT-0500 (Central Daylight Time)","654207","Trustworthy,Untrustworthy","image-keyboard-response","28","86873","0.0-6.0-1.11","","1038","","trustrating_stim/white_00340_940422_fa_edt.bmp","3","","","","","","","","","","",""
"","","","ratingFB","63e55887d67a5c7e32a678fa","bdp_trlrn","Mon Mar 13 2023 13:18:48 GMT-0500 (Central Daylight Time)","654207","Trustworthy,Untrustworthy","image-keyboard-response","29","87089","0.0-6.0-2.11","","null","","trustrating_stim/white_00340_940422_fa_edt.bmp","null","","","","","","","","","","",""
"","","","rating","63e55887d67a5c7e32a678fa","bdp_trlrn","Mon Mar 13 2023 13:18:48 GMT-0500 (Central Daylight Time)","654207","Trustworthy,Untrustworthy","image-keyboard-response","30","89209","0.0-6.0-1.12","","2006","","trustrating_stim/white_mw099.bmp","4","","","","","","","","","","",""
"","","","ratingFB","63e55887d67a5c7e32a678fa","bdp_trlrn","Mon Mar 13 2023 13:18:48 GMT-0500 (Central Daylight Time)","654207","Trustworthy,Untrustworthy","image-keyboard-response","31","89425","0.0-6.0-2.12","","null","","trustrating_stim/white_mw099.bmp","null","","","","","","","","","","",""
"","","","rating","63e55887d67a5c7e32a678fa","bdp_trlrn","Mon Mar 13 2023 13:18:48 GMT-0500 (Central Daylight Time)","654207","Trustworthy,Untrustworthy","image-keyboard-response","32","92020","0.0-6.0-1.13","","2485","","trustrating_stim/white_00761_941201_fb_edt.bmp","4","","","","","","","","","","",""
"","","","ratingFB","63e55887d67a5c7e32a678fa","bdp_trlrn","Mon Mar 13 2023 13:18:48 GMT-0500 (Central Daylight Time)","654207","Trustworthy,Untrustworthy","image-keyboard-response","33","92231","0.0-6.0-2.13","","null","","trustrating_stim/white_00761_941201_fb_edt.bmp","null","","","","","","","","","","",""
"","","","rating","63e55887d67a5c7e32a678fa","bdp_trlrn","Mon Mar 13 2023 13:18:48 GMT-0500 (Central Daylight Time)","654207","Trustworthy,Untrustworthy","image-keyboard-response","34","95308","0.0-6.0-1.14","","2968","","trustrating_stim/white_00577_940928_fa_edt.bmp","3","","","","","","","","","","",""
"","","","ratingFB","63e55887d67a5c7e32a678fa","bdp_trlrn","Mon Mar 13 2023 13:18:48 GMT-0500 (Central Daylight Time)","654207","Trustworthy,Untrustworthy","image-keyboard-response","35","95520","0.0-6.0-2.14","","null","","trustrating_stim/white_00577_940928_fa_edt.bmp","null","","","","","","","","","","",""
"","","","rating","63e55887d67a5c7e32a678fa","bdp_trlrn","Mon Mar 13 2023 13:18:48 GMT-0500 (Central Daylight Time)","654207","Trustworthy,Untrustworthy","image-keyboard-response","36","97790","0.0-6.0-1.15","","2156","","trustrating_stim/white_00807_941205_fb_edt.bmp","5","","","","","","","","","","",""
"","","","ratingFB","63e55887d67a5c7e32a678fa","bdp_trlrn","Mon Mar 13 2023 13:18:48 GMT-0500 (Central Daylight Time)","654207","Trustworthy,Untrustworthy","image-keyboard-response","37","98004","0.0-6.0-2.15","","null","","trustrating_stim/white_00807_941205_fb_edt.bmp","null","","","","","","","","","","",""
"","","","rating","63e55887d67a5c7e32a678fa","bdp_trlrn","Mon Mar 13 2023 13:18:48 GMT-0500 (Central Daylight Time)","654207","Trustworthy,Untrustworthy","image-keyboard-response","38","100895","0.0-6.0-1.16","","2782","","trustrating_stim/white_mw033.bmp","6","","","","","","","","","","",""
"","","","ratingFB","63e55887d67a5c7e32a678fa","bdp_trlrn","Mon Mar 13 2023 13:18:48 GMT-0500 (Central Daylight Time)","654207","Trustworthy,Untrustworthy","image-keyboard-response","39","101107","0.0-6.0-2.16","","null","","trustrating_stim/white_mw033.bmp","null","","","","","","","","","","",""
"","","","rating","63e55887d67a5c7e32a678fa","bdp_trlrn","Mon Mar 13 2023 13:18:48 GMT-0500 (Central Daylight Time)","654207","Trustworthy,Untrustworthy","image-keyboard-response","40","104434","0.0-6.0-1.17","","3217","","trustrating_stim/white_00602_940928_fb_edt.bmp","2","","","","","","","","","","",""
"","","","ratingFB","63e55887d67a5c7e32a678fa","bdp_trlrn","Mon Mar 13 2023 13:18:48 GMT-0500 (Central Daylight Time)","654207","Trustworthy,Untrustworthy","image-keyboard-response","41","104649","0.0-6.0-2.17","","null","","trustrating_stim/white_00602_940928_fb_edt.bmp","null","","","","","","","","","","",""
"","","","rating","63e55887d67a5c7e32a678fa","bdp_trlrn","Mon Mar 13 2023 13:18:48 GMT-0500 (Central Daylight Time)","654207","Trustworthy,Untrustworthy","image-keyboard-response","42","108896","0.0-6.0-1.18","","4137","","trustrating_stim/white_00299_940422_fa_edt.bmp","3","","","","","","","","","","",""
"","","","ratingFB","63e55887d67a5c7e32a678fa","bdp_trlrn","Mon Mar 13 2023 13:18:48 GMT-0500 (Central Daylight Time)","654207","Trustworthy,Untrustworthy","image-keyboard-response","43","109103","0.0-6.0-2.18","","null","","trustrating_stim/white_00299_940422_fa_edt.bmp","null","","","","","","","","","","",""
"","","","rating","63e55887d67a5c7e32a678fa","bdp_trlrn","Mon Mar 13 2023 13:18:48 GMT-0500 (Central Daylight Time)","654207","Trustworthy,Untrustworthy","image-keyboard-response","44","112662","0.0-6.0-1.19","","3454","","trustrating_stim/white_mw089.bmp","5","","","","","","","","","","",""
"","","","ratingFB","63e55887d67a5c7e32a678fa","bdp_trlrn","Mon Mar 13 2023 13:18:48 GMT-0500 (Central Daylight Time)","654207","Trustworthy,Untrustworthy","image-keyboard-response","45","112867","0.0-6.0-2.19","","null","","trustrating_stim/white_mw089.bmp","null","","","","","","","","","","",""
"","","","rating","63e55887d67a5c7e32a678fa","bdp_trlrn","Mon Mar 13 2023 13:18:48 GMT-0500 (Central Daylight Time)","654207","Trustworthy,Untrustworthy","image-keyboard-response","46","114502","0.0-6.0-1.20","","1518","","trustrating_stim/white_00659_941121_fa_edt.bmp","2","","","","","","","","","","",""
"","","","ratingFB","63e55887d67a5c7e32a678fa","bdp_trlrn","Mon Mar 13 2023 13:18:48 GMT-0500 (Central Daylight Time)","654207","Trustworthy,Untrustworthy","image-keyboard-response","47","114718","0.0-6.0-2.20","","null","","trustrating_stim/white_00659_941121_fa_edt.bmp","null","","","","","","","","","","",""
"","","","rating","63e55887d67a5c7e32a678fa","bdp_trlrn","Mon Mar 13 2023 13:18:48 GMT-0500 (Central Daylight Time)","654207","Trustworthy,Untrustworthy","image-keyboard-response","48","115671","0.0-6.0-1.21","","842","","trustrating_stim/white_00898_960530_fa_edt.bmp","3","","","","","","","","","","",""
"","","","ratingFB","63e55887d67a5c7e32a678fa","bdp_trlrn","Mon Mar 13 2023 13:18:48 GMT-0500 (Central Daylight Time)","654207","Trustworthy,Untrustworthy","image-keyboard-response","49","115871","0.0-6.0-2.21","","null","","trustrating_stim/white_00898_960530_fa_edt.bmp","null","","","","","","","","","","",""
"","","","rating","63e55887d67a5c7e32a678fa","bdp_trlrn","Mon Mar 13 2023 13:18:48 GMT-0500 (Central Daylight Time)","654207","Trustworthy,Untrustworthy","image-keyboard-response","50","118028","0.0-6.0-1.22","","2046","","trustrating_stim/white_00757_941201_fa_edt.bmp","2","","","","","","","","","","",""
"","","","ratingFB","63e55887d67a5c7e32a678fa","bdp_trlrn","Mon Mar 13 2023 13:18:48 GMT-0500 (Central Daylight Time)","654207","Trustworthy,Untrustworthy","image-keyboard-response","51","118231","0.0-6.0-2.22","","null","","trustrating_stim/white_00757_941201_fa_edt.bmp","null","","","","","","","","","","",""
"","","","rating","63e55887d67a5c7e32a678fa","bdp_trlrn","Mon Mar 13 2023 13:18:48 GMT-0500 (Central Daylight Time)","654207","Trustworthy,Untrustworthy","image-keyboard-response","52","120344","0.0-6.0-1.23","","2001","","trustrating_stim/white_mw071.bmp","6","","","","","","","","","","",""
"","","","ratingFB","63e55887d67a5c7e32a678fa","bdp_trlrn","Mon Mar 13 2023 13:18:48 GMT-0500 (Central Daylight Time)","654207","Trustworthy,Untrustworthy","image-keyboard-response","53","120553","0.0-6.0-2.23","","null","","trustrating_stim/white_mw071.bmp","null","","","","","","","","","","",""
"","","","rating","63e55887d67a5c7e32a678fa","bdp_trlrn","Mon Mar 13 2023 13:18:48 GMT-0500 (Central Daylight Time)","654207","Trustworthy,Untrustworthy","image-keyboard-response","54","125148","0.0-6.0-1.24","","4484","","trustrating_stim/white_00120_931230_fa_edt.bmp","7","","","","","","","","","","",""
"","","","ratingFB","63e55887d67a5c7e32a678fa","bdp_trlrn","Mon Mar 13 2023 13:18:48 GMT-0500 (Central Daylight Time)","654207","Trustworthy,Untrustworthy","image-keyboard-response","55","125352","0.0-6.0-2.24","","null","","trustrating_stim/white_00120_931230_fa_edt.bmp","null","","","","","","","","","","",""
"","","","rating","63e55887d67a5c7e32a678fa","bdp_trlrn","Mon Mar 13 2023 13:18:48 GMT-0500 (Central Daylight Time)","654207","Trustworthy,Untrustworthy","image-keyboard-response","56","126922","0.0-6.0-1.25","","1461","","trustrating_stim/white_mw053.bmp","6","","","","","","","","","","",""
"","","","ratingFB","63e55887d67a5c7e32a678fa","bdp_trlrn","Mon Mar 13 2023 13:18:48 GMT-0500 (Central Daylight Time)","654207","Trustworthy,Untrustworthy","image-keyboard-response","57","127128","0.0-6.0-2.25","","null","","trustrating_stim/white_mw053.bmp","null","","","","","","","","","","",""
"","","","rating","63e55887d67a5c7e32a678fa","bdp_trlrn","Mon Mar 13 2023 13:18:48 GMT-0500 (Central Daylight Time)","654207","Trustworthy,Untrustworthy","image-keyboard-response","58","128893","0.0-6.0-1.26","","1655","","trustrating_stim/white_mw056.bmp","3","","","","","","","","","","",""
"","","","ratingFB","63e55887d67a5c7e32a678fa","bdp_trlrn","Mon Mar 13 2023 13:18:48 GMT-0500 (Central Daylight Time)","654207","Trustworthy,Untrustworthy","image-keyboard-response","59","129103","0.0-6.0-2.26","","null","","trustrating_stim/white_mw056.bmp","null","","","","","","","","","","",""
"","","","rating","63e55887d67a5c7e32a678fa","bdp_trlrn","Mon Mar 13 2023 13:18:48 GMT-0500 (Central Daylight Time)","654207","Trustworthy,Untrustworthy","image-keyboard-response","60","131754","0.0-6.0-1.27","","2539","","trustrating_stim/white_mw049.bmp","5","","","","","","","","","","",""
"","","","ratingFB","63e55887d67a5c7e32a678fa","bdp_trlrn","Mon Mar 13 2023 13:18:48 GMT-0500 (Central Daylight Time)","654207","Trustworthy,Untrustworthy","image-keyboard-response","61","131955","0.0-6.0-2.27","","null","","trustrating_stim/white_mw049.bmp","null","","","","","","","","","","",""
"","","","rating","63e55887d67a5c7e32a678fa","bdp_trlrn","Mon Mar 13 2023 13:18:48 GMT-0500 (Central Daylight Time)","654207","Trustworthy,Untrustworthy","image-keyboard-response","62","133701","0.0-6.0-1.28","","1636","","trustrating_stim/white_mw066.bmp","6","","","","","","","","","","",""
"","","","ratingFB","63e55887d67a5c7e32a678fa","bdp_trlrn","Mon Mar 13 2023 13:18:48 GMT-0500 (Central Daylight Time)","654207","Trustworthy,Untrustworthy","image-keyboard-response","63","133908","0.0-6.0-2.28","","null","","trustrating_stim/white_mw066.bmp","null","","","","","","","","","","",""
"","","","rating","63e55887d67a5c7e32a678fa","bdp_trlrn","Mon Mar 13 2023 13:18:48 GMT-0500 (Central Daylight Time)","654207","Trustworthy,Untrustworthy","image-keyboard-response","64","136183","0.0-6.0-1.29","","2165","","trustrating_stim/white_00223_940128_fb_edt.bmp","5","","","","","","","","","","",""
"","","","ratingFB","63e55887d67a5c7e32a678fa","bdp_trlrn","Mon Mar 13 2023 13:18:48 GMT-0500 (Central Daylight Time)","654207","Trustworthy,Untrustworthy","image-keyboard-response","65","136392","0.0-6.0-2.29","","null","","trustrating_stim/white_00223_940128_fb_edt.bmp","null","","","","","","","","","","",""
"","","","rating","63e55887d67a5c7e32a678fa","bdp_trlrn","Mon Mar 13 2023 13:18:48 GMT-0500 (Central Daylight Time)","654207","Trustworthy,Untrustworthy","image-keyboard-response","66","138823","0.0-6.0-1.30","","2321","","trustrating_stim/white_mw056.bmp","3","","","","","","","","","","",""
"","","","ratingFB","63e55887d67a5c7e32a678fa","bdp_trlrn","Mon Mar 13 2023 13:18:48 GMT-0500 (Central Daylight Time)","654207","Trustworthy,Untrustworthy","image-keyboard-response","67","139033","0.0-6.0-2.30","","null","","trustrating_stim/white_mw056.bmp","null","","","","","","","","","","",""
"","","","rating","63e55887d67a5c7e32a678fa","bdp_trlrn","Mon Mar 13 2023 13:18:48 GMT-0500 (Central Daylight Time)","654207","Trustworthy,Untrustworthy","image-keyboard-response","68","140773","0.0-6.0-1.31","","1630","","trustrating_stim/white_00898_960530_fa_edt.bmp","3","","","","","","","","","","",""
"","","","ratingFB","63e55887d67a5c7e32a678fa","bdp_trlrn","Mon Mar 13 2023 13:18:48 GMT-0500 (Central Daylight Time)","654207","Trustworthy,Untrustworthy","image-keyboard-response","69","140986","0.0-6.0-2.31","","null","","trustrating_stim/white_00898_960530_fa_edt.bmp","null","","","","","","","","","","",""
"","","","rating","63e55887d67a5c7e32a678fa","bdp_trlrn","Mon Mar 13 2023 13:18:48 GMT-0500 (Central Daylight Time)","654207","Trustworthy,Untrustworthy","image-keyboard-response","70","146022","0.0-6.0-1.32","","4926","","trustrating_stim/white_mw099.bmp","4","","","","","","","","","","",""
"","","","ratingFB","63e55887d67a5c7e32a678fa","bdp_trlrn","Mon Mar 13 2023 13:18:48 GMT-0500 (Central Daylight Time)","654207","Trustworthy,Untrustworthy","image-keyboard-response","71","146231","0.0-6.0-2.32","","null","","trustrating_stim/white_mw099.bmp","null","","","","","","","","","","",""
"","","","rating","63e55887d67a5c7e32a678fa","bdp_trlrn","Mon Mar 13 2023 13:18:48 GMT-0500 (Central Daylight Time)","654207","Trustworthy,Untrustworthy","image-keyboard-response","72","147681","0.0-6.0-1.33","","1340","","trustrating_stim/white_00519_940519_fb_edt.bmp","2","","","","","","","","","","",""
"","","","ratingFB","63e55887d67a5c7e32a678fa","bdp_trlrn","Mon Mar 13 2023 13:18:48 GMT-0500 (Central Daylight Time)","654207","Trustworthy,Untrustworthy","image-keyboard-response","73","147892","0.0-6.0-2.33","","null","","trustrating_stim/white_00519_940519_fb_edt.bmp","null","","","","","","","","","","",""
"","","","rating","63e55887d67a5c7e32a678fa","bdp_trlrn","Mon Mar 13 2023 13:18:48 GMT-0500 (Central Daylight Time)","654207","Trustworthy,Untrustworthy","image-keyboard-response","74","150850","0.0-6.0-1.34","","2849","","trustrating_stim/white_00299_940422_fa_edt.bmp","5","","","","","","","","","","",""
"","","","ratingFB","63e55887d67a5c7e32a678fa","bdp_trlrn","Mon Mar 13 2023 13:18:48 GMT-0500 (Central Daylight Time)","654207","Trustworthy,Untrustworthy","image-keyboard-response","75","151062","0.0-6.0-2.34","","null","","trustrating_stim/white_00299_940422_fa_edt.bmp","null","","","","","","","","","","",""
"","","","rating","63e55887d67a5c7e32a678fa","bdp_trlrn","Mon Mar 13 2023 13:18:48 GMT-0500 (Central Daylight Time)","654207","Trustworthy,Untrustworthy","image-keyboard-response","76","152595","0.0-6.0-1.35","","1422","","trustrating_stim/white_mw046.bmp","3","","","","","","","","","","",""
"","","","ratingFB","63e55887d67a5c7e32a678fa","bdp_trlrn","Mon Mar 13 2023 13:18:48 GMT-0500 (Central Daylight Time)","654207","Trustworthy,Untrustworthy","image-keyboard-response","77","152797","0.0-6.0-2.35","","null","","trustrating_stim/white_mw046.bmp","null","","","","","","","","","","",""
"","","","rating","63e55887d67a5c7e32a678fa","bdp_trlrn","Mon Mar 13 2023 13:18:48 GMT-0500 (Central Daylight Time)","654207","Trustworthy,Untrustworthy","image-keyboard-response","78","154820","0.0-6.0-1.36","","1914","","trustrating_stim/white_mw048.bmp","3","","","","","","","","","","",""
"","","","ratingFB","63e55887d67a5c7e32a678fa","bdp_trlrn","Mon Mar 13 2023 13:18:48 GMT-0500 (Central Daylight Time)","654207","Trustworthy,Untrustworthy","image-keyboard-response","79","155032","0.0-6.0-2.36","","null","","trustrating_stim/white_mw048.bmp","null","","","","","","","","","","",""
"","","","rating","63e55887d67a5c7e32a678fa","bdp_trlrn","Mon Mar 13 2023 13:18:48 GMT-0500 (Central Daylight Time)","654207","Trustworthy,Untrustworthy","image-keyboard-response","80","156302","0.0-6.0-1.37","","1161","","trustrating_stim/white_mw063.bmp","6","","","","","","","","","","",""
"","","","ratingFB","63e55887d67a5c7e32a678fa","bdp_trlrn","Mon Mar 13 2023 13:18:48 GMT-0500 (Central Daylight Time)","654207","Trustworthy,Untrustworthy","image-keyboard-response","81","156516","0.0-6.0-2.37","","null","","trustrating_stim/white_mw063.bmp","null","","","","","","","","","","",""
"","","","rating","63e55887d67a5c7e32a678fa","bdp_trlrn","Mon Mar 13 2023 13:18:48 GMT-0500 (Central Daylight Time)","654207","Trustworthy,Untrustworthy","image-keyboard-response","82","159543","0.0-6.0-1.38","","2916","","trustrating_stim/white_00761_941201_fb_edt.bmp","4","","","","","","","","","","",""
"","","","ratingFB","63e55887d67a5c7e32a678fa","bdp_trlrn","Mon Mar 13 2023 13:18:48 GMT-0500 (Central Daylight Time)","654207","Trustworthy,Untrustworthy","image-keyboard-response","83","159751","0.0-6.0-2.38","","null","","trustrating_stim/white_00761_941201_fb_edt.bmp","null","","","","","","","","","","",""
"","","","rating","63e55887d67a5c7e32a678fa","bdp_trlrn","Mon Mar 13 2023 13:18:48 GMT-0500 (Central Daylight Time)","654207","Trustworthy,Untrustworthy","image-keyboard-response","84","162031","0.0-6.0-1.39","","2169","","trustrating_stim/white_00129_931230_fb_edt.bmp","6","","","","","","","","","","",""
"","","","ratingFB","63e55887d67a5c7e32a678fa","bdp_trlrn","Mon Mar 13 2023 13:18:48 GMT-0500 (Central Daylight Time)","654207","Trustworthy,Untrustworthy","image-keyboard-response","85","162235","0.0-6.0-2.39","","null","","trustrating_stim/white_00129_931230_fb_edt.bmp","null","","","","","","","","","","",""
"","","","rating","63e55887d67a5c7e32a678fa","bdp_trlrn","Mon Mar 13 2023 13:18:48 GMT-0500 (Central Daylight Time)","654207","Trustworthy,Untrustworthy","image-keyboard-response","86","163850","0.0-6.0-1.40","","1504","","trustrating_stim/white_mw053.bmp","2","","","","","","","","","","",""
"","","","ratingFB","63e55887d67a5c7e32a678fa","bdp_trlrn","Mon Mar 13 2023 13:18:48 GMT-0500 (Central Daylight Time)","654207","Trustworthy,Untrustworthy","image-keyboard-response","87","164064","0.0-6.0-2.40","","null","","trustrating_stim/white_mw053.bmp","null","","","","","","","","","","",""
"","","","rating","63e55887d67a5c7e32a678fa","bdp_trlrn","Mon Mar 13 2023 13:18:48 GMT-0500 (Central Daylight Time)","654207","Trustworthy,Untrustworthy","image-keyboard-response","88","168849","0.0-6.0-1.41","","4676","","trustrating_stim/white_00223_940128_fb_edt.bmp","5","","","","","","","","","","",""
"","","","ratingFB","63e55887d67a5c7e32a678fa","bdp_trlrn","Mon Mar 13 2023 13:18:48 GMT-0500 (Central Daylight Time)","654207","Trustworthy,Untrustworthy","image-keyboard-response","89","169053","0.0-6.0-2.41","","null","","trustrating_stim/white_00223_940128_fb_edt.bmp","null","","","","","","","","","","",""
"","","","rating","63e55887d67a5c7e32a678fa","bdp_trlrn","Mon Mar 13 2023 13:18:48 GMT-0500 (Central Daylight Time)","654207","Trustworthy,Untrustworthy","image-keyboard-response","90","170449","0.0-6.0-1.42","","1285","","trustrating_stim/white_00659_941121_fa_edt.bmp","3","","","","","","","","","","",""
"","","","ratingFB","63e55887d67a5c7e32a678fa","bdp_trlrn","Mon Mar 13 2023 13:18:48 GMT-0500 (Central Daylight Time)","654207","Trustworthy,Untrustworthy","image-keyboard-response","91","170663","0.0-6.0-2.42","","null","","trustrating_stim/white_00659_941121_fa_edt.bmp","null","","","","","","","","","","",""
"","","","rating","63e55887d67a5c7e32a678fa","bdp_trlrn","Mon Mar 13 2023 13:18:48 GMT-0500 (Central Daylight Time)","654207","Trustworthy,Untrustworthy","image-keyboard-response","92","172597","0.0-6.0-1.43","","1825","","trustrating_stim/white_mw049.bmp","4","","","","","","","","","","",""
"","","","ratingFB","63e55887d67a5c7e32a678fa","bdp_trlrn","Mon Mar 13 2023 13:18:48 GMT-0500 (Central Daylight Time)","654207","Trustworthy,Untrustworthy","image-keyboard-response","93","172803","0.0-6.0-2.43","","null","","trustrating_stim/white_mw049.bmp","null","","","","","","","","","","",""
"","","","rating","63e55887d67a5c7e32a678fa","bdp_trlrn","Mon Mar 13 2023 13:18:48 GMT-0500 (Central Daylight Time)","654207","Trustworthy,Untrustworthy","image-keyboard-response","94","175441","0.0-6.0-1.44","","2527","","trustrating_stim/white_00602_940928_fb_edt.bmp","4","","","","","","","","","","",""
"","","","ratingFB","63e55887d67a5c7e32a678fa","bdp_trlrn","Mon Mar 13 2023 13:18:48 GMT-0500 (Central Daylight Time)","654207","Trustworthy,Untrustworthy","image-keyboard-response","95","175648","0.0-6.0-2.44","","null","","trustrating_stim/white_00602_940928_fb_edt.bmp","null","","","","","","","","","","",""
"","","","rating","63e55887d67a5c7e32a678fa","bdp_trlrn","Mon Mar 13 2023 13:18:48 GMT-0500 (Central Daylight Time)","654207","Trustworthy,Untrustworthy","image-keyboard-response","96","179267","0.0-6.0-1.45","","3509","","trustrating_stim/white_mw060.bmp","4","","","","","","","","","","",""
"","","","ratingFB","63e55887d67a5c7e32a678fa","bdp_trlrn","Mon Mar 13 2023 13:18:48 GMT-0500 (Central Daylight Time)","654207","Trustworthy,Untrustworthy","image-keyboard-response","97","179475","0.0-6.0-2.45","","null","","trustrating_stim/white_mw060.bmp","null","","","","","","","","","","",""
"","","","rating","63e55887d67a5c7e32a678fa","bdp_trlrn","Mon Mar 13 2023 13:18:48 GMT-0500 (Central Daylight Time)","654207","Trustworthy,Untrustworthy","image-keyboard-response","98","181777","0.0-6.0-1.46","","2192","","trustrating_stim/white_mw089.bmp","5","","","","","","","","","","",""
"","","","ratingFB","63e55887d67a5c7e32a678fa","bdp_trlrn","Mon Mar 13 2023 13:18:48 GMT-0500 (Central Daylight Time)","654207","Trustworthy,Untrustworthy","image-keyboard-response","99","181990","0.0-6.0-2.46","","null","","trustrating_stim/white_mw089.bmp","null","","","","","","","","","","",""
"","","","rating","63e55887d67a5c7e32a678fa","bdp_trlrn","Mon Mar 13 2023 13:18:48 GMT-0500 (Central Daylight Time)","654207","Trustworthy,Untrustworthy","image-keyboard-response","100","183336","0.0-6.0-1.47","","1237","","trustrating_stim/white_00807_941205_fb_edt.bmp","5","","","","","","","","","","",""
"","","","ratingFB","63e55887d67a5c7e32a678fa","bdp_trlrn","Mon Mar 13 2023 13:18:48 GMT-0500 (Central Daylight Time)","654207","Trustworthy,Untrustworthy","image-keyboard-response","101","183546","0.0-6.0-2.47","","null","","trustrating_stim/white_00807_941205_fb_edt.bmp","null","","","","","","","","","","",""
"","","","rating","63e55887d67a5c7e32a678fa","bdp_trlrn","Mon Mar 13 2023 13:18:48 GMT-0500 (Central Daylight Time)","654207","Trustworthy,Untrustworthy","image-keyboard-response","102","186646","0.0-6.0-1.48","","2990","","trustrating_stim/white_mw033.bmp","3","","","","","","","","","","",""
"","","","ratingFB","63e55887d67a5c7e32a678fa","bdp_trlrn","Mon Mar 13 2023 13:18:48 GMT-0500 (Central Daylight Time)","654207","Trustworthy,Untrustworthy","image-keyboard-response","103","186859","0.0-6.0-2.48","","null","","trustrating_stim/white_mw033.bmp","null","","","","","","","","","","",""
"","","","rating","63e55887d67a5c7e32a678fa","bdp_trlrn","Mon Mar 13 2023 13:18:48 GMT-0500 (Central Daylight Time)","654207","Trustworthy,Untrustworthy","image-keyboard-response","104","188059","0.0-6.0-1.49","","1089","","trustrating_stim/white_00120_931230_fa_edt.bmp","6","","","","","","","","","","",""
"","","","ratingFB","63e55887d67a5c7e32a678fa","bdp_trlrn","Mon Mar 13 2023 13:18:48 GMT-0500 (Central Daylight Time)","654207","Trustworthy,Untrustworthy","image-keyboard-response","105","188265","0.0-6.0-2.49","","null","","trustrating_stim/white_00120_931230_fa_edt.bmp","null","","","","","","","","","","",""
"","","","rating","63e55887d67a5c7e32a678fa","bdp_trlrn","Mon Mar 13 2023 13:18:48 GMT-0500 (Central Daylight Time)","654207","Trustworthy,Untrustworthy","image-keyboard-response","106","189787","0.0-6.0-1.50","","1413","","trustrating_stim/white_00757_941201_fa_edt.bmp","2","","","","","","","","","","",""
"","","","ratingFB","63e55887d67a5c7e32a678fa","bdp_trlrn","Mon Mar 13 2023 13:18:48 GMT-0500 (Central Daylight Time)","654207","Trustworthy,Untrustworthy","image-keyboard-response","107","190003","0.0-6.0-2.50","","null","","trustrating_stim/white_00757_941201_fa_edt.bmp","null","","","","","","","","","","",""
"","","","rating","63e55887d67a5c7e32a678fa","bdp_trlrn","Mon Mar 13 2023 13:18:48 GMT-0500 (Central Daylight Time)","654207","Trustworthy,Untrustworthy","image-keyboard-response","108","191932","0.0-6.0-1.51","","1820","","trustrating_stim/white_00785_941205_fb_edt.bmp","2","","","","","","","","","","",""
"","","","ratingFB","63e55887d67a5c7e32a678fa","bdp_trlrn","Mon Mar 13 2023 13:18:48 GMT-0500 (Central Daylight Time)","654207","Trustworthy,Untrustworthy","image-keyboard-response","109","192143","0.0-6.0-2.51","","null","","trustrating_stim/white_00785_941205_fb_edt.bmp","null","","","","","","","","","","",""
"","","","rating","63e55887d67a5c7e32a678fa","bdp_trlrn","Mon Mar 13 2023 13:18:48 GMT-0500 (Central Daylight Time)","654207","Trustworthy,Untrustworthy","image-keyboard-response","110","194022","0.0-6.0-1.52","","1770","","trustrating_stim/white_00340_940422_fa_edt.bmp","5","","","","","","","","","","",""
"","","","ratingFB","63e55887d67a5c7e32a678fa","bdp_trlrn","Mon Mar 13 2023 13:18:48 GMT-0500 (Central Daylight Time)","654207","Trustworthy,Untrustworthy","image-keyboard-response","111","194237","0.0-6.0-2.52","","null","","trustrating_stim/white_00340_940422_fa_edt.bmp","null","","","","","","","","","","",""
"","","","rating","63e55887d67a5c7e32a678fa","bdp_trlrn","Mon Mar 13 2023 13:18:48 GMT-0500 (Central Daylight Time)","654207","Trustworthy,Untrustworthy","image-keyboard-response","112","195868","0.0-6.0-1.53","","1522","","trustrating_stim/white_mw035.bmp","3","","","","","","","","","","",""
"","","","ratingFB","63e55887d67a5c7e32a678fa","bdp_trlrn","Mon Mar 13 2023 13:18:48 GMT-0500 (Central Daylight Time)","654207","Trustworthy,Untrustworthy","image-keyboard-response","113","196070","0.0-6.0-2.53","","null","","trustrating_stim/white_mw035.bmp","null","","","","","","","","","","",""
"","","","rating","63e55887d67a5c7e32a678fa","bdp_trlrn","Mon Mar 13 2023 13:18:48 GMT-0500 (Central Daylight Time)","654207","Trustworthy,Untrustworthy","image-keyboard-response","114","199117","0.0-6.0-1.54","","2942","","trustrating_stim/white_00577_940928_fa_edt.bmp","3","","","","","","","","","","",""
"","","","ratingFB","63e55887d67a5c7e32a678fa","bdp_trlrn","Mon Mar 13 2023 13:18:48 GMT-0500 (Central Daylight Time)","654207","Trustworthy,Untrustworthy","image-keyboard-response","115","199331","0.0-6.0-2.54","","null","","trustrating_stim/white_00577_940928_fa_edt.bmp","null","","","","","","","","","","",""
"","","","rating","63e55887d67a5c7e32a678fa","bdp_trlrn","Mon Mar 13 2023 13:18:48 GMT-0500 (Central Daylight Time)","654207","Trustworthy,Untrustworthy","image-keyboard-response","116","201459","0.0-6.0-1.55","","2017","","trustrating_stim/white_mw066.bmp","4","","","","","","","","","","",""
"","","","ratingFB","63e55887d67a5c7e32a678fa","bdp_trlrn","Mon Mar 13 2023 13:18:48 GMT-0500 (Central Daylight Time)","654207","Trustworthy,Untrustworthy","image-keyboard-response","117","201675","0.0-6.0-2.55","","null","","trustrating_stim/white_mw066.bmp","null","","","","","","","","","","",""
"","","","rating","63e55887d67a5c7e32a678fa","bdp_trlrn","Mon Mar 13 2023 13:18:48 GMT-0500 (Central Daylight Time)","654207","Trustworthy,Untrustworthy","image-keyboard-response","118","205366","0.0-6.0-1.56","","3581","","trustrating_stim/white_00109_931230_fa_edt.bmp","6","","","","","","","","","","",""
"","","","ratingFB","63e55887d67a5c7e32a678fa","bdp_trlrn","Mon Mar 13 2023 13:18:48 GMT-0500 (Central Daylight Time)","654207","Trustworthy,Untrustworthy","image-keyboard-response","119","205582","0.0-6.0-2.56","","null","","trustrating_stim/white_00109_931230_fa_edt.bmp","null","","","","","","","","","","",""
"","","","rating","63e55887d67a5c7e32a678fa","bdp_trlrn","Mon Mar 13 2023 13:18:48 GMT-0500 (Central Daylight Time)","654207","Trustworthy,Untrustworthy","image-keyboard-response","120","207222","0.0-6.0-1.57","","1531","","trustrating_stim/white_mw071.bmp","4","","","","","","","","","","",""
"","","","ratingFB","63e55887d67a5c7e32a678fa","bdp_trlrn","Mon Mar 13 2023 13:18:48 GMT-0500 (Central Daylight Time)","654207","Trustworthy,Untrustworthy","image-keyboard-response","121","207425","0.0-6.0-2.57","","null","","trustrating_stim/white_mw071.bmp","null","","","","","","","","","","",""
"","","","rating","63e55887d67a5c7e32a678fa","bdp_trlrn","Mon Mar 13 2023 13:18:48 GMT-0500 (Central Daylight Time)","654207","Trustworthy,Untrustworthy","image-keyboard-response","122","209378","0.0-6.0-1.58","","1843","","trustrating_stim/white_mw084.bmp","4","","","","","","","","","","",""
"","","","ratingFB","63e55887d67a5c7e32a678fa","bdp_trlrn","Mon Mar 13 2023 13:18:48 GMT-0500 (Central Daylight Time)","654207","Trustworthy,Untrustworthy","image-keyboard-response","123","209590","0.0-6.0-2.58","","null","","trustrating_stim/white_mw084.bmp","null","","","","","","","","","","",""
"","","","rating","63e55887d67a5c7e32a678fa","bdp_trlrn","Mon Mar 13 2023 13:18:48 GMT-0500 (Central Daylight Time)","654207","Trustworthy,Untrustworthy","image-keyboard-response","124","212446","0.0-6.0-1.59","","2746","","trustrating_stim/white_mw097.bmp","1","","","","","","","","","","",""
"","","","ratingFB","63e55887d67a5c7e32a678fa","bdp_trlrn","Mon Mar 13 2023 13:18:48 GMT-0500 (Central Daylight Time)","654207","Trustworthy,Untrustworthy","image-keyboard-response","125","212648","0.0-6.0-2.59","","null","","trustrating_stim/white_mw097.bmp","null","","","","","","","","","","",""
"","","","","63e55887d67a5c7e32a678fa","bdp_trlrn","Mon Mar 13 2023 13:18:48 GMT-0500 (Central Daylight Time)","654207","Trustworthy,Untrustworthy","instructions","126","214430","0.0-7.0","[{""page_index"":0,""viewing_time"":1670}]","1671","","","","","","","","","","","","","",""
"","","","","63e55887d67a5c7e32a678fa","bdp_trlrn","Mon Mar 13 2023 13:18:48 GMT-0500 (Central Daylight Time)","654207","Trustworthy,Untrustworthy","instructions","127","299529","0.0-8.0","[{""page_index"":0,""viewing_time"":16472},{""page_index"":1,""viewing_time"":19717},{""page_index"":2,""viewing_time"":7191},{""page_index"":3,""viewing_time"":3603},{""page_index"":4,""viewing_time"":4855},{""page_index"":5,""viewing_time"":6517},{""page_index"":6,""viewing_time"":25449},{""page_index"":7,""viewing_time"":1189}]","84993","","","","","","","","","","","","","",""
"","","","","63e55887d67a5c7e32a678fa","bdp_trlrn","Mon Mar 13 2023 13:18:48 GMT-0500 (Central Daylight Time)","654207","Trustworthy,Untrustworthy","html-keyboard-response","128","304474","0.0-9.0","","4944","","<div class='header' style='text-align:left; position: absolute; top: 5%; left: 5%;'><small>Task 2 of 5</small></div><div class='instruxDiv'><p><strong>1) What is the minimum number of points you can choose to send to your partner?</strong></p><p>a) 0</p><p>b) 1</p><p>c) 5</p>","A","","","","","","","","","","",""
"","","","","63e55887d67a5c7e32a678fa","bdp_trlrn","Mon Mar 13 2023 13:18:48 GMT-0500 (Central Daylight Time)","654207","Trustworthy,Untrustworthy","html-keyboard-response","129","308710","0.0-10.0","","4125","","<div class='header' style='text-align:left; position: absolute; top: 5%; left: 5%;'><small>Task 2 of 5</small></div><div class='instruxDiv'><p><strong>1) What is the minimum number of points you can choose to send to your partner?</strong></p><p style='color:#FF0000'>a) 0</p><p>b) 1</p><p>c) 5</p><h3 style='color:#FF0000'>Incorrect!</h3><h3 class='center-content'>The correct response is b).</h3><h3 class='center-content'>The minimum number of points you can choose to send to your partner is 1 point.</h3><p><em>Press SPACEBAR to continue</em></p></div>"," ","","","","","","","","","","",""
"","","","","63e55887d67a5c7e32a678fa","bdp_trlrn","Mon Mar 13 2023 13:18:48 GMT-0500 (Central Daylight Time)","654207","Trustworthy,Untrustworthy","html-keyboard-response","130","315178","0.0-11.0","","6355","","<div class='header' style='text-align:left; position: absolute; top: 5%; left: 5%;'><small>Task 2 of 5</small></div><div class='instruxDiv'><p><strong>2) What is the maximum number of points you can choose to send to your partner?</strong></p><p>a) 8</p><p>b) 5</p><p>c) 3</p>","B","","","","","","","","","","",""
"","","","","63e55887d67a5c7e32a678fa","bdp_trlrn","Mon Mar 13 2023 13:18:48 GMT-0500 (Central Daylight Time)","654207","Trustworthy,Untrustworthy","html-keyboard-response","131","317000","0.0-12.0","","1709","","<div class='header' style='text-align:left; position: absolute; top: 5%; left: 5%;'><small>Task 2 of 5</small></div><div class='instruxDiv'><p><strong>2) What is the maximum number of points you can choose to send to your partner?</strong></p><p>a) 8</p><p style='color:#00FF00'>b) 5</p><p>c) 3</p><h3 style='color:#00FF00'>Correct!</h3><h3 class='center-content'>The correct response is b).</h3><h3 class='center-content'>The maximum number of points you can choose to send to your partner is 5 points.</h3><p><em>Press SPACEBAR to continue</em></p></div>"," ","","","","","","","","","","",""
"","","","","63e55887d67a5c7e32a678fa","bdp_trlrn","Mon Mar 13 2023 13:18:48 GMT-0500 (Central Daylight Time)","654207","Trustworthy,Untrustworthy","html-keyboard-response","132","321198","0.0-13.0","","4088","","<div class='header' style='text-align:left; position: absolute; top: 5%; left: 5%;'><small>Task 2 of 5</small></div><div class='instruxDiv'><p><strong>3) What happens to the amount of points you send to your partner?</strong></p><p>a) Nothing</p><p>b) It doubles</p><p>c) It quadruples</p>","C","","","","","","","","","","",""
"","","","","63e55887d67a5c7e32a678fa","bdp_trlrn","Mon Mar 13 2023 13:18:48 GMT-0500 (Central Daylight Time)","654207","Trustworthy,Untrustworthy","html-keyboard-response","133","322678","0.0-14.0","","1378","","<div class='header' style='text-align:left; position: absolute; top: 5%; left: 5%;'><small>Task 2 of 5</small></div><div class='instruxDiv'><p><strong>3) What happens to the amount of points you send to your partner?</strong></p><p>a) Nothing</p><p>b) It doubles</p><p style='color:#00FF00'>c) It quadruples</p><h3 style='color:#00FF00'>Correct!</h3><h3 class='center-content'>The correct response is c).</h3><h3 class='center-content'>The amount of points you send to your partner quadruples.</h3><p><em>Press SPACEBAR to continue</em></p></div>"," ","","","","","","","","","","",""
"","","","","63e55887d67a5c7e32a678fa","bdp_trlrn","Mon Mar 13 2023 13:18:48 GMT-0500 (Central Daylight Time)","654207","Trustworthy,Untrustworthy","html-keyboard-response","134","334228","0.0-15.0","","11449","","<div class='header' style='text-align:left; position: absolute; top: 5%; left: 5%;'><small>Task 2 of 5</small></div><div class='instruxDiv'><p><strong>4) If you decided to share 4 out of 5 points with your partner, and they decided to share half of the amount they received with you, how many points would you receive back from them on this round?</strong></p><p>a) 16</p><p>b) 0</p><p>c) 8</p>","C","","","","","","","","","","",""
"","","","","63e55887d67a5c7e32a678fa","bdp_trlrn","Mon Mar 13 2023 13:18:48 GMT-0500 (Central Daylight Time)","654207","Trustworthy,Untrustworthy","html-keyboard-response","135","335726","0.0-16.0","","1387","","<div class='header' style='text-align:left; position: absolute; top: 5%; left: 5%;'><small>Task 2 of 5</small></div><div class='instruxDiv'><p><strong>4) If you decided to share 4 out of 5 points with your partner, and they decided to share half of the amount they received with you, how many points would you receive back from them on this round?</strong></p><p>a) 16</p><p>b) 0</p><p style='color:#00FF00'>c) 8</p><h3 style='color:#00FF00'>Correct!</h3><h3 class='center-content'>The correct response is c).</h3><h3 class='center-content'>If you shared 4 out of 5 points with your partner and they decided to share half of the amount they received with you, you would receive 8 points back (i.e. (4 x 4)/2 = 8).</h3><p><em>Press SPACEBAR to continue</em></p></div>"," ","","","","","","","","","","",""
"","","","","63e55887d67a5c7e32a678fa","bdp_trlrn","Mon Mar 13 2023 13:18:48 GMT-0500 (Central Daylight Time)","654207","Trustworthy,Untrustworthy","html-keyboard-response","136","340856","0.0-17.0","","null","","<div class='header' style='text-align:left; position: absolute; top: 5%; left: 5%;'><small>Task 2 of 5</small></div><div class='instruxDiv'><p>Thank you for completing the quiz<p>These are the actual partners you will be interacting with in the next block:<p><div class='tc' align='center'><img class='introPic' src='trustrating_stim/white_00757_941201_fa_edt.bmp'><br><strong>Jonathan</strong></div><div class='bl' align='center'><img class='introPic' src='trustrating_stim/white_mw099.bmp'><br><strong>Sebastian</strong></div><div class='br' align='center'><img class='introPic' src='trustrating_stim/white_00120_931230_fa_edt.bmp'><br><strong>Michael</strong></div></div><p>Across <strong>66 rounds</strong> you will interact with each partner <strong>22 times</strong> (in random order).<p style='align:center; color:white'><font <em>Press SPACEBAR to continue</em></p>","null","","","","","","","","","","",""
"","","","","63e55887d67a5c7e32a678fa","bdp_trlrn","Mon Mar 13 2023 13:18:48 GMT-0500 (Central Daylight Time)","654207","Trustworthy,Untrustworthy","instructions","137","345664","0.0-18.0","[{""page_index"":0,""viewing_time"":2283},{""page_index"":1,""viewing_time"":2524}]","4807","","","","","","","","","","","","","",""
"","","","decision","63e55887d67a5c7e32a678fa","bdp_trlrn","Mon Mar 13 2023 13:18:48 GMT-0500 (Central Daylight Time)","654207","Trustworthy,Untrustworthy","html-keyboard-response","138","349933","0.0-19.0-1.0","","4156","","<div class='trialDiv'><img src='trustrating_stim/white_00757_941201_fa_edt.bmp'><br><font class='baseline'><strong>Jonathan</strong><p>Choose number of points to send.</font><div class='respPicDiv'><img src='img/responseButtonOffersNo0L.png' class='respPic'></div></div>","2","1","Jonathan","2","Shared","0.35,0.8","9","0.35","trustrating_stim/white_00757_941201_fa_edt.bmp","2","5","1"
"","","","decisionFB","63e55887d67a5c7e32a678fa","bdp_trlrn","Mon Mar 13 2023 13:18:48 GMT-0500 (Central Daylight Time)","654207","Trustworthy,Untrustworthy","html-keyboard-response","139","350192","0.0-19.0-2.0","","null","","<div class='trialDiv'><img src='trustrating_stim/white_00757_941201_fa_edt.bmp'><br><font class='baseline'><strong>Jonathan</strong><p>Choose number of points to send.</font><div class='respPicDiv'><img src='img/responseButtonOffersNo0L2.png' class='respPic'></div></div>","null","1","Jonathan","2","Shared","0.35,0.8","9","0.35","trustrating_stim/white_00757_941201_fa_edt.bmp","2","3","1"
"","","","feedback","63e55887d67a5c7e32a678fa","bdp_trlrn","Mon Mar 13 2023 13:18:48 GMT-0500 (Central Daylight Time)","654207","Trustworthy,Untrustworthy","html-keyboard-response","140","351198","0.0-19.0-3.0","","null","","<div class='trialDiv'><img src='trustrating_stim/white_00757_941201_fa_edt.bmp'><br><font class='baseline'><strong>Jonathan</strong><p>Received: <strong>8</strong></font> &nbsp; &nbsp; &nbsp; &nbsp; &nbsp; &nbsp;<font class='posOutcome'>Shared back: <strong>4</strong></font></font><div class='respPicDiv'><img src='img/responseButtonOffersNo0_wht.png' class='respPic'></div></div>","null","1","Jonathan","2","Shared","0.35,0.8","9","0.35","trustrating_stim/white_00757_941201_fa_edt.bmp","2","7","1"
"","","","decision","63e55887d67a5c7e32a678fa","bdp_trlrn","Mon Mar 13 2023 13:18:48 GMT-0500 (Central Daylight Time)","654207","Trustworthy,Untrustworthy","html-keyboard-response","141","352635","0.0-19.0-1.1","","1435","","<div class='trialDiv'><img src='trustrating_stim/white_00120_931230_fa_edt.bmp'><br><font class='baseline'><strong>Michael</strong><p>Choose number of points to send.</font><div class='respPicDiv'><img src='img/responseButtonOffersNo0L.png' class='respPic'></div></div>","3","1","Michael","10","Shared","0.65,0.2","12","0.65","trustrating_stim/white_00120_931230_fa_edt.bmp","6.5","12","2"
"","","","decisionFB","63e55887d67a5c7e32a678fa","bdp_trlrn","Mon Mar 13 2023 13:18:48 GMT-0500 (Central Daylight Time)","654207","Trustworthy,Untrustworthy","html-keyboard-response","142","352894","0.0-19.0-2.1","","null","","<div class='trialDiv'><img src='trustrating_stim/white_00120_931230_fa_edt.bmp'><br><font class='baseline'><strong>Michael</strong><p>Choose number of points to send.</font><div class='respPicDiv'><img src='img/responseButtonOffersNo0L3.png' class='respPic'></div></div>","null","1","Michael","10","Shared","0.65,0.2","12","0.65","trustrating_stim/white_00120_931230_fa_edt.bmp","6.5","9","2"
"","","","feedback","63e55887d67a5c7e32a678fa","bdp_trlrn","Mon Mar 13 2023 13:18:48 GMT-0500 (Central Daylight Time)","654207","Trustworthy,Untrustworthy","html-keyboard-response","143","353900","0.0-19.0-3.1","","null","","<div class='trialDiv'><img src='trustrating_stim/white_00120_931230_fa_edt.bmp'><br><font class='baseline'><strong>Michael</strong><p>Received: <strong>12</strong></font> &nbsp; &nbsp; &nbsp; &nbsp; &nbsp; &nbsp;<font class='posOutcome'>Shared back: <strong>6</strong></font></font><div class='respPicDiv'><img src='img/responseButtonOffersNo0_wht.png' class='respPic'></div></div>","null","1","Michael","10","Shared","0.65,0.2","12","0.65","trustrating_stim/white_00120_931230_fa_edt.bmp","6.5","15","2"
"","","","decision","63e55887d67a5c7e32a678fa","bdp_trlrn","Mon Mar 13 2023 13:18:48 GMT-0500 (Central Daylight Time)","654207","Trustworthy,Untrustworthy","html-keyboard-response","144","354834","0.0-19.0-1.2","","932","","<div class='trialDiv'><img src='trustrating_stim/white_mw099.bmp'><br><font class='baseline'><strong>Sebastian</strong><p>Choose number of points to send.</font><div class='respPicDiv'><img src='img/responseButtonOffersNo0L.png' class='respPic'></div></div>","4","1","Sebastian","6","Shared","0.65,0.35","11","0.65","trustrating_stim/white_mw099.bmp","4","20","3"
"","","","decisionFB","63e55887d67a5c7e32a678fa","bdp_trlrn","Mon Mar 13 2023 13:18:48 GMT-0500 (Central Daylight Time)","654207","Trustworthy,Untrustworthy","html-keyboard-response","145","355097","0.0-19.0-2.2","","null","","<div class='trialDiv'><img src='trustrating_stim/white_mw099.bmp'><br><font class='baseline'><strong>Sebastian</strong><p>Choose number of points to send.</font><div class='respPicDiv'><img src='img/responseButtonOffersNo0L4.png' class='respPic'></div></div>","null","1","Sebastian","6","Shared","0.65,0.35","11","0.65","trustrating_stim/white_mw099.bmp","4","16","3"
"","","","feedback","63e55887d67a5c7e32a678fa","bdp_trlrn","Mon Mar 13 2023 13:18:48 GMT-0500 (Central Daylight Time)","654207","Trustworthy,Untrustworthy","html-keyboard-response","146","356105","0.0-19.0-3.2","","null","","<div class='trialDiv'><img src='trustrating_stim/white_mw099.bmp'><br><font class='baseline'><strong>Sebastian</strong><p>Received: <strong>16</strong></font> &nbsp; &nbsp; &nbsp; &nbsp; &nbsp; &nbsp;<font class='posOutcome'>Shared back: <strong>8</strong></font></font><div class='respPicDiv'><img src='img/responseButtonOffersNo0_wht.png' class='respPic'></div></div>","null","1","Sebastian","6","Shared","0.65,0.35","11","0.65","trustrating_stim/white_mw099.bmp","4","24","3"
"","","","decision","63e55887d67a5c7e32a678fa","bdp_trlrn","Mon Mar 13 2023 13:18:48 GMT-0500 (Central Daylight Time)","654207","Trustworthy,Untrustworthy","html-keyboard-response","147","357311","0.0-19.0-1.3","","1205","","<div class='trialDiv'><img src='trustrating_stim/white_00120_931230_fa_edt.bmp'><br><font class='baseline'><strong>Michael</strong><p>Choose number of points to send.</font><div class='respPicDiv'><img src='img/responseButtonOffersNo0L.png' class='respPic'></div></div>","5","2","Michael","10","Kept","0.65,0.2","12","0.65","trustrating_stim/white_00120_931230_fa_edt.bmp","6.5","29","4"
"","","","decisionFB","63e55887d67a5c7e32a678fa","bdp_trlrn","Mon Mar 13 2023 13:18:48 GMT-0500 (Central Daylight Time)","654207","Trustworthy,Untrustworthy","html-keyboard-response","148","357576","0.0-19.0-2.3","","null","","<div class='trialDiv'><img src='trustrating_stim/white_00120_931230_fa_edt.bmp'><br><font class='baseline'><strong>Michael</strong><p>Choose number of points to send.</font><div class='respPicDiv'><img src='img/responseButtonOffersNo0L5.png' class='respPic'></div></div>","null","2","Michael","10","Kept","0.65,0.2","12","0.65","trustrating_stim/white_00120_931230_fa_edt.bmp","6.5","24","4"
"","","","feedback","63e55887d67a5c7e32a678fa","bdp_trlrn","Mon Mar 13 2023 13:18:48 GMT-0500 (Central Daylight Time)","654207","Trustworthy,Untrustworthy","html-keyboard-response","149","358581","0.0-19.0-3.3","","null","","<div class='trialDiv'><img src='trustrating_stim/white_00120_931230_fa_edt.bmp'><br><font class='baseline'><strong>Michael</strong><p>Received: <strong>20</strong></font> &nbsp; &nbsp; &nbsp; &nbsp; &nbsp; &nbsp;<font class='negOutcome'>Shared back: <strong>0</strong></font></font><div class='respPicDiv'><img src='img/responseButtonOffersNo0_wht.png' class='respPic'></div></div>","null","2","Michael","10","Kept","0.65,0.2","12","0.65","trustrating_stim/white_00120_931230_fa_edt.bmp","6.5","24","4"
"","","","decision","63e55887d67a5c7e32a678fa","bdp_trlrn","Mon Mar 13 2023 13:18:48 GMT-0500 (Central Daylight Time)","654207","Trustworthy,Untrustworthy","html-keyboard-response","150","359599","0.0-19.0-1.4","","1017","","<div class='trialDiv'><img src='trustrating_stim/white_00757_941201_fa_edt.bmp'><br><font class='baseline'><strong>Jonathan</strong><p>Choose number of points to send.</font><div class='respPicDiv'><img src='img/responseButtonOffersNo0L.png' class='respPic'></div></div>","4","2","Jonathan","2","Kept","0.35,0.8","9","0.35","trustrating_stim/white_00757_941201_fa_edt.bmp","2","29","5"
"","","","decisionFB","63e55887d67a5c7e32a678fa","bdp_trlrn","Mon Mar 13 2023 13:18:48 GMT-0500 (Central Daylight Time)","654207","Trustworthy,Untrustworthy","html-keyboard-response","151","359864","0.0-19.0-2.4","","null","","<div class='trialDiv'><img src='trustrating_stim/white_00757_941201_fa_edt.bmp'><br><font class='baseline'><strong>Jonathan</strong><p>Choose number of points to send.</font><div class='respPicDiv'><img src='img/responseButtonOffersNo0L4.png' class='respPic'></div></div>","null","2","Jonathan","2","Kept","0.35,0.8","9","0.35","trustrating_stim/white_00757_941201_fa_edt.bmp","2","25","5"
"","","","feedback","63e55887d67a5c7e32a678fa","bdp_trlrn","Mon Mar 13 2023 13:18:48 GMT-0500 (Central Daylight Time)","654207","Trustworthy,Untrustworthy","html-keyboard-response","152","360876","0.0-19.0-3.4","","null","","<div class='trialDiv'><img src='trustrating_stim/white_00757_941201_fa_edt.bmp'><br><font class='baseline'><strong>Jonathan</strong><p>Received: <strong>16</strong></font> &nbsp; &nbsp; &nbsp; &nbsp; &nbsp; &nbsp;<font class='negOutcome'>Shared back: <strong>0</strong></font></font><div class='respPicDiv'><img src='img/responseButtonOffersNo0_wht.png' class='respPic'></div></div>","null","2","Jonathan","2","Kept","0.35,0.8","9","0.35","trustrating_stim/white_00757_941201_fa_edt.bmp","2","25","5"
"","","","decision","63e55887d67a5c7e32a678fa","bdp_trlrn","Mon Mar 13 2023 13:18:48 GMT-0500 (Central Daylight Time)","654207","Trustworthy,Untrustworthy","html-keyboard-response","153","361823","0.0-19.0-1.5","","946","","<div class='trialDiv'><img src='trustrating_stim/white_mw099.bmp'><br><font class='baseline'><strong>Sebastian</strong><p>Choose number of points to send.</font><div class='respPicDiv'><img src='img/responseButtonOffersNo0L.png' class='respPic'></div></div>","3","2","Sebastian","6","Kept","0.65,0.35","11","0.65","trustrating_stim/white_mw099.bmp","4","30","6"
"","","","decisionFB","63e55887d67a5c7e32a678fa","bdp_trlrn","Mon Mar 13 2023 13:18:48 GMT-0500 (Central Daylight Time)","654207","Trustworthy,Untrustworthy","html-keyboard-response","154","362082","0.0-19.0-2.5","","null","","<div class='trialDiv'><img src='trustrating_stim/white_mw099.bmp'><br><font class='baseline'><strong>Sebastian</strong><p>Choose number of points to send.</font><div class='respPicDiv'><img src='img/responseButtonOffersNo0L3.png' class='respPic'></div></div>","null","2","Sebastian","6","Kept","0.65,0.35","11","0.65","trustrating_stim/white_mw099.bmp","4","27","6"
"","","","feedback","63e55887d67a5c7e32a678fa","bdp_trlrn","Mon Mar 13 2023 13:18:48 GMT-0500 (Central Daylight Time)","654207","Trustworthy,Untrustworthy","html-keyboard-response","155","363085","0.0-19.0-3.5","","null","","<div class='trialDiv'><img src='trustrating_stim/white_mw099.bmp'><br><font class='baseline'><strong>Sebastian</strong><p>Received: <strong>12</strong></font> &nbsp; &nbsp; &nbsp; &nbsp; &nbsp; &nbsp;<font class='negOutcome'>Shared back: <strong>0</strong></font></font><div class='respPicDiv'><img src='img/responseButtonOffersNo0_wht.png' class='respPic'></div></div>","null","2","Sebastian","6","Kept","0.65,0.35","11","0.65","trustrating_stim/white_mw099.bmp","4","27","6"
"","","","decision","63e55887d67a5c7e32a678fa","bdp_trlrn","Mon Mar 13 2023 13:18:48 GMT-0500 (Central Daylight Time)","654207","Trustworthy,Untrustworthy","html-keyboard-response","156","363613","0.0-19.0-1.6","","527","","<div class='trialDiv'><img src='trustrating_stim/white_00120_931230_fa_edt.bmp'><br><font class='baseline'><strong>Michael</strong><p>Choose number of points to send.</font><div class='respPicDiv'><img src='img/responseButtonOffersNo0L.png' class='respPic'></div></div>","4","3","Michael","10","Shared","0.65,0.2","12","0.65","trustrating_stim/white_00120_931230_fa_edt.bmp","6.5","32","7"
"","","","decisionFB","63e55887d67a5c7e32a678fa","bdp_trlrn","Mon Mar 13 2023 13:18:48 GMT-0500 (Central Daylight Time)","654207","Trustworthy,Untrustworthy","html-keyboard-response","157","363867","0.0-19.0-2.6","","null","","<div class='trialDiv'><img src='trustrating_stim/white_00120_931230_fa_edt.bmp'><br><font class='baseline'><strong>Michael</strong><p>Choose number of points to send.</font><div class='respPicDiv'><img src='img/responseButtonOffersNo0L4.png' class='respPic'></div></div>","null","3","Michael","10","Shared","0.65,0.2","12","0.65","trustrating_stim/white_00120_931230_fa_edt.bmp","6.5","28","7"
"","","","feedback","63e55887d67a5c7e32a678fa","bdp_trlrn","Mon Mar 13 2023 13:18:48 GMT-0500 (Central Daylight Time)","654207","Trustworthy,Untrustworthy","html-keyboard-response","158","364878","0.0-19.0-3.6","","null","","<div class='trialDiv'><img src='trustrating_stim/white_00120_931230_fa_edt.bmp'><br><font class='baseline'><strong>Michael</strong><p>Received: <strong>16</strong></font> &nbsp; &nbsp; &nbsp; &nbsp; &nbsp; &nbsp;<font class='posOutcome'>Shared back: <strong>8</strong></font></font><div class='respPicDiv'><img src='img/responseButtonOffersNo0_wht.png' class='respPic'></div></div>","null","3","Michael","10","Shared","0.65,0.2","12","0.65","trustrating_stim/white_00120_931230_fa_edt.bmp","6.5","36","7"
"","","","decision","63e55887d67a5c7e32a678fa","bdp_trlrn","Mon Mar 13 2023 13:18:48 GMT-0500 (Central Daylight Time)","654207","Trustworthy,Untrustworthy","html-keyboard-response","159","366066","0.0-19.0-1.7","","1186","","<div class='trialDiv'><img src='trustrating_stim/white_00757_941201_fa_edt.bmp'><br><font class='baseline'><strong>Jonathan</strong><p>Choose number of points to send.</font><div class='respPicDiv'><img src='img/responseButtonOffersNo0L.png' class='respPic'></div></div>","3","3","Jonathan","2","Kept","0.35,0.8","9","0.35","trustrating_stim/white_00757_941201_fa_edt.bmp","2","41","8"
"","","","decisionFB","63e55887d67a5c7e32a678fa","bdp_trlrn","Mon Mar 13 2023 13:18:48 GMT-0500 (Central Daylight Time)","654207","Trustworthy,Untrustworthy","html-keyboard-response","160","366332","0.0-19.0-2.7","","null","","<div class='trialDiv'><img src='trustrating_stim/white_00757_941201_fa_edt.bmp'><br><font class='baseline'><strong>Jonathan</strong><p>Choose number of points to send.</font><div class='respPicDiv'><img src='img/responseButtonOffersNo0L3.png' class='respPic'></div></div>","null","3","Jonathan","2","Kept","0.35,0.8","9","0.35","trustrating_stim/white_00757_941201_fa_edt.bmp","2","38","8"
"","","","feedback","63e55887d67a5c7e32a678fa","bdp_trlrn","Mon Mar 13 2023 13:18:48 GMT-0500 (Central Daylight Time)","654207","Trustworthy,Untrustworthy","html-keyboard-response","161","367346","0.0-19.0-3.7","","null","","<div class='trialDiv'><img src='trustrating_stim/white_00757_941201_fa_edt.bmp'><br><font class='baseline'><strong>Jonathan</strong><p>Received: <strong>12</strong></font> &nbsp; &nbsp; &nbsp; &nbsp; &nbsp; &nbsp;<font class='negOutcome'>Shared back: <strong>0</strong></font></font><div class='respPicDiv'><img src='img/responseButtonOffersNo0_wht.png' class='respPic'></div></div>","null","3","Jonathan","2","Kept","0.35,0.8","9","0.35","trustrating_stim/white_00757_941201_fa_edt.bmp","2","38","8"
"","","","decision","63e55887d67a5c7e32a678fa","bdp_trlrn","Mon Mar 13 2023 13:18:48 GMT-0500 (Central Daylight Time)","654207","Trustworthy,Untrustworthy","html-keyboard-response","162","369775","0.0-19.0-1.8","","2428","","<div class='trialDiv'><img src='trustrating_stim/white_mw099.bmp'><br><font class='baseline'><strong>Sebastian</strong><p>Choose number of points to send.</font><div class='respPicDiv'><img src='img/responseButtonOffersNo0L.png' class='respPic'></div></div>","3","3","Sebastian","6","Shared","0.65,0.35","11","0.65","trustrating_stim/white_mw099.bmp","4","43","9"
"","","","decisionFB","63e55887d67a5c7e32a678fa","bdp_trlrn","Mon Mar 13 2023 13:18:48 GMT-0500 (Central Daylight Time)","654207","Trustworthy,Untrustworthy","html-keyboard-response","163","370039","0.0-19.0-2.8","","null","","<div class='trialDiv'><img src='trustrating_stim/white_mw099.bmp'><br><font class='baseline'><strong>Sebastian</strong><p>Choose number of points to send.</font><div class='respPicDiv'><img src='img/responseButtonOffersNo0L3.png' class='respPic'></div></div>","null","3","Sebastian","6","Shared","0.65,0.35","11","0.65","trustrating_stim/white_mw099.bmp","4","40","9"
"","","","feedback","63e55887d67a5c7e32a678fa","bdp_trlrn","Mon Mar 13 2023 13:18:48 GMT-0500 (Central Daylight Time)","654207","Trustworthy,Untrustworthy","html-keyboard-response","164","371043","0.0-19.0-3.8","","null","","<div class='trialDiv'><img src='trustrating_stim/white_mw099.bmp'><br><font class='baseline'><strong>Sebastian</strong><p>Received: <strong>12</strong></font> &nbsp; &nbsp; &nbsp; &nbsp; &nbsp; &nbsp;<font class='posOutcome'>Shared back: <strong>6</strong></font></font><div class='respPicDiv'><img src='img/responseButtonOffersNo0_wht.png' class='respPic'></div></div>","null","3","Sebastian","6","Shared","0.65,0.35","11","0.65","trustrating_stim/white_mw099.bmp","4","46","9"
"","","","decision","63e55887d67a5c7e32a678fa","bdp_trlrn","Mon Mar 13 2023 13:18:48 GMT-0500 (Central Daylight Time)","654207","Trustworthy,Untrustworthy","html-keyboard-response","165","372656","0.0-19.0-1.9","","1612","","<div class='trialDiv'><img src='trustrating_stim/white_00757_941201_fa_edt.bmp'><br><font class='baseline'><strong>Jonathan</strong><p>Choose number of points to send.</font><div class='respPicDiv'><img src='img/responseButtonOffersNo0L.png' class='respPic'></div></div>","5","4","Jonathan","2","Kept","0.35,0.8","9","0.35","trustrating_stim/white_00757_941201_fa_edt.bmp","2","51","10"
"","","","decisionFB","63e55887d67a5c7e32a678fa","bdp_trlrn","Mon Mar 13 2023 13:18:48 GMT-0500 (Central Daylight Time)","654207","Trustworthy,Untrustworthy","html-keyboard-response","166","372924","0.0-19.0-2.9","","null","","<div class='trialDiv'><img src='trustrating_stim/white_00757_941201_fa_edt.bmp'><br><font class='baseline'><strong>Jonathan</strong><p>Choose number of points to send.</font><div class='respPicDiv'><img src='img/responseButtonOffersNo0L5.png' class='respPic'></div></div>","null","4","Jonathan","2","Kept","0.35,0.8","9","0.35","trustrating_stim/white_00757_941201_fa_edt.bmp","2","46","10"
"","","","feedback","63e55887d67a5c7e32a678fa","bdp_trlrn","Mon Mar 13 2023 13:18:48 GMT-0500 (Central Daylight Time)","654207","Trustworthy,Untrustworthy","html-keyboard-response","167","373927","0.0-19.0-3.9","","null","","<div class='trialDiv'><img src='trustrating_stim/white_00757_941201_fa_edt.bmp'><br><font class='baseline'><strong>Jonathan</strong><p>Received: <strong>20</strong></font> &nbsp; &nbsp; &nbsp; &nbsp; &nbsp; &nbsp;<font class='negOutcome'>Shared back: <strong>0</strong></font></font><div class='respPicDiv'><img src='img/responseButtonOffersNo0_wht.png' class='respPic'></div></div>","null","4","Jonathan","2","Kept","0.35,0.8","9","0.35","trustrating_stim/white_00757_941201_fa_edt.bmp","2","46","10"
"","","","decision","63e55887d67a5c7e32a678fa","bdp_trlrn","Mon Mar 13 2023 13:18:48 GMT-0500 (Central Daylight Time)","654207","Trustworthy,Untrustworthy","html-keyboard-response","168","374835","0.0-19.0-1.10","","907","","<div class='trialDiv'><img src='trustrating_stim/white_mw099.bmp'><br><font class='baseline'><strong>Sebastian</strong><p>Choose number of points to send.</font><div class='respPicDiv'><img src='img/responseButtonOffersNo0L.png' class='respPic'></div></div>","4","4","Sebastian","6","Shared","0.65,0.35","11","0.65","trustrating_stim/white_mw099.bmp","4","51","11"
"","","","decisionFB","63e55887d67a5c7e32a678fa","bdp_trlrn","Mon Mar 13 2023 13:18:48 GMT-0500 (Central Daylight Time)","654207","Trustworthy,Untrustworthy","html-keyboard-response","169","375099","0.0-19.0-2.10","","null","","<div class='trialDiv'><img src='trustrating_stim/white_mw099.bmp'><br><font class='baseline'><strong>Sebastian</strong><p>Choose number of points to send.</font><div class='respPicDiv'><img src='img/responseButtonOffersNo0L4.png' class='respPic'></div></div>","null","4","Sebastian","6","Shared","0.65,0.35","11","0.65","trustrating_stim/white_mw099.bmp","4","47","11"
"","","","feedback","63e55887d67a5c7e32a678fa","bdp_trlrn","Mon Mar 13 2023 13:18:48 GMT-0500 (Central Daylight Time)","654207","Trustworthy,Untrustworthy","html-keyboard-response","170","376103","0.0-19.0-3.10","","null","","<div class='trialDiv'><img src='trustrating_stim/white_mw099.bmp'><br><font class='baseline'><strong>Sebastian</strong><p>Received: <strong>16</strong></font> &nbsp; &nbsp; &nbsp; &nbsp; &nbsp; &nbsp;<font class='posOutcome'>Shared back: <strong>8</strong></font></font><div class='respPicDiv'><img src='img/responseButtonOffersNo0_wht.png' class='respPic'></div></div>","null","4","Sebastian","6","Shared","0.65,0.35","11","0.65","trustrating_stim/white_mw099.bmp","4","55","11"
"","","","decision","63e55887d67a5c7e32a678fa","bdp_trlrn","Mon Mar 13 2023 13:18:48 GMT-0500 (Central Daylight Time)","654207","Trustworthy,Untrustworthy","html-keyboard-response","171","376905","0.0-19.0-1.11","","801","","<div class='trialDiv'><img src='trustrating_stim/white_00120_931230_fa_edt.bmp'><br><font class='baseline'><strong>Michael</strong><p>Choose number of points to send.</font><div class='respPicDiv'><img src='img/responseButtonOffersNo0L.png' class='respPic'></div></div>","4","4","Michael","10","Shared","0.65,0.2","12","0.65","trustrating_stim/white_00120_931230_fa_edt.bmp","6.5","60","12"
"","","","decisionFB","63e55887d67a5c7e32a678fa","bdp_trlrn","Mon Mar 13 2023 13:18:48 GMT-0500 (Central Daylight Time)","654207","Trustworthy,Untrustworthy","html-keyboard-response","172","377169","0.0-19.0-2.11","","null","","<div class='trialDiv'><img src='trustrating_stim/white_00120_931230_fa_edt.bmp'><br><font class='baseline'><strong>Michael</strong><p>Choose number of points to send.</font><div class='respPicDiv'><img src='img/responseButtonOffersNo0L4.png' class='respPic'></div></div>","null","4","Michael","10","Shared","0.65,0.2","12","0.65","trustrating_stim/white_00120_931230_fa_edt.bmp","6.5","56","12"
"","","","feedback","63e55887d67a5c7e32a678fa","bdp_trlrn","Mon Mar 13 2023 13:18:48 GMT-0500 (Central Daylight Time)","654207","Trustworthy,Untrustworthy","html-keyboard-response","173","378186","0.0-19.0-3.11","","null","","<div class='trialDiv'><img src='trustrating_stim/white_00120_931230_fa_edt.bmp'><br><font class='baseline'><strong>Michael</strong><p>Received: <strong>16</strong></font> &nbsp; &nbsp; &nbsp; &nbsp; &nbsp; &nbsp;<font class='posOutcome'>Shared back: <strong>8</strong></font></font><div class='respPicDiv'><img src='img/responseButtonOffersNo0_wht.png' class='respPic'></div></div>","null","4","Michael","10","Shared","0.65,0.2","12","0.65","trustrating_stim/white_00120_931230_fa_edt.bmp","6.5","64","12"
"","","","decision","63e55887d67a5c7e32a678fa","bdp_trlrn","Mon Mar 13 2023 13:18:48 GMT-0500 (Central Daylight Time)","654207","Trustworthy,Untrustworthy","html-keyboard-response","174","378927","0.0-19.0-1.12","","739","","<div class='trialDiv'><img src='trustrating_stim/white_00757_941201_fa_edt.bmp'><br><font class='baseline'><strong>Jonathan</strong><p>Choose number of points to send.</font><div class='respPicDiv'><img src='img/responseButtonOffersNo0L.png' class='respPic'></div></div>","5","5","Jonathan","2","Kept","0.35,0.8","9","0.35","trustrating_stim/white_00757_941201_fa_edt.bmp","2","69","13"
"","","","decisionFB","63e55887d67a5c7e32a678fa","bdp_trlrn","Mon Mar 13 2023 13:18:48 GMT-0500 (Central Daylight Time)","654207","Trustworthy,Untrustworthy","html-keyboard-response","175","379183","0.0-19.0-2.12","","null","","<div class='trialDiv'><img src='trustrating_stim/white_00757_941201_fa_edt.bmp'><br><font class='baseline'><strong>Jonathan</strong><p>Choose number of points to send.</font><div class='respPicDiv'><img src='img/responseButtonOffersNo0L5.png' class='respPic'></div></div>","null","5","Jonathan","2","Kept","0.35,0.8","9","0.35","trustrating_stim/white_00757_941201_fa_edt.bmp","2","64","13"
"","","","feedback","63e55887d67a5c7e32a678fa","bdp_trlrn","Mon Mar 13 2023 13:18:48 GMT-0500 (Central Daylight Time)","654207","Trustworthy,Untrustworthy","html-keyboard-response","176","380185","0.0-19.0-3.12","","null","","<div class='trialDiv'><img src='trustrating_stim/white_00757_941201_fa_edt.bmp'><br><font class='baseline'><strong>Jonathan</strong><p>Received: <strong>20</strong></font> &nbsp; &nbsp; &nbsp; &nbsp; &nbsp; &nbsp;<font class='negOutcome'>Shared back: <strong>0</strong></font></font><div class='respPicDiv'><img src='img/responseButtonOffersNo0_wht.png' class='respPic'></div></div>","null","5","Jonathan","2","Kept","0.35,0.8","9","0.35","trustrating_stim/white_00757_941201_fa_edt.bmp","2","64","13"
"","","","decision","63e55887d67a5c7e32a678fa","bdp_trlrn","Mon Mar 13 2023 13:18:48 GMT-0500 (Central Daylight Time)","654207","Trustworthy,Untrustworthy","html-keyboard-response","177","380656","0.0-19.0-1.13","","470","","<div class='trialDiv'><img src='trustrating_stim/white_00120_931230_fa_edt.bmp'><br><font class='baseline'><strong>Michael</strong><p>Choose number of points to send.</font><div class='respPicDiv'><img src='img/responseButtonOffersNo0L.png' class='respPic'></div></div>","4","5","Michael","10","Shared","0.65,0.2","12","0.65","trustrating_stim/white_00120_931230_fa_edt.bmp","6.5","69","14"
"","","","decisionFB","63e55887d67a5c7e32a678fa","bdp_trlrn","Mon Mar 13 2023 13:18:48 GMT-0500 (Central Daylight Time)","654207","Trustworthy,Untrustworthy","html-keyboard-response","178","380920","0.0-19.0-2.13","","null","","<div class='trialDiv'><img src='trustrating_stim/white_00120_931230_fa_edt.bmp'><br><font class='baseline'><strong>Michael</strong><p>Choose number of points to send.</font><div class='respPicDiv'><img src='img/responseButtonOffersNo0L4.png' class='respPic'></div></div>","null","5","Michael","10","Shared","0.65,0.2","12","0.65","trustrating_stim/white_00120_931230_fa_edt.bmp","6.5","65","14"
"","","","feedback","63e55887d67a5c7e32a678fa","bdp_trlrn","Mon Mar 13 2023 13:18:48 GMT-0500 (Central Daylight Time)","654207","Trustworthy,Untrustworthy","html-keyboard-response","179","381927","0.0-19.0-3.13","","null","","<div class='trialDiv'><img src='trustrating_stim/white_00120_931230_fa_edt.bmp'><br><font class='baseline'><strong>Michael</strong><p>Received: <strong>16</strong></font> &nbsp; &nbsp; &nbsp; &nbsp; &nbsp; &nbsp;<font class='posOutcome'>Shared back: <strong>8</strong></font></font><div class='respPicDiv'><img src='img/responseButtonOffersNo0_wht.png' class='respPic'></div></div>","null","5","Michael","10","Shared","0.65,0.2","12","0.65","trustrating_stim/white_00120_931230_fa_edt.bmp","6.5","73","14"
"","","","decision","63e55887d67a5c7e32a678fa","bdp_trlrn","Mon Mar 13 2023 13:18:48 GMT-0500 (Central Daylight Time)","654207","Trustworthy,Untrustworthy","html-keyboard-response","180","382813","0.0-19.0-1.14","","883","","<div class='trialDiv'><img src='trustrating_stim/white_mw099.bmp'><br><font class='baseline'><strong>Sebastian</strong><p>Choose number of points to send.</font><div class='respPicDiv'><img src='img/responseButtonOffersNo0L.png' class='respPic'></div></div>","3","5","Sebastian","6","Kept","0.65,0.35","11","0.65","trustrating_stim/white_mw099.bmp","4","78","15"
"","","","decisionFB","63e55887d67a5c7e32a678fa","bdp_trlrn","Mon Mar 13 2023 13:18:48 GMT-0500 (Central Daylight Time)","654207","Trustworthy,Untrustworthy","html-keyboard-response","181","383077","0.0-19.0-2.14","","null","","<div class='trialDiv'><img src='trustrating_stim/white_mw099.bmp'><br><font class='baseline'><strong>Sebastian</strong><p>Choose number of points to send.</font><div class='respPicDiv'><img src='img/responseButtonOffersNo0L3.png' class='respPic'></div></div>","null","5","Sebastian","6","Kept","0.65,0.35","11","0.65","trustrating_stim/white_mw099.bmp","4","75","15"
"","","","feedback","63e55887d67a5c7e32a678fa","bdp_trlrn","Mon Mar 13 2023 13:18:48 GMT-0500 (Central Daylight Time)","654207","Trustworthy,Untrustworthy","html-keyboard-response","182","384086","0.0-19.0-3.14","","null","","<div class='trialDiv'><img src='trustrating_stim/white_mw099.bmp'><br><font class='baseline'><strong>Sebastian</strong><p>Received: <strong>12</strong></font> &nbsp; &nbsp; &nbsp; &nbsp; &nbsp; &nbsp;<font class='negOutcome'>Shared back: <strong>0</strong></font></font><div class='respPicDiv'><img src='img/responseButtonOffersNo0_wht.png' class='respPic'></div></div>","null","5","Sebastian","6","Kept","0.65,0.35","11","0.65","trustrating_stim/white_mw099.bmp","4","75","15"
"","","","decision","63e55887d67a5c7e32a678fa","bdp_trlrn","Mon Mar 13 2023 13:18:48 GMT-0500 (Central Daylight Time)","654207","Trustworthy,Untrustworthy","html-keyboard-response","183","384789","0.0-19.0-1.15","","701","","<div class='trialDiv'><img src='trustrating_stim/white_00757_941201_fa_edt.bmp'><br><font class='baseline'><strong>Jonathan</strong><p>Choose number of points to send.</font><div class='respPicDiv'><img src='img/responseButtonOffersNo0L.png' class='respPic'></div></div>","5","6","Jonathan","2","Kept","0.35,0.8","9","0.35","trustrating_stim/white_00757_941201_fa_edt.bmp","2","80","16"
"","","","decisionFB","63e55887d67a5c7e32a678fa","bdp_trlrn","Mon Mar 13 2023 13:18:48 GMT-0500 (Central Daylight Time)","654207","Trustworthy,Untrustworthy","html-keyboard-response","184","385050","0.0-19.0-2.15","","null","","<div class='trialDiv'><img src='trustrating_stim/white_00757_941201_fa_edt.bmp'><br><font class='baseline'><strong>Jonathan</strong><p>Choose number of points to send.</font><div class='respPicDiv'><img src='img/responseButtonOffersNo0L5.png' class='respPic'></div></div>","null","6","Jonathan","2","Kept","0.35,0.8","9","0.35","trustrating_stim/white_00757_941201_fa_edt.bmp","2","75","16"
"","","","feedback","63e55887d67a5c7e32a678fa","bdp_trlrn","Mon Mar 13 2023 13:18:48 GMT-0500 (Central Daylight Time)","654207","Trustworthy,Untrustworthy","html-keyboard-response","185","386056","0.0-19.0-3.15","","null","","<div class='trialDiv'><img src='trustrating_stim/white_00757_941201_fa_edt.bmp'><br><font class='baseline'><strong>Jonathan</strong><p>Received: <strong>20</strong></font> &nbsp; &nbsp; &nbsp; &nbsp; &nbsp; &nbsp;<font class='negOutcome'>Shared back: <strong>0</strong></font></font><div class='respPicDiv'><img src='img/responseButtonOffersNo0_wht.png' class='respPic'></div></div>","null","6","Jonathan","2","Kept","0.35,0.8","9","0.35","trustrating_stim/white_00757_941201_fa_edt.bmp","2","75","16"
"","","","decision","63e55887d67a5c7e32a678fa","bdp_trlrn","Mon Mar 13 2023 13:18:48 GMT-0500 (Central Daylight Time)","654207","Trustworthy,Untrustworthy","html-keyboard-response","186","386515","0.0-19.0-1.16","","457","","<div class='trialDiv'><img src='trustrating_stim/white_00120_931230_fa_edt.bmp'><br><font class='baseline'><strong>Michael</strong><p>Choose number of points to send.</font><div class='respPicDiv'><img src='img/responseButtonOffersNo0L.png' class='respPic'></div></div>","4","6","Michael","10","Shared","0.65,0.2","12","0.65","trustrating_stim/white_00120_931230_fa_edt.bmp","6.5","80","17"
"","","","decisionFB","63e55887d67a5c7e32a678fa","bdp_trlrn","Mon Mar 13 2023 13:18:48 GMT-0500 (Central Daylight Time)","654207","Trustworthy,Untrustworthy","html-keyboard-response","187","386775","0.0-19.0-2.16","","null","","<div class='trialDiv'><img src='trustrating_stim/white_00120_931230_fa_edt.bmp'><br><font class='baseline'><strong>Michael</strong><p>Choose number of points to send.</font><div class='respPicDiv'><img src='img/responseButtonOffersNo0L4.png' class='respPic'></div></div>","null","6","Michael","10","Shared","0.65,0.2","12","0.65","trustrating_stim/white_00120_931230_fa_edt.bmp","6.5","76","17"
"","","","feedback","63e55887d67a5c7e32a678fa","bdp_trlrn","Mon Mar 13 2023 13:18:48 GMT-0500 (Central Daylight Time)","654207","Trustworthy,Untrustworthy","html-keyboard-response","188","387784","0.0-19.0-3.16","","null","","<div class='trialDiv'><img src='trustrating_stim/white_00120_931230_fa_edt.bmp'><br><font class='baseline'><strong>Michael</strong><p>Received: <strong>16</strong></font> &nbsp; &nbsp; &nbsp; &nbsp; &nbsp; &nbsp;<font class='posOutcome'>Shared back: <strong>8</strong></font></font><div class='respPicDiv'><img src='img/responseButtonOffersNo0_wht.png' class='respPic'></div></div>","null","6","Michael","10","Shared","0.65,0.2","12","0.65","trustrating_stim/white_00120_931230_fa_edt.bmp","6.5","84","17"
"","","","decision","63e55887d67a5c7e32a678fa","bdp_trlrn","Mon Mar 13 2023 13:18:48 GMT-0500 (Central Daylight Time)","654207","Trustworthy,Untrustworthy","html-keyboard-response","189","388967","0.0-19.0-1.17","","1182","","<div class='trialDiv'><img src='trustrating_stim/white_mw099.bmp'><br><font class='baseline'><strong>Sebastian</strong><p>Choose number of points to send.</font><div class='respPicDiv'><img src='img/responseButtonOffersNo0L.png' class='respPic'></div></div>","5","6","Sebastian","6","Shared","0.65,0.35","11","0.65","trustrating_stim/white_mw099.bmp","4","89","18"
"","","","decisionFB","63e55887d67a5c7e32a678fa","bdp_trlrn","Mon Mar 13 2023 13:18:48 GMT-0500 (Central Daylight Time)","654207","Trustworthy,Untrustworthy","html-keyboard-response","190","389225","0.0-19.0-2.17","","null","","<div class='trialDiv'><img src='trustrating_stim/white_mw099.bmp'><br><font class='baseline'><strong>Sebastian</strong><p>Choose number of points to send.</font><div class='respPicDiv'><img src='img/responseButtonOffersNo0L5.png' class='respPic'></div></div>","null","6","Sebastian","6","Shared","0.65,0.35","11","0.65","trustrating_stim/white_mw099.bmp","4","84","18"
"","","","feedback","63e55887d67a5c7e32a678fa","bdp_trlrn","Mon Mar 13 2023 13:18:48 GMT-0500 (Central Daylight Time)","654207","Trustworthy,Untrustworthy","html-keyboard-response","191","390226","0.0-19.0-3.17","","null","","<div class='trialDiv'><img src='trustrating_stim/white_mw099.bmp'><br><font class='baseline'><strong>Sebastian</strong><p>Received: <strong>20</strong></font> &nbsp; &nbsp; &nbsp; &nbsp; &nbsp; &nbsp;<font class='posOutcome'>Shared back: <strong>10</strong></font></font><div class='respPicDiv'><img src='img/responseButtonOffersNo0_wht.png' class='respPic'></div></div>","null","6","Sebastian","6","Shared","0.65,0.35","11","0.65","trustrating_stim/white_mw099.bmp","4","94","18"
"","","","decision","63e55887d67a5c7e32a678fa","bdp_trlrn","Mon Mar 13 2023 13:18:48 GMT-0500 (Central Daylight Time)","654207","Trustworthy,Untrustworthy","html-keyboard-response","192","390634","0.0-19.0-1.18","","405","","<div class='trialDiv'><img src='trustrating_stim/white_00120_931230_fa_edt.bmp'><br><font class='baseline'><strong>Michael</strong><p>Choose number of points to send.</font><div class='respPicDiv'><img src='img/responseButtonOffersNo0L.png' class='respPic'></div></div>","4","7","Michael","10","Shared","0.65,0.2","12","0.65","trustrating_stim/white_00120_931230_fa_edt.bmp","6.5","99","19"
"","","","decisionFB","63e55887d67a5c7e32a678fa","bdp_trlrn","Mon Mar 13 2023 13:18:48 GMT-0500 (Central Daylight Time)","654207","Trustworthy,Untrustworthy","html-keyboard-response","193","390901","0.0-19.0-2.18","","null","","<div class='trialDiv'><img src='trustrating_stim/white_00120_931230_fa_edt.bmp'><br><font class='baseline'><strong>Michael</strong><p>Choose number of points to send.</font><div class='respPicDiv'><img src='img/responseButtonOffersNo0L4.png' class='respPic'></div></div>","null","7","Michael","10","Shared","0.65,0.2","12","0.65","trustrating_stim/white_00120_931230_fa_edt.bmp","6.5","95","19"
"","","","feedback","63e55887d67a5c7e32a678fa","bdp_trlrn","Mon Mar 13 2023 13:18:48 GMT-0500 (Central Daylight Time)","654207","Trustworthy,Untrustworthy","html-keyboard-response","194","391918","0.0-19.0-3.18","","null","","<div class='trialDiv'><img src='trustrating_stim/white_00120_931230_fa_edt.bmp'><br><font class='baseline'><strong>Michael</strong><p>Received: <strong>16</strong></font> &nbsp; &nbsp; &nbsp; &nbsp; &nbsp; &nbsp;<font class='posOutcome'>Shared back: <strong>8</strong></font></font><div class='respPicDiv'><img src='img/responseButtonOffersNo0_wht.png' class='respPic'></div></div>","null","7","Michael","10","Shared","0.65,0.2","12","0.65","trustrating_stim/white_00120_931230_fa_edt.bmp","6.5","103","19"
"","","","decision","63e55887d67a5c7e32a678fa","bdp_trlrn","Mon Mar 13 2023 13:18:48 GMT-0500 (Central Daylight Time)","654207","Trustworthy,Untrustworthy","html-keyboard-response","195","392272","0.0-19.0-1.19","","353","","<div class='trialDiv'><img src='trustrating_stim/white_mw099.bmp'><br><font class='baseline'><strong>Sebastian</strong><p>Choose number of points to send.</font><div class='respPicDiv'><img src='img/responseButtonOffersNo0L.png' class='respPic'></div></div>","3","7","Sebastian","6","Shared","0.65,0.35","11","0.65","trustrating_stim/white_mw099.bmp","4","108","20"
"","","","decisionFB","63e55887d67a5c7e32a678fa","bdp_trlrn","Mon Mar 13 2023 13:18:48 GMT-0500 (Central Daylight Time)","654207","Trustworthy,Untrustworthy","html-keyboard-response","196","392534","0.0-19.0-2.19","","null","","<div class='trialDiv'><img src='trustrating_stim/white_mw099.bmp'><br><font class='baseline'><strong>Sebastian</strong><p>Choose number of points to send.</font><div class='respPicDiv'><img src='img/responseButtonOffersNo0L3.png' class='respPic'></div></div>","null","7","Sebastian","6","Shared","0.65,0.35","11","0.65","trustrating_stim/white_mw099.bmp","4","105","20"
"","","","feedback","63e55887d67a5c7e32a678fa","bdp_trlrn","Mon Mar 13 2023 13:18:48 GMT-0500 (Central Daylight Time)","654207","Trustworthy,Untrustworthy","html-keyboard-response","197","393540","0.0-19.0-3.19","","null","","<div class='trialDiv'><img src='trustrating_stim/white_mw099.bmp'><br><font class='baseline'><strong>Sebastian</strong><p>Received: <strong>12</strong></font> &nbsp; &nbsp; &nbsp; &nbsp; &nbsp; &nbsp;<font class='posOutcome'>Shared back: <strong>6</strong></font></font><div class='respPicDiv'><img src='img/responseButtonOffersNo0_wht.png' class='respPic'></div></div>","null","7","Sebastian","6","Shared","0.65,0.35","11","0.65","trustrating_stim/white_mw099.bmp","4","111","20"
"","","","decision","63e55887d67a5c7e32a678fa","bdp_trlrn","Mon Mar 13 2023 13:18:48 GMT-0500 (Central Daylight Time)","654207","Trustworthy,Untrustworthy","html-keyboard-response","198","395016","0.0-19.0-1.20","","1474","","<div class='trialDiv'><img src='trustrating_stim/white_00757_941201_fa_edt.bmp'><br><font class='baseline'><strong>Jonathan</strong><p>Choose number of points to send.</font><div class='respPicDiv'><img src='img/responseButtonOffersNo0L.png' class='respPic'></div></div>","5","7","Jonathan","2","Shared","0.35,0.8","9","0.35","trustrating_stim/white_00757_941201_fa_edt.bmp","2","116","21"
"","","","decisionFB","63e55887d67a5c7e32a678fa","bdp_trlrn","Mon Mar 13 2023 13:18:48 GMT-0500 (Central Daylight Time)","654207","Trustworthy,Untrustworthy","html-keyboard-response","199","395275","0.0-19.0-2.20","","null","","<div class='trialDiv'><img src='trustrating_stim/white_00757_941201_fa_edt.bmp'><br><font class='baseline'><strong>Jonathan</strong><p>Choose number of points to send.</font><div class='respPicDiv'><img src='img/responseButtonOffersNo0L5.png' class='respPic'></div></div>","null","7","Jonathan","2","Shared","0.35,0.8","9","0.35","trustrating_stim/white_00757_941201_fa_edt.bmp","2","111","21"
"","","","feedback","63e55887d67a5c7e32a678fa","bdp_trlrn","Mon Mar 13 2023 13:18:48 GMT-0500 (Central Daylight Time)","654207","Trustworthy,Untrustworthy","html-keyboard-response","200","396277","0.0-19.0-3.20","","null","","<div class='trialDiv'><img src='trustrating_stim/white_00757_941201_fa_edt.bmp'><br><font class='baseline'><strong>Jonathan</strong><p>Received: <strong>20</strong></font> &nbsp; &nbsp; &nbsp; &nbsp; &nbsp; &nbsp;<font class='posOutcome'>Shared back: <strong>10</strong></font></font><div class='respPicDiv'><img src='img/responseButtonOffersNo0_wht.png' class='respPic'></div></div>","null","7","Jonathan","2","Shared","0.35,0.8","9","0.35","trustrating_stim/white_00757_941201_fa_edt.bmp","2","121","21"
"","","","decision","63e55887d67a5c7e32a678fa","bdp_trlrn","Mon Mar 13 2023 13:18:48 GMT-0500 (Central Daylight Time)","654207","Trustworthy,Untrustworthy","html-keyboard-response","201","396597","0.0-19.0-1.21","","319","","<div class='trialDiv'><img src='trustrating_stim/white_00120_931230_fa_edt.bmp'><br><font class='baseline'><strong>Michael</strong><p>Choose number of points to send.</font><div class='respPicDiv'><img src='img/responseButtonOffersNo0L.png' class='respPic'></div></div>","3","8","Michael","10","Shared","0.65,0.2","12","0.65","trustrating_stim/white_00120_931230_fa_edt.bmp","6.5","126","22"
"","","","decisionFB","63e55887d67a5c7e32a678fa","bdp_trlrn","Mon Mar 13 2023 13:18:48 GMT-0500 (Central Daylight Time)","654207","Trustworthy,Untrustworthy","html-keyboard-response","202","396852","0.0-19.0-2.21","","null","","<div class='trialDiv'><img src='trustrating_stim/white_00120_931230_fa_edt.bmp'><br><font class='baseline'><strong>Michael</strong><p>Choose number of points to send.</font><div class='respPicDiv'><img src='img/responseButtonOffersNo0L3.png' class='respPic'></div></div>","null","8","Michael","10","Shared","0.65,0.2","12","0.65","trustrating_stim/white_00120_931230_fa_edt.bmp","6.5","123","22"
"","","","feedback","63e55887d67a5c7e32a678fa","bdp_trlrn","Mon Mar 13 2023 13:18:48 GMT-0500 (Central Daylight Time)","654207","Trustworthy,Untrustworthy","html-keyboard-response","203","397858","0.0-19.0-3.21","","null","","<div class='trialDiv'><img src='trustrating_stim/white_00120_931230_fa_edt.bmp'><br><font class='baseline'><strong>Michael</strong><p>Received: <strong>12</strong></font> &nbsp; &nbsp; &nbsp; &nbsp; &nbsp; &nbsp;<font class='posOutcome'>Shared back: <strong>6</strong></font></font><div class='respPicDiv'><img src='img/responseButtonOffersNo0_wht.png' class='respPic'></div></div>","null","8","Michael","10","Shared","0.65,0.2","12","0.65","trustrating_stim/white_00120_931230_fa_edt.bmp","6.5","129","22"
"","","","decision","63e55887d67a5c7e32a678fa","bdp_trlrn","Mon Mar 13 2023 13:18:48 GMT-0500 (Central Daylight Time)","654207","Trustworthy,Untrustworthy","html-keyboard-response","204","398137","0.0-19.0-1.22","","278","","<div class='trialDiv'><img src='trustrating_stim/white_mw099.bmp'><br><font class='baseline'><strong>Sebastian</strong><p>Choose number of points to send.</font><div class='respPicDiv'><img src='img/responseButtonOffersNo0L.png' class='respPic'></div></div>","1","8","Sebastian","6","Shared","0.65,0.35","11","0.65","trustrating_stim/white_mw099.bmp","4","134","23"
"","","","decisionFB","63e55887d67a5c7e32a678fa","bdp_trlrn","Mon Mar 13 2023 13:18:48 GMT-0500 (Central Daylight Time)","654207","Trustworthy,Untrustworthy","html-keyboard-response","205","398390","0.0-19.0-2.22","","null","","<div class='trialDiv'><img src='trustrating_stim/white_mw099.bmp'><br><font class='baseline'><strong>Sebastian</strong><p>Choose number of points to send.</font><div class='respPicDiv'><img src='img/responseButtonOffersNo0L1.png' class='respPic'></div></div>","null","8","Sebastian","6","Shared","0.65,0.35","11","0.65","trustrating_stim/white_mw099.bmp","4","133","23"
"","","","feedback","63e55887d67a5c7e32a678fa","bdp_trlrn","Mon Mar 13 2023 13:18:48 GMT-0500 (Central Daylight Time)","654207","Trustworthy,Untrustworthy","html-keyboard-response","206","399393","0.0-19.0-3.22","","null","","<div class='trialDiv'><img src='trustrating_stim/white_mw099.bmp'><br><font class='baseline'><strong>Sebastian</strong><p>Received: <strong>4</strong></font> &nbsp; &nbsp; &nbsp; &nbsp; &nbsp; &nbsp;<font class='posOutcome'>Shared back: <strong>2</strong></font></font><div class='respPicDiv'><img src='img/responseButtonOffersNo0_wht.png' class='respPic'></div></div>","null","8","Sebastian","6","Shared","0.65,0.35","11","0.65","trustrating_stim/white_mw099.bmp","4","135","23"
"","","","decision","63e55887d67a5c7e32a678fa","bdp_trlrn","Mon Mar 13 2023 13:18:48 GMT-0500 (Central Daylight Time)","654207","Trustworthy,Untrustworthy","html-keyboard-response","207","400782","0.0-19.0-1.23","","1388","","<div class='trialDiv'><img src='trustrating_stim/white_00757_941201_fa_edt.bmp'><br><font class='baseline'><strong>Jonathan</strong><p>Choose number of points to send.</font><div class='respPicDiv'><img src='img/responseButtonOffersNo0L.png' class='respPic'></div></div>","5","8","Jonathan","2","Shared","0.35,0.8","9","0.35","trustrating_stim/white_00757_941201_fa_edt.bmp","2","140","24"
"","","","decisionFB","63e55887d67a5c7e32a678fa","bdp_trlrn","Mon Mar 13 2023 13:18:48 GMT-0500 (Central Daylight Time)","654207","Trustworthy,Untrustworthy","html-keyboard-response","208","401047","0.0-19.0-2.23","","null","","<div class='trialDiv'><img src='trustrating_stim/white_00757_941201_fa_edt.bmp'><br><font class='baseline'><strong>Jonathan</strong><p>Choose number of points to send.</font><div class='respPicDiv'><img src='img/responseButtonOffersNo0L5.png' class='respPic'></div></div>","null","8","Jonathan","2","Shared","0.35,0.8","9","0.35","trustrating_stim/white_00757_941201_fa_edt.bmp","2","135","24"
"","","","feedback","63e55887d67a5c7e32a678fa","bdp_trlrn","Mon Mar 13 2023 13:18:48 GMT-0500 (Central Daylight Time)","654207","Trustworthy,Untrustworthy","html-keyboard-response","209","402063","0.0-19.0-3.23","","null","","<div class='trialDiv'><img src='trustrating_stim/white_00757_941201_fa_edt.bmp'><br><font class='baseline'><strong>Jonathan</strong><p>Received: <strong>20</strong></font> &nbsp; &nbsp; &nbsp; &nbsp; &nbsp; &nbsp;<font class='posOutcome'>Shared back: <strong>10</strong></font></font><div class='respPicDiv'><img src='img/responseButtonOffersNo0_wht.png' class='respPic'></div></div>","null","8","Jonathan","2","Shared","0.35,0.8","9","0.35","trustrating_stim/white_00757_941201_fa_edt.bmp","2","145","24"
"","","","decision","63e55887d67a5c7e32a678fa","bdp_trlrn","Mon Mar 13 2023 13:18:48 GMT-0500 (Central Daylight Time)","654207","Trustworthy,Untrustworthy","html-keyboard-response","210","403765","0.0-19.0-1.24","","1701","","<div class='trialDiv'><img src='trustrating_stim/white_00120_931230_fa_edt.bmp'><br><font class='baseline'><strong>Michael</strong><p>Choose number of points to send.</font><div class='respPicDiv'><img src='img/responseButtonOffersNo0L.png' class='respPic'></div></div>","4","9","Michael","10","Shared","0.65,0.2","12","0.65","trustrating_stim/white_00120_931230_fa_edt.bmp","6.5","150","25"
"","","","decisionFB","63e55887d67a5c7e32a678fa","bdp_trlrn","Mon Mar 13 2023 13:18:48 GMT-0500 (Central Daylight Time)","654207","Trustworthy,Untrustworthy","html-keyboard-response","211","404030","0.0-19.0-2.24","","null","","<div class='trialDiv'><img src='trustrating_stim/white_00120_931230_fa_edt.bmp'><br><font class='baseline'><strong>Michael</strong><p>Choose number of points to send.</font><div class='respPicDiv'><img src='img/responseButtonOffersNo0L4.png' class='respPic'></div></div>","null","9","Michael","10","Shared","0.65,0.2","12","0.65","trustrating_stim/white_00120_931230_fa_edt.bmp","6.5","146","25"
"","","","feedback","63e55887d67a5c7e32a678fa","bdp_trlrn","Mon Mar 13 2023 13:18:48 GMT-0500 (Central Daylight Time)","654207","Trustworthy,Untrustworthy","html-keyboard-response","212","405045","0.0-19.0-3.24","","null","","<div class='trialDiv'><img src='trustrating_stim/white_00120_931230_fa_edt.bmp'><br><font class='baseline'><strong>Michael</strong><p>Received: <strong>16</strong></font> &nbsp; &nbsp; &nbsp; &nbsp; &nbsp; &nbsp;<font class='posOutcome'>Shared back: <strong>8</strong></font></font><div class='respPicDiv'><img src='img/responseButtonOffersNo0_wht.png' class='respPic'></div></div>","null","9","Michael","10","Shared","0.65,0.2","12","0.65","trustrating_stim/white_00120_931230_fa_edt.bmp","6.5","154","25"
"","","","decision","63e55887d67a5c7e32a678fa","bdp_trlrn","Mon Mar 13 2023 13:18:48 GMT-0500 (Central Daylight Time)","654207","Trustworthy,Untrustworthy","html-keyboard-response","213","405449","0.0-19.0-1.25","","403","","<div class='trialDiv'><img src='trustrating_stim/white_mw099.bmp'><br><font class='baseline'><strong>Sebastian</strong><p>Choose number of points to send.</font><div class='respPicDiv'><img src='img/responseButtonOffersNo0L.png' class='respPic'></div></div>","3","9","Sebastian","6","Shared","0.65,0.35","11","0.65","trustrating_stim/white_mw099.bmp","4","159","26"
"","","","decisionFB","63e55887d67a5c7e32a678fa","bdp_trlrn","Mon Mar 13 2023 13:18:48 GMT-0500 (Central Daylight Time)","654207","Trustworthy,Untrustworthy","html-keyboard-response","214","405704","0.0-19.0-2.25","","null","","<div class='trialDiv'><img src='trustrating_stim/white_mw099.bmp'><br><font class='baseline'><strong>Sebastian</strong><p>Choose number of points to send.</font><div class='respPicDiv'><img src='img/responseButtonOffersNo0L3.png' class='respPic'></div></div>","null","9","Sebastian","6","Shared","0.65,0.35","11","0.65","trustrating_stim/white_mw099.bmp","4","156","26"
"","","","feedback","63e55887d67a5c7e32a678fa","bdp_trlrn","Mon Mar 13 2023 13:18:48 GMT-0500 (Central Daylight Time)","654207","Trustworthy,Untrustworthy","html-keyboard-response","215","406713","0.0-19.0-3.25","","null","","<div class='trialDiv'><img src='trustrating_stim/white_mw099.bmp'><br><font class='baseline'><strong>Sebastian</strong><p>Received: <strong>12</strong></font> &nbsp; &nbsp; &nbsp; &nbsp; &nbsp; &nbsp;<font class='posOutcome'>Shared back: <strong>6</strong></font></font><div class='respPicDiv'><img src='img/responseButtonOffersNo0_wht.png' class='respPic'></div></div>","null","9","Sebastian","6","Shared","0.65,0.35","11","0.65","trustrating_stim/white_mw099.bmp","4","162","26"
"","","","decision","63e55887d67a5c7e32a678fa","bdp_trlrn","Mon Mar 13 2023 13:18:48 GMT-0500 (Central Daylight Time)","654207","Trustworthy,Untrustworthy","html-keyboard-response","216","406932","0.0-19.0-1.26","","219","","<div class='trialDiv'><img src='trustrating_stim/white_00757_941201_fa_edt.bmp'><br><font class='baseline'><strong>Jonathan</strong><p>Choose number of points to send.</font><div class='respPicDiv'><img src='img/responseButtonOffersNo0L.png' class='respPic'></div></div>","5","9","Jonathan","2","Shared","0.35,0.8","9","0.35","trustrating_stim/white_00757_941201_fa_edt.bmp","2","167","27"
"","","","decisionFB","63e55887d67a5c7e32a678fa","bdp_trlrn","Mon Mar 13 2023 13:18:48 GMT-0500 (Central Daylight Time)","654207","Trustworthy,Untrustworthy","html-keyboard-response","217","407196","0.0-19.0-2.26","","null","","<div class='trialDiv'><img src='trustrating_stim/white_00757_941201_fa_edt.bmp'><br><font class='baseline'><strong>Jonathan</strong><p>Choose number of points to send.</font><div class='respPicDiv'><img src='img/responseButtonOffersNo0L5.png' class='respPic'></div></div>","null","9","Jonathan","2","Shared","0.35,0.8","9","0.35","trustrating_stim/white_00757_941201_fa_edt.bmp","2","162","27"
"","","","feedback","63e55887d67a5c7e32a678fa","bdp_trlrn","Mon Mar 13 2023 13:18:48 GMT-0500 (Central Daylight Time)","654207","Trustworthy,Untrustworthy","html-keyboard-response","218","408205","0.0-19.0-3.26","","null","","<div class='trialDiv'><img src='trustrating_stim/white_00757_941201_fa_edt.bmp'><br><font class='baseline'><strong>Jonathan</strong><p>Received: <strong>20</strong></font> &nbsp; &nbsp; &nbsp; &nbsp; &nbsp; &nbsp;<font class='posOutcome'>Shared back: <strong>10</strong></font></font><div class='respPicDiv'><img src='img/responseButtonOffersNo0_wht.png' class='respPic'></div></div>","null","9","Jonathan","2","Shared","0.35,0.8","9","0.35","trustrating_stim/white_00757_941201_fa_edt.bmp","2","172","27"
"","","","decision","63e55887d67a5c7e32a678fa","bdp_trlrn","Mon Mar 13 2023 13:18:48 GMT-0500 (Central Daylight Time)","654207","Trustworthy,Untrustworthy","html-keyboard-response","219","408534","0.0-19.0-1.27","","328","","<div class='trialDiv'><img src='trustrating_stim/white_00120_931230_fa_edt.bmp'><br><font class='baseline'><strong>Michael</strong><p>Choose number of points to send.</font><div class='respPicDiv'><img src='img/responseButtonOffersNo0L.png' class='respPic'></div></div>","4","10","Michael","10","Kept","0.65,0.2","12","0.65","trustrating_stim/white_00120_931230_fa_edt.bmp","6.5","177","28"
