"trial_type","trial_index","time_elapsed","internal_node_id","subject_id","task","startTime","totalTime","labels","view_history","rt","event","trial","time","trialtype","success","stimulus","key_press","aground","name","faceID","outcome","agenttype","agentswpt","agentcurrpshare","face","avgRating","point_total","round"
"pavlovia","0","18","0.0-0.0","63d7b127485d5655e70c8282","bdp_trlrn","Mon Mar 13 2023 14:18:32 GMT-0400 (Eastern Daylight Time)","896440","Trustworthy,Untrustworthy","","","","","","","","","","","","","","","","","","","",""
"instructions","1","5282","0.0-1.0","63d7b127485d5655e70c8282","bdp_trlrn","Mon Mar 13 2023 14:18:32 GMT-0400 (Eastern Daylight Time)","896440","Trustworthy,Untrustworthy","[{""page_index"":0,""viewing_time"":5264}]","5264","","","","","","","","","","","","","","","","","",""
"","","","","63d7b127485d5655e70c8282","bdp_trlrn","Mon Mar 13 2023 14:18:32 GMT-0400 (Eastern Daylight Time)","896440","Trustworthy,Untrustworthy","","","fullscreenexit","2","11072","fullscreenexit","","","","","","","","","","","","","",""
"fullscreen","2","11522","0.0-2.0","63d7b127485d5655e70c8282","bdp_trlrn","Mon Mar 13 2023 14:18:32 GMT-0400 (Eastern Daylight Time)","896440","Trustworthy,Untrustworthy","","","","","","","true","","","","","","","","","","","","",""
"image-keyboard-response","3","16324","0.0-3.0-0.0","63d7b127485d5655e70c8282","bdp_trlrn","Mon Mar 13 2023 14:18:32 GMT-0400 (Eastern Daylight Time)","896440","Trustworthy,Untrustworthy","","4796","","","","fullscreenfail","","","32","","","","","","","","","","",""
"instructions","4","43470","0.0-4.0","63d7b127485d5655e70c8282","bdp_trlrn","Mon Mar 13 2023 14:18:32 GMT-0400 (Eastern Daylight Time)","896440","Trustworthy,Untrustworthy","[{""page_index"":0,""viewing_time"":18335},{""page_index"":1,""viewing_time"":8554}]","26890","","","","","","","","","","","","","","","","","",""
"instructions","5","44529","0.0-5.0","63d7b127485d5655e70c8282","bdp_trlrn","Mon Mar 13 2023 14:18:32 GMT-0400 (Eastern Daylight Time)","896440","Trustworthy,Untrustworthy","[{""page_index"":0,""viewing_time"":1057}]","1058","","","","","","","","","","","","","","","","","",""
"image-keyboard-response","6","48616","0.0-6.0-1.0","63d7b127485d5655e70c8282","bdp_trlrn","Mon Mar 13 2023 14:18:32 GMT-0400 (Eastern Daylight Time)","896440","Trustworthy,Untrustworthy","","3980","","","","rating","","trustrating_stim/white_mw035.bmp","6","","","","","","","","","","",""
"image-keyboard-response","7","48822","0.0-6.0-2.0","63d7b127485d5655e70c8282","bdp_trlrn","Mon Mar 13 2023 14:18:32 GMT-0400 (Eastern Daylight Time)","896440","Trustworthy,Untrustworthy","","null","","","","ratingFB","","trustrating_stim/white_mw035.bmp","null","","","","","","","","","","",""
"image-keyboard-response","8","50457","0.0-6.0-1.1","63d7b127485d5655e70c8282","bdp_trlrn","Mon Mar 13 2023 14:18:32 GMT-0400 (Eastern Daylight Time)","896440","Trustworthy,Untrustworthy","","1528","","","","rating","","trustrating_stim/white_00898_960530_fa_edt.bmp","6","","","","","","","","","","",""
"image-keyboard-response","9","50664","0.0-6.0-2.1","63d7b127485d5655e70c8282","bdp_trlrn","Mon Mar 13 2023 14:18:32 GMT-0400 (Eastern Daylight Time)","896440","Trustworthy,Untrustworthy","","null","","","","ratingFB","","trustrating_stim/white_00898_960530_fa_edt.bmp","null","","","","","","","","","","",""
"image-keyboard-response","10","52076","0.0-6.0-1.2","63d7b127485d5655e70c8282","bdp_trlrn","Mon Mar 13 2023 14:18:32 GMT-0400 (Eastern Daylight Time)","896440","Trustworthy,Untrustworthy","","1308","","","","rating","","trustrating_stim/white_mw033.bmp","6","","","","","","","","","","",""
"image-keyboard-response","11","52280","0.0-6.0-2.2","63d7b127485d5655e70c8282","bdp_trlrn","Mon Mar 13 2023 14:18:32 GMT-0400 (Eastern Daylight Time)","896440","Trustworthy,Untrustworthy","","null","","","","ratingFB","","trustrating_stim/white_mw033.bmp","null","","","","","","","","","","",""
"image-keyboard-response","12","53067","0.0-6.0-1.3","63d7b127485d5655e70c8282","bdp_trlrn","Mon Mar 13 2023 14:18:32 GMT-0400 (Eastern Daylight Time)","896440","Trustworthy,Untrustworthy","","680","","","","rating","","trustrating_stim/white_00223_940128_fb_edt.bmp","6","","","","","","","","","","",""
"image-keyboard-response","13","53269","0.0-6.0-2.3","63d7b127485d5655e70c8282","bdp_trlrn","Mon Mar 13 2023 14:18:32 GMT-0400 (Eastern Daylight Time)","896440","Trustworthy,Untrustworthy","","null","","","","ratingFB","","trustrating_stim/white_00223_940128_fb_edt.bmp","null","","","","","","","","","","",""
"image-keyboard-response","14","54246","0.0-6.0-1.4","63d7b127485d5655e70c8282","bdp_trlrn","Mon Mar 13 2023 14:18:32 GMT-0400 (Eastern Daylight Time)","896440","Trustworthy,Untrustworthy","","869","","","","rating","","trustrating_stim/white_00785_941205_fb_edt.bmp","6","","","","","","","","","","",""
"image-keyboard-response","15","54450","0.0-6.0-2.4","63d7b127485d5655e70c8282","bdp_trlrn","Mon Mar 13 2023 14:18:32 GMT-0400 (Eastern Daylight Time)","896440","Trustworthy,Untrustworthy","","null","","","","ratingFB","","trustrating_stim/white_00785_941205_fb_edt.bmp","null","","","","","","","","","","",""
"image-keyboard-response","16","55945","0.0-6.0-1.5","63d7b127485d5655e70c8282","bdp_trlrn","Mon Mar 13 2023 14:18:32 GMT-0400 (Eastern Daylight Time)","896440","Trustworthy,Untrustworthy","","1391","","","","rating","","trustrating_stim/white_mw084.bmp","6","","","","","","","","","","",""
"image-keyboard-response","17","56151","0.0-6.0-2.5","63d7b127485d5655e70c8282","bdp_trlrn","Mon Mar 13 2023 14:18:32 GMT-0400 (Eastern Daylight Time)","896440","Trustworthy,Untrustworthy","","null","","","","ratingFB","","trustrating_stim/white_mw084.bmp","null","","","","","","","","","","",""
"image-keyboard-response","18","57556","0.0-6.0-1.6","63d7b127485d5655e70c8282","bdp_trlrn","Mon Mar 13 2023 14:18:32 GMT-0400 (Eastern Daylight Time)","896440","Trustworthy,Untrustworthy","","1302","","","","rating","","trustrating_stim/white_mw063.bmp","6","","","","","","","","","","",""
"image-keyboard-response","19","57761","0.0-6.0-2.6","63d7b127485d5655e70c8282","bdp_trlrn","Mon Mar 13 2023 14:18:32 GMT-0400 (Eastern Daylight Time)","896440","Trustworthy,Untrustworthy","","null","","","","ratingFB","","trustrating_stim/white_mw063.bmp","null","","","","","","","","","","",""
"image-keyboard-response","20","58554","0.0-6.0-1.7","63d7b127485d5655e70c8282","bdp_trlrn","Mon Mar 13 2023 14:18:32 GMT-0400 (Eastern Daylight Time)","896440","Trustworthy,Untrustworthy","","685","","","","rating","","trustrating_stim/white_mw046.bmp","6","","","","","","","","","","",""
"image-keyboard-response","21","58756","0.0-6.0-2.7","63d7b127485d5655e70c8282","bdp_trlrn","Mon Mar 13 2023 14:18:32 GMT-0400 (Eastern Daylight Time)","896440","Trustworthy,Untrustworthy","","null","","","","ratingFB","","trustrating_stim/white_mw046.bmp","null","","","","","","","","","","",""
"image-keyboard-response","22","59472","0.0-6.0-1.8","63d7b127485d5655e70c8282","bdp_trlrn","Mon Mar 13 2023 14:18:32 GMT-0400 (Eastern Daylight Time)","896440","Trustworthy,Untrustworthy","","613","","","","rating","","trustrating_stim/white_mw066.bmp","6","","","","","","","","","","",""
"image-keyboard-response","23","59677","0.0-6.0-2.8","63d7b127485d5655e70c8282","bdp_trlrn","Mon Mar 13 2023 14:18:32 GMT-0400 (Eastern Daylight Time)","896440","Trustworthy,Untrustworthy","","null","","","","ratingFB","","trustrating_stim/white_mw066.bmp","null","","","","","","","","","","",""
"image-keyboard-response","24","60327","0.0-6.0-1.9","63d7b127485d5655e70c8282","bdp_trlrn","Mon Mar 13 2023 14:18:32 GMT-0400 (Eastern Daylight Time)","896440","Trustworthy,Untrustworthy","","545","","","","rating","","trustrating_stim/white_mw071.bmp","6","","","","","","","","","","",""
"image-keyboard-response","25","60532","0.0-6.0-2.9","63d7b127485d5655e70c8282","bdp_trlrn","Mon Mar 13 2023 14:18:32 GMT-0400 (Eastern Daylight Time)","896440","Trustworthy,Untrustworthy","","null","","","","ratingFB","","trustrating_stim/white_mw071.bmp","null","","","","","","","","","","",""
"image-keyboard-response","26","61772","0.0-6.0-1.10","63d7b127485d5655e70c8282","bdp_trlrn","Mon Mar 13 2023 14:18:32 GMT-0400 (Eastern Daylight Time)","896440","Trustworthy,Untrustworthy","","1134","","","","rating","","trustrating_stim/white_mw060.bmp","6","","","","","","","","","","",""
"image-keyboard-response","27","61975","0.0-6.0-2.10","63d7b127485d5655e70c8282","bdp_trlrn","Mon Mar 13 2023 14:18:32 GMT-0400 (Eastern Daylight Time)","896440","Trustworthy,Untrustworthy","","null","","","","ratingFB","","trustrating_stim/white_mw060.bmp","null","","","","","","","","","","",""
"image-keyboard-response","28","63165","0.0-6.0-1.11","63d7b127485d5655e70c8282","bdp_trlrn","Mon Mar 13 2023 14:18:32 GMT-0400 (Eastern Daylight Time)","896440","Trustworthy,Untrustworthy","","1088","","","","rating","","trustrating_stim/white_00761_941201_fb_edt.bmp","6","","","","","","","","","","",""
"image-keyboard-response","29","63368","0.0-6.0-2.11","63d7b127485d5655e70c8282","bdp_trlrn","Mon Mar 13 2023 14:18:32 GMT-0400 (Eastern Daylight Time)","896440","Trustworthy,Untrustworthy","","null","","","","ratingFB","","trustrating_stim/white_00761_941201_fb_edt.bmp","null","","","","","","","","","","",""
"image-keyboard-response","30","63948","0.0-6.0-1.12","63d7b127485d5655e70c8282","bdp_trlrn","Mon Mar 13 2023 14:18:32 GMT-0400 (Eastern Daylight Time)","896440","Trustworthy,Untrustworthy","","473","","","","rating","","trustrating_stim/white_00659_941121_fa_edt.bmp","6","","","","","","","","","","",""
"image-keyboard-response","31","64150","0.0-6.0-2.12","63d7b127485d5655e70c8282","bdp_trlrn","Mon Mar 13 2023 14:18:32 GMT-0400 (Eastern Daylight Time)","896440","Trustworthy,Untrustworthy","","null","","","","ratingFB","","trustrating_stim/white_00659_941121_fa_edt.bmp","null","","","","","","","","","","",""
"image-keyboard-response","32","64754","0.0-6.0-1.13","63d7b127485d5655e70c8282","bdp_trlrn","Mon Mar 13 2023 14:18:32 GMT-0400 (Eastern Daylight Time)","896440","Trustworthy,Untrustworthy","","500","","","","rating","","trustrating_stim/white_00602_940928_fb_edt.bmp","6","","","","","","","","","","",""
"image-keyboard-response","33","64960","0.0-6.0-2.13","63d7b127485d5655e70c8282","bdp_trlrn","Mon Mar 13 2023 14:18:32 GMT-0400 (Eastern Daylight Time)","896440","Trustworthy,Untrustworthy","","null","","","","ratingFB","","trustrating_stim/white_00602_940928_fb_edt.bmp","null","","","","","","","","","","",""
"image-keyboard-response","34","65508","0.0-6.0-1.14","63d7b127485d5655e70c8282","bdp_trlrn","Mon Mar 13 2023 14:18:32 GMT-0400 (Eastern Daylight Time)","896440","Trustworthy,Untrustworthy","","441","","","","rating","","trustrating_stim/white_00519_940519_fb_edt.bmp","6","","","","","","","","","","",""
"image-keyboard-response","35","65711","0.0-6.0-2.14","63d7b127485d5655e70c8282","bdp_trlrn","Mon Mar 13 2023 14:18:32 GMT-0400 (Eastern Daylight Time)","896440","Trustworthy,Untrustworthy","","null","","","","ratingFB","","trustrating_stim/white_00519_940519_fb_edt.bmp","null","","","","","","","","","","",""
"image-keyboard-response","36","66246","0.0-6.0-1.15","63d7b127485d5655e70c8282","bdp_trlrn","Mon Mar 13 2023 14:18:32 GMT-0400 (Eastern Daylight Time)","896440","Trustworthy,Untrustworthy","","431","","","","rating","","trustrating_stim/white_00299_940422_fa_edt.bmp","6","","","","","","","","","","",""
"image-keyboard-response","37","66453","0.0-6.0-2.15","63d7b127485d5655e70c8282","bdp_trlrn","Mon Mar 13 2023 14:18:32 GMT-0400 (Eastern Daylight Time)","896440","Trustworthy,Untrustworthy","","null","","","","ratingFB","","trustrating_stim/white_00299_940422_fa_edt.bmp","null","","","","","","","","","","",""
"image-keyboard-response","38","66949","0.0-6.0-1.16","63d7b127485d5655e70c8282","bdp_trlrn","Mon Mar 13 2023 14:18:32 GMT-0400 (Eastern Daylight Time)","896440","Trustworthy,Untrustworthy","","390","","","","rating","","trustrating_stim/white_00340_940422_fa_edt.bmp","6","","","","","","","","","","",""
"image-keyboard-response","39","67151","0.0-6.0-2.16","63d7b127485d5655e70c8282","bdp_trlrn","Mon Mar 13 2023 14:18:32 GMT-0400 (Eastern Daylight Time)","896440","Trustworthy,Untrustworthy","","null","","","","ratingFB","","trustrating_stim/white_00340_940422_fa_edt.bmp","null","","","","","","","","","","",""
"image-keyboard-response","40","67698","0.0-6.0-1.17","63d7b127485d5655e70c8282","bdp_trlrn","Mon Mar 13 2023 14:18:32 GMT-0400 (Eastern Daylight Time)","896440","Trustworthy,Untrustworthy","","441","","","","rating","","trustrating_stim/white_00109_931230_fa_edt.bmp","6","","","","","","","","","","",""
"image-keyboard-response","41","67904","0.0-6.0-2.17","63d7b127485d5655e70c8282","bdp_trlrn","Mon Mar 13 2023 14:18:32 GMT-0400 (Eastern Daylight Time)","896440","Trustworthy,Untrustworthy","","null","","","","ratingFB","","trustrating_stim/white_00109_931230_fa_edt.bmp","null","","","","","","","","","","",""
"image-keyboard-response","42","68412","0.0-6.0-1.18","63d7b127485d5655e70c8282","bdp_trlrn","Mon Mar 13 2023 14:18:32 GMT-0400 (Eastern Daylight Time)","896440","Trustworthy,Untrustworthy","","400","","","","rating","","trustrating_stim/white_00757_941201_fa_edt.bmp","6","","","","","","","","","","",""
"image-keyboard-response","43","68617","0.0-6.0-2.18","63d7b127485d5655e70c8282","bdp_trlrn","Mon Mar 13 2023 14:18:32 GMT-0400 (Eastern Daylight Time)","896440","Trustworthy,Untrustworthy","","null","","","","ratingFB","","trustrating_stim/white_00757_941201_fa_edt.bmp","null","","","","","","","","","","",""
"image-keyboard-response","44","69663","0.0-6.0-1.19","63d7b127485d5655e70c8282","bdp_trlrn","Mon Mar 13 2023 14:18:32 GMT-0400 (Eastern Daylight Time)","896440","Trustworthy,Untrustworthy","","940","","","","rating","","trustrating_stim/white_mw056.bmp","6","","","","","","","","","","",""
"image-keyboard-response","45","69864","0.0-6.0-2.19","63d7b127485d5655e70c8282","bdp_trlrn","Mon Mar 13 2023 14:18:32 GMT-0400 (Eastern Daylight Time)","896440","Trustworthy,Untrustworthy","","null","","","","ratingFB","","trustrating_stim/white_mw056.bmp","null","","","","","","","","","","",""
"image-keyboard-response","46","70534","0.0-6.0-1.20","63d7b127485d5655e70c8282","bdp_trlrn","Mon Mar 13 2023 14:18:32 GMT-0400 (Eastern Daylight Time)","896440","Trustworthy,Untrustworthy","","563","","","","rating","","trustrating_stim/white_mw048.bmp","6","","","","","","","","","","",""
"image-keyboard-response","47","70740","0.0-6.0-2.20","63d7b127485d5655e70c8282","bdp_trlrn","Mon Mar 13 2023 14:18:32 GMT-0400 (Eastern Daylight Time)","896440","Trustworthy,Untrustworthy","","null","","","","ratingFB","","trustrating_stim/white_mw048.bmp","null","","","","","","","","","","",""
"image-keyboard-response","48","71278","0.0-6.0-1.21","63d7b127485d5655e70c8282","bdp_trlrn","Mon Mar 13 2023 14:18:32 GMT-0400 (Eastern Daylight Time)","896440","Trustworthy,Untrustworthy","","428","","","","rating","","trustrating_stim/white_mw053.bmp","6","","","","","","","","","","",""
"image-keyboard-response","49","71483","0.0-6.0-2.21","63d7b127485d5655e70c8282","bdp_trlrn","Mon Mar 13 2023 14:18:32 GMT-0400 (Eastern Daylight Time)","896440","Trustworthy,Untrustworthy","","null","","","","ratingFB","","trustrating_stim/white_mw053.bmp","null","","","","","","","","","","",""
"image-keyboard-response","50","72181","0.0-6.0-1.22","63d7b127485d5655e70c8282","bdp_trlrn","Mon Mar 13 2023 14:18:32 GMT-0400 (Eastern Daylight Time)","896440","Trustworthy,Untrustworthy","","593","","","","rating","","trustrating_stim/white_00129_931230_fb_edt.bmp","6","","","","","","","","","","",""
"image-keyboard-response","51","72386","0.0-6.0-2.22","63d7b127485d5655e70c8282","bdp_trlrn","Mon Mar 13 2023 14:18:32 GMT-0400 (Eastern Daylight Time)","896440","Trustworthy,Untrustworthy","","null","","","","ratingFB","","trustrating_stim/white_00129_931230_fb_edt.bmp","null","","","","","","","","","","",""
"image-keyboard-response","52","73384","0.0-6.0-1.23","63d7b127485d5655e70c8282","bdp_trlrn","Mon Mar 13 2023 14:18:32 GMT-0400 (Eastern Daylight Time)","896440","Trustworthy,Untrustworthy","","891","","","","rating","","trustrating_stim/white_mw097.bmp","6","","","","","","","","","","",""
"image-keyboard-response","53","73590","0.0-6.0-2.23","63d7b127485d5655e70c8282","bdp_trlrn","Mon Mar 13 2023 14:18:32 GMT-0400 (Eastern Daylight Time)","896440","Trustworthy,Untrustworthy","","null","","","","ratingFB","","trustrating_stim/white_mw097.bmp","null","","","","","","","","","","",""
"image-keyboard-response","54","74083","0.0-6.0-1.24","63d7b127485d5655e70c8282","bdp_trlrn","Mon Mar 13 2023 14:18:32 GMT-0400 (Eastern Daylight Time)","896440","Trustworthy,Untrustworthy","","388","","","","rating","","trustrating_stim/white_mw099.bmp","6","","","","","","","","","","",""
"image-keyboard-response","55","74290","0.0-6.0-2.24","63d7b127485d5655e70c8282","bdp_trlrn","Mon Mar 13 2023 14:18:32 GMT-0400 (Eastern Daylight Time)","896440","Trustworthy,Untrustworthy","","null","","","","ratingFB","","trustrating_stim/white_mw099.bmp","null","","","","","","","","","","",""
"image-keyboard-response","56","74747","0.0-6.0-1.25","63d7b127485d5655e70c8282","bdp_trlrn","Mon Mar 13 2023 14:18:32 GMT-0400 (Eastern Daylight Time)","896440","Trustworthy,Untrustworthy","","348","","","","rating","","trustrating_stim/white_mw049.bmp","6","","","","","","","","","","",""
"image-keyboard-response","57","74953","0.0-6.0-2.25","63d7b127485d5655e70c8282","bdp_trlrn","Mon Mar 13 2023 14:18:32 GMT-0400 (Eastern Daylight Time)","896440","Trustworthy,Untrustworthy","","null","","","","ratingFB","","trustrating_stim/white_mw049.bmp","null","","","","","","","","","","",""
"image-keyboard-response","58","75405","0.0-6.0-1.26","63d7b127485d5655e70c8282","bdp_trlrn","Mon Mar 13 2023 14:18:32 GMT-0400 (Eastern Daylight Time)","896440","Trustworthy,Untrustworthy","","344","","","","rating","","trustrating_stim/white_00120_931230_fa_edt.bmp","6","","","","","","","","","","",""
"image-keyboard-response","59","75611","0.0-6.0-2.26","63d7b127485d5655e70c8282","bdp_trlrn","Mon Mar 13 2023 14:18:32 GMT-0400 (Eastern Daylight Time)","896440","Trustworthy,Untrustworthy","","null","","","","ratingFB","","trustrating_stim/white_00120_931230_fa_edt.bmp","null","","","","","","","","","","",""
"image-keyboard-response","60","76111","0.0-6.0-1.27","63d7b127485d5655e70c8282","bdp_trlrn","Mon Mar 13 2023 14:18:32 GMT-0400 (Eastern Daylight Time)","896440","Trustworthy,Untrustworthy","","392","","","","rating","","trustrating_stim/white_00807_941205_fb_edt.bmp","6","","","","","","","","","","",""
"image-keyboard-response","61","76317","0.0-6.0-2.27","63d7b127485d5655e70c8282","bdp_trlrn","Mon Mar 13 2023 14:18:32 GMT-0400 (Eastern Daylight Time)","896440","Trustworthy,Untrustworthy","","null","","","","ratingFB","","trustrating_stim/white_00807_941205_fb_edt.bmp","null","","","","","","","","","","",""
"image-keyboard-response","62","76759","0.0-6.0-1.28","63d7b127485d5655e70c8282","bdp_trlrn","Mon Mar 13 2023 14:18:32 GMT-0400 (Eastern Daylight Time)","896440","Trustworthy,Untrustworthy","","334","","","","rating","","trustrating_stim/white_mw089.bmp","6","","","","","","","","","","",""
"image-keyboard-response","63","76962","0.0-6.0-2.28","63d7b127485d5655e70c8282","bdp_trlrn","Mon Mar 13 2023 14:18:32 GMT-0400 (Eastern Daylight Time)","896440","Trustworthy,Untrustworthy","","null","","","","ratingFB","","trustrating_stim/white_mw089.bmp","null","","","","","","","","","","",""
"image-keyboard-response","64","77720","0.0-6.0-1.29","63d7b127485d5655e70c8282","bdp_trlrn","Mon Mar 13 2023 14:18:32 GMT-0400 (Eastern Daylight Time)","896440","Trustworthy,Untrustworthy","","656","","","","rating","","trustrating_stim/white_00577_940928_fa_edt.bmp","6","","","","","","","","","","",""
"image-keyboard-response","65","77924","0.0-6.0-2.29","63d7b127485d5655e70c8282","bdp_trlrn","Mon Mar 13 2023 14:18:32 GMT-0400 (Eastern Daylight Time)","896440","Trustworthy,Untrustworthy","","null","","","","ratingFB","","trustrating_stim/white_00577_940928_fa_edt.bmp","null","","","","","","","","","","",""
"image-keyboard-response","66","78575","0.0-6.0-1.30","63d7b127485d5655e70c8282","bdp_trlrn","Mon Mar 13 2023 14:18:32 GMT-0400 (Eastern Daylight Time)","896440","Trustworthy,Untrustworthy","","547","","","","rating","","trustrating_stim/white_00129_931230_fb_edt.bmp","7","","","","","","","","","","",""
"image-keyboard-response","67","78778","0.0-6.0-2.30","63d7b127485d5655e70c8282","bdp_trlrn","Mon Mar 13 2023 14:18:32 GMT-0400 (Eastern Daylight Time)","896440","Trustworthy,Untrustworthy","","null","","","","ratingFB","","trustrating_stim/white_00129_931230_fb_edt.bmp","null","","","","","","","","","","",""
"image-keyboard-response","68","79333","0.0-6.0-1.31","63d7b127485d5655e70c8282","bdp_trlrn","Mon Mar 13 2023 14:18:32 GMT-0400 (Eastern Daylight Time)","896440","Trustworthy,Untrustworthy","","446","","","","rating","","trustrating_stim/white_mw084.bmp","6","","","","","","","","","","",""
"image-keyboard-response","69","79539","0.0-6.0-2.31","63d7b127485d5655e70c8282","bdp_trlrn","Mon Mar 13 2023 14:18:32 GMT-0400 (Eastern Daylight Time)","896440","Trustworthy,Untrustworthy","","null","","","","ratingFB","","trustrating_stim/white_mw084.bmp","null","","","","","","","","","","",""
"image-keyboard-response","70","79990","0.0-6.0-1.32","63d7b127485d5655e70c8282","bdp_trlrn","Mon Mar 13 2023 14:18:32 GMT-0400 (Eastern Daylight Time)","896440","Trustworthy,Untrustworthy","","347","","","","rating","","trustrating_stim/white_00785_941205_fb_edt.bmp","6","","","","","","","","","","",""
"image-keyboard-response","71","80193","0.0-6.0-2.32","63d7b127485d5655e70c8282","bdp_trlrn","Mon Mar 13 2023 14:18:32 GMT-0400 (Eastern Daylight Time)","896440","Trustworthy,Untrustworthy","","null","","","","ratingFB","","trustrating_stim/white_00785_941205_fb_edt.bmp","null","","","","","","","","","","",""
"image-keyboard-response","72","80768","0.0-6.0-1.33","63d7b127485d5655e70c8282","bdp_trlrn","Mon Mar 13 2023 14:18:32 GMT-0400 (Eastern Daylight Time)","896440","Trustworthy,Untrustworthy","","471","","","","rating","","trustrating_stim/white_00120_931230_fa_edt.bmp","6","","","","","","","","","","",""
"image-keyboard-response","73","80975","0.0-6.0-2.33","63d7b127485d5655e70c8282","bdp_trlrn","Mon Mar 13 2023 14:18:32 GMT-0400 (Eastern Daylight Time)","896440","Trustworthy,Untrustworthy","","null","","","","ratingFB","","trustrating_stim/white_00120_931230_fa_edt.bmp","null","","","","","","","","","","",""
"image-keyboard-response","74","82484","0.0-6.0-1.34","63d7b127485d5655e70c8282","bdp_trlrn","Mon Mar 13 2023 14:18:32 GMT-0400 (Eastern Daylight Time)","896440","Trustworthy,Untrustworthy","","1401","","","","rating","","trustrating_stim/white_00761_941201_fb_edt.bmp","6","","","","","","","","","","",""
"image-keyboard-response","75","82690","0.0-6.0-2.34","63d7b127485d5655e70c8282","bdp_trlrn","Mon Mar 13 2023 14:18:32 GMT-0400 (Eastern Daylight Time)","896440","Trustworthy,Untrustworthy","","null","","","","ratingFB","","trustrating_stim/white_00761_941201_fb_edt.bmp","null","","","","","","","","","","",""
"image-keyboard-response","76","83287","0.0-6.0-1.35","63d7b127485d5655e70c8282","bdp_trlrn","Mon Mar 13 2023 14:18:32 GMT-0400 (Eastern Daylight Time)","896440","Trustworthy,Untrustworthy","","491","","","","rating","","trustrating_stim/white_00340_940422_fa_edt.bmp","6","","","","","","","","","","",""
"image-keyboard-response","77","83489","0.0-6.0-2.35","63d7b127485d5655e70c8282","bdp_trlrn","Mon Mar 13 2023 14:18:32 GMT-0400 (Eastern Daylight Time)","896440","Trustworthy,Untrustworthy","","null","","","","ratingFB","","trustrating_stim/white_00340_940422_fa_edt.bmp","null","","","","","","","","","","",""
"image-keyboard-response","78","83969","0.0-6.0-1.36","63d7b127485d5655e70c8282","bdp_trlrn","Mon Mar 13 2023 14:18:32 GMT-0400 (Eastern Daylight Time)","896440","Trustworthy,Untrustworthy","","373","","","","rating","","trustrating_stim/white_mw099.bmp","6","","","","","","","","","","",""
"image-keyboard-response","79","84174","0.0-6.0-2.36","63d7b127485d5655e70c8282","bdp_trlrn","Mon Mar 13 2023 14:18:32 GMT-0400 (Eastern Daylight Time)","896440","Trustworthy,Untrustworthy","","null","","","","ratingFB","","trustrating_stim/white_mw099.bmp","null","","","","","","","","","","",""
"image-keyboard-response","80","84539","0.0-6.0-1.37","63d7b127485d5655e70c8282","bdp_trlrn","Mon Mar 13 2023 14:18:32 GMT-0400 (Eastern Daylight Time)","896440","Trustworthy,Untrustworthy","","258","","","","rating","","trustrating_stim/white_mw035.bmp","6","","","","","","","","","","",""
"image-keyboard-response","81","84741","0.0-6.0-2.37","63d7b127485d5655e70c8282","bdp_trlrn","Mon Mar 13 2023 14:18:32 GMT-0400 (Eastern Daylight Time)","896440","Trustworthy,Untrustworthy","","null","","","","ratingFB","","trustrating_stim/white_mw035.bmp","null","","","","","","","","","","",""
"image-keyboard-response","82","85340","0.0-6.0-1.38","63d7b127485d5655e70c8282","bdp_trlrn","Mon Mar 13 2023 14:18:32 GMT-0400 (Eastern Daylight Time)","896440","Trustworthy,Untrustworthy","","493","","","","rating","","trustrating_stim/white_00898_960530_fa_edt.bmp","6","","","","","","","","","","",""
"image-keyboard-response","83","85544","0.0-6.0-2.38","63d7b127485d5655e70c8282","bdp_trlrn","Mon Mar 13 2023 14:18:32 GMT-0400 (Eastern Daylight Time)","896440","Trustworthy,Untrustworthy","","null","","","","ratingFB","","trustrating_stim/white_00898_960530_fa_edt.bmp","null","","","","","","","","","","",""
"image-keyboard-response","84","85982","0.0-6.0-1.39","63d7b127485d5655e70c8282","bdp_trlrn","Mon Mar 13 2023 14:18:32 GMT-0400 (Eastern Daylight Time)","896440","Trustworthy,Untrustworthy","","331","","","","rating","","trustrating_stim/white_00223_940128_fb_edt.bmp","6","","","","","","","","","","",""
"image-keyboard-response","85","86185","0.0-6.0-2.39","63d7b127485d5655e70c8282","bdp_trlrn","Mon Mar 13 2023 14:18:32 GMT-0400 (Eastern Daylight Time)","896440","Trustworthy,Untrustworthy","","null","","","","ratingFB","","trustrating_stim/white_00223_940128_fb_edt.bmp","null","","","","","","","","","","",""
"image-keyboard-response","86","86653","0.0-6.0-1.40","63d7b127485d5655e70c8282","bdp_trlrn","Mon Mar 13 2023 14:18:32 GMT-0400 (Eastern Daylight Time)","896440","Trustworthy,Untrustworthy","","363","","","","rating","","trustrating_stim/white_mw033.bmp","6","","","","","","","","","","",""
"image-keyboard-response","87","86861","0.0-6.0-2.40","63d7b127485d5655e70c8282","bdp_trlrn","Mon Mar 13 2023 14:18:32 GMT-0400 (Eastern Daylight Time)","896440","Trustworthy,Untrustworthy","","null","","","","ratingFB","","trustrating_stim/white_mw033.bmp","null","","","","","","","","","","",""
"image-keyboard-response","88","87351","0.0-6.0-1.41","63d7b127485d5655e70c8282","bdp_trlrn","Mon Mar 13 2023 14:18:32 GMT-0400 (Eastern Daylight Time)","896440","Trustworthy,Untrustworthy","","383","","","","rating","","trustrating_stim/white_00109_931230_fa_edt.bmp","6","","","","","","","","","","",""
"image-keyboard-response","89","87555","0.0-6.0-2.41","63d7b127485d5655e70c8282","bdp_trlrn","Mon Mar 13 2023 14:18:32 GMT-0400 (Eastern Daylight Time)","896440","Trustworthy,Untrustworthy","","null","","","","ratingFB","","trustrating_stim/white_00109_931230_fa_edt.bmp","null","","","","","","","","","","",""
"image-keyboard-response","90","88127","0.0-6.0-1.42","63d7b127485d5655e70c8282","bdp_trlrn","Mon Mar 13 2023 14:18:32 GMT-0400 (Eastern Daylight Time)","896440","Trustworthy,Untrustworthy","","468","","","","rating","","trustrating_stim/white_00602_940928_fb_edt.bmp","7","","","","","","","","","","",""
"image-keyboard-response","91","88330","0.0-6.0-2.42","63d7b127485d5655e70c8282","bdp_trlrn","Mon Mar 13 2023 14:18:32 GMT-0400 (Eastern Daylight Time)","896440","Trustworthy,Untrustworthy","","null","","","","ratingFB","","trustrating_stim/white_00602_940928_fb_edt.bmp","null","","","","","","","","","","",""
"image-keyboard-response","92","88802","0.0-6.0-1.43","63d7b127485d5655e70c8282","bdp_trlrn","Mon Mar 13 2023 14:18:32 GMT-0400 (Eastern Daylight Time)","896440","Trustworthy,Untrustworthy","","367","","","","rating","","trustrating_stim/white_mw089.bmp","6","","","","","","","","","","",""
"image-keyboard-response","93","89005","0.0-6.0-2.43","63d7b127485d5655e70c8282","bdp_trlrn","Mon Mar 13 2023 14:18:32 GMT-0400 (Eastern Daylight Time)","896440","Trustworthy,Untrustworthy","","null","","","","ratingFB","","trustrating_stim/white_mw089.bmp","null","","","","","","","","","","",""
"image-keyboard-response","94","89521","0.0-6.0-1.44","63d7b127485d5655e70c8282","bdp_trlrn","Mon Mar 13 2023 14:18:32 GMT-0400 (Eastern Daylight Time)","896440","Trustworthy,Untrustworthy","","407","","","","rating","","trustrating_stim/white_00299_940422_fa_edt.bmp","6","","","","","","","","","","",""
"image-keyboard-response","95","89728","0.0-6.0-2.44","63d7b127485d5655e70c8282","bdp_trlrn","Mon Mar 13 2023 14:18:32 GMT-0400 (Eastern Daylight Time)","896440","Trustworthy,Untrustworthy","","null","","","","ratingFB","","trustrating_stim/white_00299_940422_fa_edt.bmp","null","","","","","","","","","","",""
"image-keyboard-response","96","90282","0.0-6.0-1.45","63d7b127485d5655e70c8282","bdp_trlrn","Mon Mar 13 2023 14:18:32 GMT-0400 (Eastern Daylight Time)","896440","Trustworthy,Untrustworthy","","446","","","","rating","","trustrating_stim/white_mw071.bmp","7","","","","","","","","","","",""
"image-keyboard-response","97","90488","0.0-6.0-2.45","63d7b127485d5655e70c8282","bdp_trlrn","Mon Mar 13 2023 14:18:32 GMT-0400 (Eastern Daylight Time)","896440","Trustworthy,Untrustworthy","","null","","","","ratingFB","","trustrating_stim/white_mw071.bmp","null","","","","","","","","","","",""
"image-keyboard-response","98","91105","0.0-6.0-1.46","63d7b127485d5655e70c8282","bdp_trlrn","Mon Mar 13 2023 14:18:32 GMT-0400 (Eastern Daylight Time)","896440","Trustworthy,Untrustworthy","","511","","","","rating","","trustrating_stim/white_00757_941201_fa_edt.bmp","6","","","","","","","","","","",""
"image-keyboard-response","99","91309","0.0-6.0-2.46","63d7b127485d5655e70c8282","bdp_trlrn","Mon Mar 13 2023 14:18:32 GMT-0400 (Eastern Daylight Time)","896440","Trustworthy,Untrustworthy","","null","","","","ratingFB","","trustrating_stim/white_00757_941201_fa_edt.bmp","null","","","","","","","","","","",""
"image-keyboard-response","100","91855","0.0-6.0-1.47","63d7b127485d5655e70c8282","bdp_trlrn","Mon Mar 13 2023 14:18:32 GMT-0400 (Eastern Daylight Time)","896440","Trustworthy,Untrustworthy","","438","","","","rating","","trustrating_stim/white_00807_941205_fb_edt.bmp","6","","","","","","","","","","",""
"image-keyboard-response","101","92060","0.0-6.0-2.47","63d7b127485d5655e70c8282","bdp_trlrn","Mon Mar 13 2023 14:18:32 GMT-0400 (Eastern Daylight Time)","896440","Trustworthy,Untrustworthy","","null","","","","ratingFB","","trustrating_stim/white_00807_941205_fb_edt.bmp","null","","","","","","","","","","",""
"image-keyboard-response","102","92580","0.0-6.0-1.48","63d7b127485d5655e70c8282","bdp_trlrn","Mon Mar 13 2023 14:18:32 GMT-0400 (Eastern Daylight Time)","896440","Trustworthy,Untrustworthy","","415","","","","rating","","trustrating_stim/white_00659_941121_fa_edt.bmp","6","","","","","","","","","","",""
"image-keyboard-response","103","92786","0.0-6.0-2.48","63d7b127485d5655e70c8282","bdp_trlrn","Mon Mar 13 2023 14:18:32 GMT-0400 (Eastern Daylight Time)","896440","Trustworthy,Untrustworthy","","null","","","","ratingFB","","trustrating_stim/white_00659_941121_fa_edt.bmp","null","","","","","","","","","","",""
"image-keyboard-response","104","93434","0.0-6.0-1.49","63d7b127485d5655e70c8282","bdp_trlrn","Mon Mar 13 2023 14:18:32 GMT-0400 (Eastern Daylight Time)","896440","Trustworthy,Untrustworthy","","543","","","","rating","","trustrating_stim/white_mw066.bmp","6","","","","","","","","","","",""
"image-keyboard-response","105","93637","0.0-6.0-2.49","63d7b127485d5655e70c8282","bdp_trlrn","Mon Mar 13 2023 14:18:32 GMT-0400 (Eastern Daylight Time)","896440","Trustworthy,Untrustworthy","","null","","","","ratingFB","","trustrating_stim/white_mw066.bmp","null","","","","","","","","","","",""
"image-keyboard-response","106","94671","0.0-6.0-1.50","63d7b127485d5655e70c8282","bdp_trlrn","Mon Mar 13 2023 14:18:32 GMT-0400 (Eastern Daylight Time)","896440","Trustworthy,Untrustworthy","","926","","","","rating","","trustrating_stim/white_mw053.bmp","6","","","","","","","","","","",""
"image-keyboard-response","107","94874","0.0-6.0-2.50","63d7b127485d5655e70c8282","bdp_trlrn","Mon Mar 13 2023 14:18:32 GMT-0400 (Eastern Daylight Time)","896440","Trustworthy,Untrustworthy","","null","","","","ratingFB","","trustrating_stim/white_mw053.bmp","null","","","","","","","","","","",""
"image-keyboard-response","108","95795","0.0-6.0-1.51","63d7b127485d5655e70c8282","bdp_trlrn","Mon Mar 13 2023 14:18:32 GMT-0400 (Eastern Daylight Time)","896440","Trustworthy,Untrustworthy","","815","","","","rating","","trustrating_stim/white_00519_940519_fb_edt.bmp","6","","","","","","","","","","",""
"image-keyboard-response","109","96002","0.0-6.0-2.51","63d7b127485d5655e70c8282","bdp_trlrn","Mon Mar 13 2023 14:18:32 GMT-0400 (Eastern Daylight Time)","896440","Trustworthy,Untrustworthy","","null","","","","ratingFB","","trustrating_stim/white_00519_940519_fb_edt.bmp","null","","","","","","","","","","",""
"image-keyboard-response","110","96712","0.0-6.0-1.52","63d7b127485d5655e70c8282","bdp_trlrn","Mon Mar 13 2023 14:18:32 GMT-0400 (Eastern Daylight Time)","896440","Trustworthy,Untrustworthy","","603","","","","rating","","trustrating_stim/white_mw063.bmp","6","","","","","","","","","","",""
"image-keyboard-response","111","96913","0.0-6.0-2.52","63d7b127485d5655e70c8282","bdp_trlrn","Mon Mar 13 2023 14:18:32 GMT-0400 (Eastern Daylight Time)","896440","Trustworthy,Untrustworthy","","null","","","","ratingFB","","trustrating_stim/white_mw063.bmp","null","","","","","","","","","","",""
"image-keyboard-response","112","97437","0.0-6.0-1.53","63d7b127485d5655e70c8282","bdp_trlrn","Mon Mar 13 2023 14:18:32 GMT-0400 (Eastern Daylight Time)","896440","Trustworthy,Untrustworthy","","418","","","","rating","","trustrating_stim/white_mw060.bmp","6","","","","","","","","","","",""
"image-keyboard-response","113","97641","0.0-6.0-2.53","63d7b127485d5655e70c8282","bdp_trlrn","Mon Mar 13 2023 14:18:32 GMT-0400 (Eastern Daylight Time)","896440","Trustworthy,Untrustworthy","","null","","","","ratingFB","","trustrating_stim/white_mw060.bmp","null","","","","","","","","","","",""
"image-keyboard-response","114","98187","0.0-6.0-1.54","63d7b127485d5655e70c8282","bdp_trlrn","Mon Mar 13 2023 14:18:32 GMT-0400 (Eastern Daylight Time)","896440","Trustworthy,Untrustworthy","","440","","","","rating","","trustrating_stim/white_mw046.bmp","6","","","","","","","","","","",""
"image-keyboard-response","115","98394","0.0-6.0-2.54","63d7b127485d5655e70c8282","bdp_trlrn","Mon Mar 13 2023 14:18:32 GMT-0400 (Eastern Daylight Time)","896440","Trustworthy,Untrustworthy","","null","","","","ratingFB","","trustrating_stim/white_mw046.bmp","null","","","","","","","","","","",""
"image-keyboard-response","116","98900","0.0-6.0-1.55","63d7b127485d5655e70c8282","bdp_trlrn","Mon Mar 13 2023 14:18:32 GMT-0400 (Eastern Daylight Time)","896440","Trustworthy,Untrustworthy","","399","","","","rating","","trustrating_stim/white_mw056.bmp","6","","","","","","","","","","",""
"image-keyboard-response","117","99104","0.0-6.0-2.55","63d7b127485d5655e70c8282","bdp_trlrn","Mon Mar 13 2023 14:18:32 GMT-0400 (Eastern Daylight Time)","896440","Trustworthy,Untrustworthy","","null","","","","ratingFB","","trustrating_stim/white_mw056.bmp","null","","","","","","","","","","",""
"image-keyboard-response","118","101657","0.0-6.0-1.56","63d7b127485d5655e70c8282","bdp_trlrn","Mon Mar 13 2023 14:18:32 GMT-0400 (Eastern Daylight Time)","896440","Trustworthy,Untrustworthy","","2448","","","","rating","","trustrating_stim/white_mw049.bmp","6","","","","","","","","","","",""
"image-keyboard-response","119","101864","0.0-6.0-2.56","63d7b127485d5655e70c8282","bdp_trlrn","Mon Mar 13 2023 14:18:32 GMT-0400 (Eastern Daylight Time)","896440","Trustworthy,Untrustworthy","","null","","","","ratingFB","","trustrating_stim/white_mw049.bmp","null","","","","","","","","","","",""
"image-keyboard-response","120","102620","0.0-6.0-1.57","63d7b127485d5655e70c8282","bdp_trlrn","Mon Mar 13 2023 14:18:32 GMT-0400 (Eastern Daylight Time)","896440","Trustworthy,Untrustworthy","","646","","","","rating","","trustrating_stim/white_00577_940928_fa_edt.bmp","6","","","","","","","","","","",""
"image-keyboard-response","121","102828","0.0-6.0-2.57","63d7b127485d5655e70c8282","bdp_trlrn","Mon Mar 13 2023 14:18:32 GMT-0400 (Eastern Daylight Time)","896440","Trustworthy,Untrustworthy","","null","","","","ratingFB","","trustrating_stim/white_00577_940928_fa_edt.bmp","null","","","","","","","","","","",""
"image-keyboard-response","122","103623","0.0-6.0-1.58","63d7b127485d5655e70c8282","bdp_trlrn","Mon Mar 13 2023 14:18:32 GMT-0400 (Eastern Daylight Time)","896440","Trustworthy,Untrustworthy","","686","","","","rating","","trustrating_stim/white_mw048.bmp","6","","","","","","","","","","",""
"image-keyboard-response","123","103824","0.0-6.0-2.58","63d7b127485d5655e70c8282","bdp_trlrn","Mon Mar 13 2023 14:18:32 GMT-0400 (Eastern Daylight Time)","896440","Trustworthy,Untrustworthy","","null","","","","ratingFB","","trustrating_stim/white_mw048.bmp","null","","","","","","","","","","",""
"image-keyboard-response","124","104705","0.0-6.0-1.59","63d7b127485d5655e70c8282","bdp_trlrn","Mon Mar 13 2023 14:18:32 GMT-0400 (Eastern Daylight Time)","896440","Trustworthy,Untrustworthy","","774","","","","rating","","trustrating_stim/white_mw097.bmp","6","","","","","","","","","","",""
"image-keyboard-response","125","104912","0.0-6.0-2.59","63d7b127485d5655e70c8282","bdp_trlrn","Mon Mar 13 2023 14:18:32 GMT-0400 (Eastern Daylight Time)","896440","Trustworthy,Untrustworthy","","null","","","","ratingFB","","trustrating_stim/white_mw097.bmp","null","","","","","","","","","","",""
"instructions","126","107765","0.0-7.0","63d7b127485d5655e70c8282","bdp_trlrn","Mon Mar 13 2023 14:18:32 GMT-0400 (Eastern Daylight Time)","896440","Trustworthy,Untrustworthy","[{""page_index"":0,""viewing_time"":2746}]","2746","","","","","","","","","","","","","","","","","",""
"instructions","127","197267","0.0-8.0","63d7b127485d5655e70c8282","bdp_trlrn","Mon Mar 13 2023 14:18:32 GMT-0400 (Eastern Daylight Time)","896440","Trustworthy,Untrustworthy","[{""page_index"":0,""viewing_time"":24084},{""page_index"":1,""viewing_time"":12793},{""page_index"":2,""viewing_time"":6467},{""page_index"":3,""viewing_time"":8130},{""page_index"":4,""viewing_time"":2302},{""page_index"":5,""viewing_time"":6286},{""page_index"":6,""viewing_time"":17944},{""page_index"":7,""viewing_time"":11394}]","89400","","","","","","","","","","","","","","","","","",""
"html-keyboard-response","128","204060","0.0-9.0","63d7b127485d5655e70c8282","bdp_trlrn","Mon Mar 13 2023 14:18:32 GMT-0400 (Eastern Daylight Time)","896440","Trustworthy,Untrustworthy","","6789","","","","","","<div class='header' style='text-align:left; position: absolute; top: 5%; left: 5%;'><small>Task 2 of 5</small></div><div class='instruxDiv'><p><strong>1) What is the minimum number of points you can choose to send to your partner?</strong></p><p>a) 0</p><p>b) 1</p><p>c) 5</p>","C","","","","","","","","","","",""
"html-keyboard-response","129","207128","0.0-10.0","63d7b127485d5655e70c8282","bdp_trlrn","Mon Mar 13 2023 14:18:32 GMT-0400 (Eastern Daylight Time)","896440","Trustworthy,Untrustworthy","","2961","","","","","","<div class='header' style='text-align:left; position: absolute; top: 5%; left: 5%;'><small>Task 2 of 5</small></div><div class='instruxDiv'><p><strong>1) What is the minimum number of points you can choose to send to your partner?</strong></p><p>a) 1</p><p>b) 1</p><p style='color:#FF0000'>c) 5</p><h3 style='color:#FF0000'>Incorrect!</h3><h3 class='center-content'>The correct response is b).</h3><h3 class='center-content'>The minimum number of points you can choose to send to your partner is 1 point.</h3><p><em>Press SPACEBAR to continue</em></p></div>"," ","","","","","","","","","","",""
"html-keyboard-response","130","210841","0.0-11.0","63d7b127485d5655e70c8282","bdp_trlrn","Mon Mar 13 2023 14:18:32 GMT-0400 (Eastern Daylight Time)","896440","Trustworthy,Untrustworthy","","3606","","","","","","<div class='header' style='text-align:left; position: absolute; top: 5%; left: 5%;'><small>Task 2 of 5</small></div><div class='instruxDiv'><p><strong>2) What is the maximum number of points you can choose to send to your partner?</strong></p><p>a) 8</p><p>b) 5</p><p>c) 3</p>","B","","","","","","","","","","",""
"html-keyboard-response","131","214531","0.0-12.0","63d7b127485d5655e70c8282","bdp_trlrn","Mon Mar 13 2023 14:18:32 GMT-0400 (Eastern Daylight Time)","896440","Trustworthy,Untrustworthy","","3583","","","","","","<div class='header' style='text-align:left; position: absolute; top: 5%; left: 5%;'><small>Task 2 of 5</small></div><div class='instruxDiv'><p><strong>2) What is the maximum number of points you can choose to send to your partner?</strong></p><p>a) 8</p><p style='color:#00FF00'>b) 5</p><p>c) 3</p><h3 style='color:#00FF00'>Correct!</h3><h3 class='center-content'>The correct response is b).</h3><h3 class='center-content'>The maximum number of points you can choose to send to your partner is 5 points.</h3><p><em>Press SPACEBAR to continue</em></p></div>"," ","","","","","","","","","","",""
"html-keyboard-response","132","218773","0.0-13.0","63d7b127485d5655e70c8282","bdp_trlrn","Mon Mar 13 2023 14:18:32 GMT-0400 (Eastern Daylight Time)","896440","Trustworthy,Untrustworthy","","4136","","","","","","<div class='header' style='text-align:left; position: absolute; top: 5%; left: 5%;'><small>Task 2 of 5</small></div><div class='instruxDiv'><p><strong>3) What happens to the amount of points you send to your partner?</strong></p><p>a) Nothing</p><p>b) It doubles</p><p>c) It quadruples</p>","C","","","","","","","","","","",""
"html-keyboard-response","133","220279","0.0-14.0","63d7b127485d5655e70c8282","bdp_trlrn","Mon Mar 13 2023 14:18:32 GMT-0400 (Eastern Daylight Time)","896440","Trustworthy,Untrustworthy","","1403","","","","","","<div class='header' style='text-align:left; position: absolute; top: 5%; left: 5%;'><small>Task 2 of 5</small></div><div class='instruxDiv'><p><strong>3) What happens to the amount of points you send to your partner?</strong></p><p>a) Nothing</p><p>b) It doubles</p><p style='color:#00FF00'>c) It quadruples</p><h3 style='color:#00FF00'>Correct!</h3><h3 class='center-content'>The correct response is c).</h3><h3 class='center-content'>The amount of points you send to your partner quadruples.</h3><p><em>Press SPACEBAR to continue</em></p></div>"," ","","","","","","","","","","",""
"html-keyboard-response","134","227601","0.0-15.0","63d7b127485d5655e70c8282","bdp_trlrn","Mon Mar 13 2023 14:18:32 GMT-0400 (Eastern Daylight Time)","896440","Trustworthy,Untrustworthy","","7217","","","","","","<div class='header' style='text-align:left; position: absolute; top: 5%; left: 5%;'><small>Task 2 of 5</small></div><div class='instruxDiv'><p><strong>4) If you decided to share 4 out of 5 points with your partner, and they decided to share half of the amount they received with you, how many points would you receive back from them on this round?</strong></p><p>a) 16</p><p>b) 0</p><p>c) 8</p>","C","","","","","","","","","","",""
"html-keyboard-response","135","230131","0.0-16.0","63d7b127485d5655e70c8282","bdp_trlrn","Mon Mar 13 2023 14:18:32 GMT-0400 (Eastern Daylight Time)","896440","Trustworthy,Untrustworthy","","2421","","","","","","<div class='header' style='text-align:left; position: absolute; top: 5%; left: 5%;'><small>Task 2 of 5</small></div><div class='instruxDiv'><p><strong>4) If you decided to share 4 out of 5 points with your partner, and they decided to share half of the amount they received with you, how many points would you receive back from them on this round?</strong></p><p>a) 16</p><p>b) 0</p><p style='color:#00FF00'>c) 8</p><h3 style='color:#00FF00'>Correct!</h3><h3 class='center-content'>The correct response is c).</h3><h3 class='center-content'>If you shared 4 out of 5 points with your partner and they decided to share half of the amount they received with you, you would receive 8 points back (i.e. (4 x 4)/2 = 8).</h3><p><em>Press SPACEBAR to continue</em></p></div>"," ","","","","","","","","","","",""
"html-keyboard-response","136","235242","0.0-17.0","63d7b127485d5655e70c8282","bdp_trlrn","Mon Mar 13 2023 14:18:32 GMT-0400 (Eastern Daylight Time)","896440","Trustworthy,Untrustworthy","","null","","","","","","<div class='header' style='text-align:left; position: absolute; top: 5%; left: 5%;'><small>Task 2 of 5</small></div><div class='instruxDiv'><p>Thank you for completing the quiz<p>These are the actual partners you will be interacting with in the next block:<p><div class='tc' align='center'><img class='introPic' src='trustrating_stim/white_00519_940519_fb_edt.bmp'><br><strong>Ryan</strong></div><div class='bl' align='center'><img class='introPic' src='trustrating_stim/white_mw063.bmp'><br><strong>Brian</strong></div><div class='br' align='center'><img class='introPic' src='trustrating_stim/white_mw071.bmp'><br><strong>Gavin</strong></div></div><p>Across <strong>66 rounds</strong> you will interact with each partner <strong>22 times</strong> (in random order).<p style='align:center; color:white'><font <em>Press SPACEBAR to continue</em></p>","null","","","","","","","","","","",""
"instructions","137","240896","0.0-18.0","63d7b127485d5655e70c8282","bdp_trlrn","Mon Mar 13 2023 14:18:32 GMT-0400 (Eastern Daylight Time)","896440","Trustworthy,Untrustworthy","[{""page_index"":0,""viewing_time"":4353},{""page_index"":1,""viewing_time"":1299}]","5653","","","","","","","","","","","","","","","","","",""
"html-keyboard-response","138","244370","0.0-19.0-1.0","63d7b127485d5655e70c8282","bdp_trlrn","Mon Mar 13 2023 14:18:32 GMT-0400 (Eastern Daylight Time)","896440","Trustworthy,Untrustworthy","","3370","","","","decision","","<div class='trialDiv'><img src='trustrating_stim/white_mw071.bmp'><br><font class='baseline'><strong>Gavin</strong><p>Choose number of points to send.</font><div class='respPicDiv'><img src='img/responseButtonOffersNo0L.png' class='respPic'></div></div>","4","1","Gavin","10","Kept","0.35,0.8","14","0.35","trustrating_stim/white_mw071.bmp","6.5","5","1"
"html-keyboard-response","139","244627","0.0-19.0-2.0","63d7b127485d5655e70c8282","bdp_trlrn","Mon Mar 13 2023 14:18:32 GMT-0400 (Eastern Daylight Time)","896440","Trustworthy,Untrustworthy","","null","","","","decisionFB","","<div class='trialDiv'><img src='trustrating_stim/white_mw071.bmp'><br><font class='baseline'><strong>Gavin</strong><p>Choose number of points to send.</font><div class='respPicDiv'><img src='img/responseButtonOffersNo0L4.png' class='respPic'></div></div>","null","1","Gavin","10","Kept","0.35,0.8","14","0.35","trustrating_stim/white_mw071.bmp","6.5","1","1"
"html-keyboard-response","140","245632","0.0-19.0-3.0","63d7b127485d5655e70c8282","bdp_trlrn","Mon Mar 13 2023 14:18:32 GMT-0400 (Eastern Daylight Time)","896440","Trustworthy,Untrustworthy","","null","","","","feedback","","<div class='trialDiv'><img src='trustrating_stim/white_mw071.bmp'><br><font class='baseline'><strong>Gavin</strong><p>Received: <strong>16</strong></font> &nbsp; &nbsp; &nbsp; &nbsp; &nbsp; &nbsp;<font class='negOutcome'>Shared back: <strong>0</strong></font></font><div class='respPicDiv'><img src='img/responseButtonOffersNo0_wht.png' class='respPic'></div></div>","null","1","Gavin","10","Kept","0.35,0.8","14","0.35","trustrating_stim/white_mw071.bmp","6.5","1","1"
"html-keyboard-response","141","248006","0.0-19.0-1.1","63d7b127485d5655e70c8282","bdp_trlrn","Mon Mar 13 2023 14:18:32 GMT-0400 (Eastern Daylight Time)","896440","Trustworthy,Untrustworthy","","2373","","","","decision","","<div class='trialDiv'><img src='trustrating_stim/white_mw063.bmp'><br><font class='baseline'><strong>Brian</strong><p>Choose number of points to send.</font><div class='respPicDiv'><img src='img/responseButtonOffersNo0L.png' class='respPic'></div></div>","4","1","Brian","4","Kept","0.65,0.35","8","0.65","trustrating_stim/white_mw063.bmp","6","6","2"
"html-keyboard-response","142","248264","0.0-19.0-2.1","63d7b127485d5655e70c8282","bdp_trlrn","Mon Mar 13 2023 14:18:32 GMT-0400 (Eastern Daylight Time)","896440","Trustworthy,Untrustworthy","","null","","","","decisionFB","","<div class='trialDiv'><img src='trustrating_stim/white_mw063.bmp'><br><font class='baseline'><strong>Brian</strong><p>Choose number of points to send.</font><div class='respPicDiv'><img src='img/responseButtonOffersNo0L4.png' class='respPic'></div></div>","null","1","Brian","4","Kept","0.65,0.35","8","0.65","trustrating_stim/white_mw063.bmp","6","2","2"
"html-keyboard-response","143","249265","0.0-19.0-3.1","63d7b127485d5655e70c8282","bdp_trlrn","Mon Mar 13 2023 14:18:32 GMT-0400 (Eastern Daylight Time)","896440","Trustworthy,Untrustworthy","","null","","","","feedback","","<div class='trialDiv'><img src='trustrating_stim/white_mw063.bmp'><br><font class='baseline'><strong>Brian</strong><p>Received: <strong>16</strong></font> &nbsp; &nbsp; &nbsp; &nbsp; &nbsp; &nbsp;<font class='negOutcome'>Shared back: <strong>0</strong></font></font><div class='respPicDiv'><img src='img/responseButtonOffersNo0_wht.png' class='respPic'></div></div>","null","1","Brian","4","Kept","0.65,0.35","8","0.65","trustrating_stim/white_mw063.bmp","6","2","2"
"html-keyboard-response","144","249898","0.0-19.0-1.2","63d7b127485d5655e70c8282","bdp_trlrn","Mon Mar 13 2023 14:18:32 GMT-0400 (Eastern Daylight Time)","896440","Trustworthy,Untrustworthy","","631","","","","decision","","<div class='trialDiv'><img src='trustrating_stim/white_00519_940519_fb_edt.bmp'><br><font class='baseline'><strong>Ryan</strong><p>Choose number of points to send.</font><div class='respPicDiv'><img src='img/responseButtonOffersNo0L.png' class='respPic'></div></div>","4","1","Ryan","0","Shared","0.8,0.35","12","0.8","trustrating_stim/white_00519_940519_fb_edt.bmp","6","7","3"
"html-keyboard-response","145","250154","0.0-19.0-2.2","63d7b127485d5655e70c8282","bdp_trlrn","Mon Mar 13 2023 14:18:32 GMT-0400 (Eastern Daylight Time)","896440","Trustworthy,Untrustworthy","","null","","","","decisionFB","","<div class='trialDiv'><img src='trustrating_stim/white_00519_940519_fb_edt.bmp'><br><font class='baseline'><strong>Ryan</strong><p>Choose number of points to send.</font><div class='respPicDiv'><img src='img/responseButtonOffersNo0L4.png' class='respPic'></div></div>","null","1","Ryan","0","Shared","0.8,0.35","12","0.8","trustrating_stim/white_00519_940519_fb_edt.bmp","6","3","3"
"html-keyboard-response","146","251158","0.0-19.0-3.2","63d7b127485d5655e70c8282","bdp_trlrn","Mon Mar 13 2023 14:18:32 GMT-0400 (Eastern Daylight Time)","896440","Trustworthy,Untrustworthy","","null","","","","feedback","","<div class='trialDiv'><img src='trustrating_stim/white_00519_940519_fb_edt.bmp'><br><font class='baseline'><strong>Ryan</strong><p>Received: <strong>16</strong></font> &nbsp; &nbsp; &nbsp; &nbsp; &nbsp; &nbsp;<font class='posOutcome'>Shared back: <strong>8</strong></font></font><div class='respPicDiv'><img src='img/responseButtonOffersNo0_wht.png' class='respPic'></div></div>","null","1","Ryan","0","Shared","0.8,0.35","12","0.8","trustrating_stim/white_00519_940519_fb_edt.bmp","6","11","3"
"html-keyboard-response","147","253524","0.0-19.0-1.3","63d7b127485d5655e70c8282","bdp_trlrn","Mon Mar 13 2023 14:18:32 GMT-0400 (Eastern Daylight Time)","896440","Trustworthy,Untrustworthy","","2365","","","","decision","","<div class='trialDiv'><img src='trustrating_stim/white_mw071.bmp'><br><font class='baseline'><strong>Gavin</strong><p>Choose number of points to send.</font><div class='respPicDiv'><img src='img/responseButtonOffersNo0L.png' class='respPic'></div></div>","2","2","Gavin","10","Shared","0.35,0.8","14","0.35","trustrating_stim/white_mw071.bmp","6.5","16","4"
"html-keyboard-response","148","253776","0.0-19.0-2.3","63d7b127485d5655e70c8282","bdp_trlrn","Mon Mar 13 2023 14:18:32 GMT-0400 (Eastern Daylight Time)","896440","Trustworthy,Untrustworthy","","null","","","","decisionFB","","<div class='trialDiv'><img src='trustrating_stim/white_mw071.bmp'><br><font class='baseline'><strong>Gavin</strong><p>Choose number of points to send.</font><div class='respPicDiv'><img src='img/responseButtonOffersNo0L2.png' class='respPic'></div></div>","null","2","Gavin","10","Shared","0.35,0.8","14","0.35","trustrating_stim/white_mw071.bmp","6.5","14","4"
"html-keyboard-response","149","254783","0.0-19.0-3.3","63d7b127485d5655e70c8282","bdp_trlrn","Mon Mar 13 2023 14:18:32 GMT-0400 (Eastern Daylight Time)","896440","Trustworthy,Untrustworthy","","null","","","","feedback","","<div class='trialDiv'><img src='trustrating_stim/white_mw071.bmp'><br><font class='baseline'><strong>Gavin</strong><p>Received: <strong>8</strong></font> &nbsp; &nbsp; &nbsp; &nbsp; &nbsp; &nbsp;<font class='posOutcome'>Shared back: <strong>4</strong></font></font><div class='respPicDiv'><img src='img/responseButtonOffersNo0_wht.png' class='respPic'></div></div>","null","2","Gavin","10","Shared","0.35,0.8","14","0.35","trustrating_stim/white_mw071.bmp","6.5","18","4"
"html-keyboard-response","150","256695","0.0-19.0-1.4","63d7b127485d5655e70c8282","bdp_trlrn","Mon Mar 13 2023 14:18:32 GMT-0400 (Eastern Daylight Time)","896440","Trustworthy,Untrustworthy","","1910","","","","decision","","<div class='trialDiv'><img src='trustrating_stim/white_mw063.bmp'><br><font class='baseline'><strong>Brian</strong><p>Choose number of points to send.</font><div class='respPicDiv'><img src='img/responseButtonOffersNo0L.png' class='respPic'></div></div>","4","2","Brian","4","Kept","0.65,0.35","8","0.65","trustrating_stim/white_mw063.bmp","6","23","5"
"html-keyboard-response","151","256952","0.0-19.0-2.4","63d7b127485d5655e70c8282","bdp_trlrn","Mon Mar 13 2023 14:18:32 GMT-0400 (Eastern Daylight Time)","896440","Trustworthy,Untrustworthy","","null","","","","decisionFB","","<div class='trialDiv'><img src='trustrating_stim/white_mw063.bmp'><br><font class='baseline'><strong>Brian</strong><p>Choose number of points to send.</font><div class='respPicDiv'><img src='img/responseButtonOffersNo0L4.png' class='respPic'></div></div>","null","2","Brian","4","Kept","0.65,0.35","8","0.65","trustrating_stim/white_mw063.bmp","6","19","5"
"html-keyboard-response","152","257958","0.0-19.0-3.4","63d7b127485d5655e70c8282","bdp_trlrn","Mon Mar 13 2023 14:18:32 GMT-0400 (Eastern Daylight Time)","896440","Trustworthy,Untrustworthy","","null","","","","feedback","","<div class='trialDiv'><img src='trustrating_stim/white_mw063.bmp'><br><font class='baseline'><strong>Brian</strong><p>Received: <strong>16</strong></font> &nbsp; &nbsp; &nbsp; &nbsp; &nbsp; &nbsp;<font class='negOutcome'>Shared back: <strong>0</strong></font></font><div class='respPicDiv'><img src='img/responseButtonOffersNo0_wht.png' class='respPic'></div></div>","null","2","Brian","4","Kept","0.65,0.35","8","0.65","trustrating_stim/white_mw063.bmp","6","19","5"
"html-keyboard-response","153","260573","0.0-19.0-1.5","63d7b127485d5655e70c8282","bdp_trlrn","Mon Mar 13 2023 14:18:32 GMT-0400 (Eastern Daylight Time)","896440","Trustworthy,Untrustworthy","","2614","","","","decision","","<div class='trialDiv'><img src='trustrating_stim/white_00519_940519_fb_edt.bmp'><br><font class='baseline'><strong>Ryan</strong><p>Choose number of points to send.</font><div class='respPicDiv'><img src='img/responseButtonOffersNo0L.png' class='respPic'></div></div>","5","2","Ryan","0","Shared","0.8,0.35","12","0.8","trustrating_stim/white_00519_940519_fb_edt.bmp","6","24","6"
"html-keyboard-response","154","260829","0.0-19.0-2.5","63d7b127485d5655e70c8282","bdp_trlrn","Mon Mar 13 2023 14:18:32 GMT-0400 (Eastern Daylight Time)","896440","Trustworthy,Untrustworthy","","null","","","","decisionFB","","<div class='trialDiv'><img src='trustrating_stim/white_00519_940519_fb_edt.bmp'><br><font class='baseline'><strong>Ryan</strong><p>Choose number of points to send.</font><div class='respPicDiv'><img src='img/responseButtonOffersNo0L5.png' class='respPic'></div></div>","null","2","Ryan","0","Shared","0.8,0.35","12","0.8","trustrating_stim/white_00519_940519_fb_edt.bmp","6","19","6"
"html-keyboard-response","155","261834","0.0-19.0-3.5","63d7b127485d5655e70c8282","bdp_trlrn","Mon Mar 13 2023 14:18:32 GMT-0400 (Eastern Daylight Time)","896440","Trustworthy,Untrustworthy","","null","","","","feedback","","<div class='trialDiv'><img src='trustrating_stim/white_00519_940519_fb_edt.bmp'><br><font class='baseline'><strong>Ryan</strong><p>Received: <strong>20</strong></font> &nbsp; &nbsp; &nbsp; &nbsp; &nbsp; &nbsp;<font class='posOutcome'>Shared back: <strong>10</strong></font></font><div class='respPicDiv'><img src='img/responseButtonOffersNo0_wht.png' class='respPic'></div></div>","null","2","Ryan","0","Shared","0.8,0.35","12","0.8","trustrating_stim/white_00519_940519_fb_edt.bmp","6","29","6"
"html-keyboard-response","156","268070","0.0-19.0-1.6","63d7b127485d5655e70c8282","bdp_trlrn","Mon Mar 13 2023 14:18:32 GMT-0400 (Eastern Daylight Time)","896440","Trustworthy,Untrustworthy","","6235","","","","decision","","<div class='trialDiv'><img src='trustrating_stim/white_mw063.bmp'><br><font class='baseline'><strong>Brian</strong><p>Choose number of points to send.</font><div class='respPicDiv'><img src='img/responseButtonOffersNo0L.png' class='respPic'></div></div>","4","3","Brian","4","Shared","0.65,0.35","8","0.65","trustrating_stim/white_mw063.bmp","6","34","7"
"html-keyboard-response","157","268327","0.0-19.0-2.6","63d7b127485d5655e70c8282","bdp_trlrn","Mon Mar 13 2023 14:18:32 GMT-0400 (Eastern Daylight Time)","896440","Trustworthy,Untrustworthy","","null","","","","decisionFB","","<div class='trialDiv'><img src='trustrating_stim/white_mw063.bmp'><br><font class='baseline'><strong>Brian</strong><p>Choose number of points to send.</font><div class='respPicDiv'><img src='img/responseButtonOffersNo0L4.png' class='respPic'></div></div>","null","3","Brian","4","Shared","0.65,0.35","8","0.65","trustrating_stim/white_mw063.bmp","6","30","7"
"html-keyboard-response","158","269333","0.0-19.0-3.6","63d7b127485d5655e70c8282","bdp_trlrn","Mon Mar 13 2023 14:18:32 GMT-0400 (Eastern Daylight Time)","896440","Trustworthy,Untrustworthy","","null","","","","feedback","","<div class='trialDiv'><img src='trustrating_stim/white_mw063.bmp'><br><font class='baseline'><strong>Brian</strong><p>Received: <strong>16</strong></font> &nbsp; &nbsp; &nbsp; &nbsp; &nbsp; &nbsp;<font class='posOutcome'>Shared back: <strong>8</strong></font></font><div class='respPicDiv'><img src='img/responseButtonOffersNo0_wht.png' class='respPic'></div></div>","null","3","Brian","4","Shared","0.65,0.35","8","0.65","trustrating_stim/white_mw063.bmp","6","38","7"
"html-keyboard-response","159","270960","0.0-19.0-1.7","63d7b127485d5655e70c8282","bdp_trlrn","Mon Mar 13 2023 14:18:32 GMT-0400 (Eastern Daylight Time)","896440","Trustworthy,Untrustworthy","","1626","","","","decision","","<div class='trialDiv'><img src='trustrating_stim/white_mw071.bmp'><br><font class='baseline'><strong>Gavin</strong><p>Choose number of points to send.</font><div class='respPicDiv'><img src='img/responseButtonOffersNo0L.png' class='respPic'></div></div>","1","3","Gavin","10","Kept","0.35,0.8","14","0.35","trustrating_stim/white_mw071.bmp","6.5","43","8"
"html-keyboard-response","160","271212","0.0-19.0-2.7","63d7b127485d5655e70c8282","bdp_trlrn","Mon Mar 13 2023 14:18:32 GMT-0400 (Eastern Daylight Time)","896440","Trustworthy,Untrustworthy","","null","","","","decisionFB","","<div class='trialDiv'><img src='trustrating_stim/white_mw071.bmp'><br><font class='baseline'><strong>Gavin</strong><p>Choose number of points to send.</font><div class='respPicDiv'><img src='img/responseButtonOffersNo0L1.png' class='respPic'></div></div>","null","3","Gavin","10","Kept","0.35,0.8","14","0.35","trustrating_stim/white_mw071.bmp","6.5","42","8"
"html-keyboard-response","161","272217","0.0-19.0-3.7","63d7b127485d5655e70c8282","bdp_trlrn","Mon Mar 13 2023 14:18:32 GMT-0400 (Eastern Daylight Time)","896440","Trustworthy,Untrustworthy","","null","","","","feedback","","<div class='trialDiv'><img src='trustrating_stim/white_mw071.bmp'><br><font class='baseline'><strong>Gavin</strong><p>Received: <strong>4</strong></font> &nbsp; &nbsp; &nbsp; &nbsp; &nbsp; &nbsp;<font class='negOutcome'>Shared back: <strong>0</strong></font></font><div class='respPicDiv'><img src='img/responseButtonOffersNo0_wht.png' class='respPic'></div></div>","null","3","Gavin","10","Kept","0.35,0.8","14","0.35","trustrating_stim/white_mw071.bmp","6.5","42","8"
"html-keyboard-response","162","274369","0.0-19.0-1.8","63d7b127485d5655e70c8282","bdp_trlrn","Mon Mar 13 2023 14:18:32 GMT-0400 (Eastern Daylight Time)","896440","Trustworthy,Untrustworthy","","2151","","","","decision","","<div class='trialDiv'><img src='trustrating_stim/white_00519_940519_fb_edt.bmp'><br><font class='baseline'><strong>Ryan</strong><p>Choose number of points to send.</font><div class='respPicDiv'><img src='img/responseButtonOffersNo0L.png' class='respPic'></div></div>","5","3","Ryan","0","Shared","0.8,0.35","12","0.8","trustrating_stim/white_00519_940519_fb_edt.bmp","6","47","9"
"html-keyboard-response","163","274620","0.0-19.0-2.8","63d7b127485d5655e70c8282","bdp_trlrn","Mon Mar 13 2023 14:18:32 GMT-0400 (Eastern Daylight Time)","896440","Trustworthy,Untrustworthy","","null","","","","decisionFB","","<div class='trialDiv'><img src='trustrating_stim/white_00519_940519_fb_edt.bmp'><br><font class='baseline'><strong>Ryan</strong><p>Choose number of points to send.</font><div class='respPicDiv'><img src='img/responseButtonOffersNo0L5.png' class='respPic'></div></div>","null","3","Ryan","0","Shared","0.8,0.35","12","0.8","trustrating_stim/white_00519_940519_fb_edt.bmp","6","42","9"
"html-keyboard-response","164","275626","0.0-19.0-3.8","63d7b127485d5655e70c8282","bdp_trlrn","Mon Mar 13 2023 14:18:32 GMT-0400 (Eastern Daylight Time)","896440","Trustworthy,Untrustworthy","","null","","","","feedback","","<div class='trialDiv'><img src='trustrating_stim/white_00519_940519_fb_edt.bmp'><br><font class='baseline'><strong>Ryan</strong><p>Received: <strong>20</strong></font> &nbsp; &nbsp; &nbsp; &nbsp; &nbsp; &nbsp;<font class='posOutcome'>Shared back: <strong>10</strong></font></font><div class='respPicDiv'><img src='img/responseButtonOffersNo0_wht.png' class='respPic'></div></div>","null","3","Ryan","0","Shared","0.8,0.35","12","0.8","trustrating_stim/white_00519_940519_fb_edt.bmp","6","52","9"
"html-keyboard-response","165","277374","0.0-19.0-1.9","63d7b127485d5655e70c8282","bdp_trlrn","Mon Mar 13 2023 14:18:32 GMT-0400 (Eastern Daylight Time)","896440","Trustworthy,Untrustworthy","","1746","","","","decision","","<div class='trialDiv'><img src='trustrating_stim/white_mw063.bmp'><br><font class='baseline'><strong>Brian</strong><p>Choose number of points to send.</font><div class='respPicDiv'><img src='img/responseButtonOffersNo0L.png' class='respPic'></div></div>","5","4","Brian","4","Shared","0.65,0.35","8","0.65","trustrating_stim/white_mw063.bmp","6","57","10"
"html-keyboard-response","166","277631","0.0-19.0-2.9","63d7b127485d5655e70c8282","bdp_trlrn","Mon Mar 13 2023 14:18:32 GMT-0400 (Eastern Daylight Time)","896440","Trustworthy,Untrustworthy","","null","","","","decisionFB","","<div class='trialDiv'><img src='trustrating_stim/white_mw063.bmp'><br><font class='baseline'><strong>Brian</strong><p>Choose number of points to send.</font><div class='respPicDiv'><img src='img/responseButtonOffersNo0L5.png' class='respPic'></div></div>","null","4","Brian","4","Shared","0.65,0.35","8","0.65","trustrating_stim/white_mw063.bmp","6","52","10"
"html-keyboard-response","167","278635","0.0-19.0-3.9","63d7b127485d5655e70c8282","bdp_trlrn","Mon Mar 13 2023 14:18:32 GMT-0400 (Eastern Daylight Time)","896440","Trustworthy,Untrustworthy","","null","","","","feedback","","<div class='trialDiv'><img src='trustrating_stim/white_mw063.bmp'><br><font class='baseline'><strong>Brian</strong><p>Received: <strong>20</strong></font> &nbsp; &nbsp; &nbsp; &nbsp; &nbsp; &nbsp;<font class='posOutcome'>Shared back: <strong>10</strong></font></font><div class='respPicDiv'><img src='img/responseButtonOffersNo0_wht.png' class='respPic'></div></div>","null","4","Brian","4","Shared","0.65,0.35","8","0.65","trustrating_stim/white_mw063.bmp","6","62","10"
"html-keyboard-response","168","280010","0.0-19.0-1.10","63d7b127485d5655e70c8282","bdp_trlrn","Mon Mar 13 2023 14:18:32 GMT-0400 (Eastern Daylight Time)","896440","Trustworthy,Untrustworthy","","1372","","","","decision","","<div class='trialDiv'><img src='trustrating_stim/white_00519_940519_fb_edt.bmp'><br><font class='baseline'><strong>Ryan</strong><p>Choose number of points to send.</font><div class='respPicDiv'><img src='img/responseButtonOffersNo0L.png' class='respPic'></div></div>","5","4","Ryan","0","Shared","0.8,0.35","12","0.8","trustrating_stim/white_00519_940519_fb_edt.bmp","6","67","11"
"html-keyboard-response","169","280266","0.0-19.0-2.10","63d7b127485d5655e70c8282","bdp_trlrn","Mon Mar 13 2023 14:18:32 GMT-0400 (Eastern Daylight Time)","896440","Trustworthy,Untrustworthy","","null","","","","decisionFB","","<div class='trialDiv'><img src='trustrating_stim/white_00519_940519_fb_edt.bmp'><br><font class='baseline'><strong>Ryan</strong><p>Choose number of points to send.</font><div class='respPicDiv'><img src='img/responseButtonOffersNo0L5.png' class='respPic'></div></div>","null","4","Ryan","0","Shared","0.8,0.35","12","0.8","trustrating_stim/white_00519_940519_fb_edt.bmp","6","62","11"
"html-keyboard-response","170","281269","0.0-19.0-3.10","63d7b127485d5655e70c8282","bdp_trlrn","Mon Mar 13 2023 14:18:32 GMT-0400 (Eastern Daylight Time)","896440","Trustworthy,Untrustworthy","","null","","","","feedback","","<div class='trialDiv'><img src='trustrating_stim/white_00519_940519_fb_edt.bmp'><br><font class='baseline'><strong>Ryan</strong><p>Received: <strong>20</strong></font> &nbsp; &nbsp; &nbsp; &nbsp; &nbsp; &nbsp;<font class='posOutcome'>Shared back: <strong>10</strong></font></font><div class='respPicDiv'><img src='img/responseButtonOffersNo0_wht.png' class='respPic'></div></div>","null","4","Ryan","0","Shared","0.8,0.35","12","0.8","trustrating_stim/white_00519_940519_fb_edt.bmp","6","72","11"
"html-keyboard-response","171","283469","0.0-19.0-1.11","63d7b127485d5655e70c8282","bdp_trlrn","Mon Mar 13 2023 14:18:32 GMT-0400 (Eastern Daylight Time)","896440","Trustworthy,Untrustworthy","","2199","","","","decision","","<div class='trialDiv'><img src='trustrating_stim/white_mw071.bmp'><br><font class='baseline'><strong>Gavin</strong><p>Choose number of points to send.</font><div class='respPicDiv'><img src='img/responseButtonOffersNo0L.png' class='respPic'></div></div>","1","4","Gavin","10","Shared","0.35,0.8","14","0.35","trustrating_stim/white_mw071.bmp","6.5","77","12"
"html-keyboard-response","172","283726","0.0-19.0-2.11","63d7b127485d5655e70c8282","bdp_trlrn","Mon Mar 13 2023 14:18:32 GMT-0400 (Eastern Daylight Time)","896440","Trustworthy,Untrustworthy","","null","","","","decisionFB","","<div class='trialDiv'><img src='trustrating_stim/white_mw071.bmp'><br><font class='baseline'><strong>Gavin</strong><p>Choose number of points to send.</font><div class='respPicDiv'><img src='img/responseButtonOffersNo0L1.png' class='respPic'></div></div>","null","4","Gavin","10","Shared","0.35,0.8","14","0.35","trustrating_stim/white_mw071.bmp","6.5","76","12"
"html-keyboard-response","173","284730","0.0-19.0-3.11","63d7b127485d5655e70c8282","bdp_trlrn","Mon Mar 13 2023 14:18:32 GMT-0400 (Eastern Daylight Time)","896440","Trustworthy,Untrustworthy","","null","","","","feedback","","<div class='trialDiv'><img src='trustrating_stim/white_mw071.bmp'><br><font class='baseline'><strong>Gavin</strong><p>Received: <strong>4</strong></font> &nbsp; &nbsp; &nbsp; &nbsp; &nbsp; &nbsp;<font class='posOutcome'>Shared back: <strong>2</strong></font></font><div class='respPicDiv'><img src='img/responseButtonOffersNo0_wht.png' class='respPic'></div></div>","null","4","Gavin","10","Shared","0.35,0.8","14","0.35","trustrating_stim/white_mw071.bmp","6.5","78","12"
"html-keyboard-response","174","285749","0.0-19.0-1.12","63d7b127485d5655e70c8282","bdp_trlrn","Mon Mar 13 2023 14:18:32 GMT-0400 (Eastern Daylight Time)","896440","Trustworthy,Untrustworthy","","1016","","","","decision","","<div class='trialDiv'><img src='trustrating_stim/white_00519_940519_fb_edt.bmp'><br><font class='baseline'><strong>Ryan</strong><p>Choose number of points to send.</font><div class='respPicDiv'><img src='img/responseButtonOffersNo0L.png' class='respPic'></div></div>","5","5","Ryan","0","Shared","0.8,0.35","12","0.8","trustrating_stim/white_00519_940519_fb_edt.bmp","6","83","13"
"html-keyboard-response","175","286005","0.0-19.0-2.12","63d7b127485d5655e70c8282","bdp_trlrn","Mon Mar 13 2023 14:18:32 GMT-0400 (Eastern Daylight Time)","896440","Trustworthy,Untrustworthy","","null","","","","decisionFB","","<div class='trialDiv'><img src='trustrating_stim/white_00519_940519_fb_edt.bmp'><br><font class='baseline'><strong>Ryan</strong><p>Choose number of points to send.</font><div class='respPicDiv'><img src='img/responseButtonOffersNo0L5.png' class='respPic'></div></div>","null","5","Ryan","0","Shared","0.8,0.35","12","0.8","trustrating_stim/white_00519_940519_fb_edt.bmp","6","78","13"
"html-keyboard-response","176","287012","0.0-19.0-3.12","63d7b127485d5655e70c8282","bdp_trlrn","Mon Mar 13 2023 14:18:32 GMT-0400 (Eastern Daylight Time)","896440","Trustworthy,Untrustworthy","","null","","","","feedback","","<div class='trialDiv'><img src='trustrating_stim/white_00519_940519_fb_edt.bmp'><br><font class='baseline'><strong>Ryan</strong><p>Received: <strong>20</strong></font> &nbsp; &nbsp; &nbsp; &nbsp; &nbsp; &nbsp;<font class='posOutcome'>Shared back: <strong>10</strong></font></font><div class='respPicDiv'><img src='img/responseButtonOffersNo0_wht.png' class='respPic'></div></div>","null","5","Ryan","0","Shared","0.8,0.35","12","0.8","trustrating_stim/white_00519_940519_fb_edt.bmp","6","88","13"
"html-keyboard-response","177","289250","0.0-19.0-1.13","63d7b127485d5655e70c8282","bdp_trlrn","Mon Mar 13 2023 14:18:32 GMT-0400 (Eastern Daylight Time)","896440","Trustworthy,Untrustworthy","","2237","","","","decision","","<div class='trialDiv'><img src='trustrating_stim/white_mw071.bmp'><br><font class='baseline'><strong>Gavin</strong><p>Choose number of points to send.</font><div class='respPicDiv'><img src='img/responseButtonOffersNo0L.png' class='respPic'></div></div>","1","5","Gavin","10","Shared","0.35,0.8","14","0.35","trustrating_stim/white_mw071.bmp","6.5","93","14"
"html-keyboard-response","178","289507","0.0-19.0-2.13","63d7b127485d5655e70c8282","bdp_trlrn","Mon Mar 13 2023 14:18:32 GMT-0400 (Eastern Daylight Time)","896440","Trustworthy,Untrustworthy","","null","","","","decisionFB","","<div class='trialDiv'><img src='trustrating_stim/white_mw071.bmp'><br><font class='baseline'><strong>Gavin</strong><p>Choose number of points to send.</font><div class='respPicDiv'><img src='img/responseButtonOffersNo0L1.png' class='respPic'></div></div>","null","5","Gavin","10","Shared","0.35,0.8","14","0.35","trustrating_stim/white_mw071.bmp","6.5","92","14"
"html-keyboard-response","179","290509","0.0-19.0-3.13","63d7b127485d5655e70c8282","bdp_trlrn","Mon Mar 13 2023 14:18:32 GMT-0400 (Eastern Daylight Time)","896440","Trustworthy,Untrustworthy","","null","","","","feedback","","<div class='trialDiv'><img src='trustrating_stim/white_mw071.bmp'><br><font class='baseline'><strong>Gavin</strong><p>Received: <strong>4</strong></font> &nbsp; &nbsp; &nbsp; &nbsp; &nbsp; &nbsp;<font class='posOutcome'>Shared back: <strong>2</strong></font></font><div class='respPicDiv'><img src='img/responseButtonOffersNo0_wht.png' class='respPic'></div></div>","null","5","Gavin","10","Shared","0.35,0.8","14","0.35","trustrating_stim/white_mw071.bmp","6.5","94","14"
"html-keyboard-response","180","292120","0.0-19.0-1.14","63d7b127485d5655e70c8282","bdp_trlrn","Mon Mar 13 2023 14:18:32 GMT-0400 (Eastern Daylight Time)","896440","Trustworthy,Untrustworthy","","1610","","","","decision","","<div class='trialDiv'><img src='trustrating_stim/white_mw063.bmp'><br><font class='baseline'><strong>Brian</strong><p>Choose number of points to send.</font><div class='respPicDiv'><img src='img/responseButtonOffersNo0L.png' class='respPic'></div></div>","5","5","Brian","4","Kept","0.65,0.35","8","0.65","trustrating_stim/white_mw063.bmp","6","99","15"
"html-keyboard-response","181","292377","0.0-19.0-2.14","63d7b127485d5655e70c8282","bdp_trlrn","Mon Mar 13 2023 14:18:32 GMT-0400 (Eastern Daylight Time)","896440","Trustworthy,Untrustworthy","","null","","","","decisionFB","","<div class='trialDiv'><img src='trustrating_stim/white_mw063.bmp'><br><font class='baseline'><strong>Brian</strong><p>Choose number of points to send.</font><div class='respPicDiv'><img src='img/responseButtonOffersNo0L5.png' class='respPic'></div></div>","null","5","Brian","4","Kept","0.65,0.35","8","0.65","trustrating_stim/white_mw063.bmp","6","94","15"
"html-keyboard-response","182","293384","0.0-19.0-3.14","63d7b127485d5655e70c8282","bdp_trlrn","Mon Mar 13 2023 14:18:32 GMT-0400 (Eastern Daylight Time)","896440","Trustworthy,Untrustworthy","","null","","","","feedback","","<div class='trialDiv'><img src='trustrating_stim/white_mw063.bmp'><br><font class='baseline'><strong>Brian</strong><p>Received: <strong>20</strong></font> &nbsp; &nbsp; &nbsp; &nbsp; &nbsp; &nbsp;<font class='negOutcome'>Shared back: <strong>0</strong></font></font><div class='respPicDiv'><img src='img/responseButtonOffersNo0_wht.png' class='respPic'></div></div>","null","5","Brian","4","Kept","0.65,0.35","8","0.65","trustrating_stim/white_mw063.bmp","6","94","15"
"html-keyboard-response","183","294413","0.0-19.0-1.15","63d7b127485d5655e70c8282","bdp_trlrn","Mon Mar 13 2023 14:18:32 GMT-0400 (Eastern Daylight Time)","896440","Trustworthy,Untrustworthy","","1028","","","","decision","","<div class='trialDiv'><img src='trustrating_stim/white_00519_940519_fb_edt.bmp'><br><font class='baseline'><strong>Ryan</strong><p>Choose number of points to send.</font><div class='respPicDiv'><img src='img/responseButtonOffersNo0L.png' class='respPic'></div></div>","5","6","Ryan","0","Shared","0.8,0.35","12","0.8","trustrating_stim/white_00519_940519_fb_edt.bmp","6","99","16"
"html-keyboard-response","184","294669","0.0-19.0-2.15","63d7b127485d5655e70c8282","bdp_trlrn","Mon Mar 13 2023 14:18:32 GMT-0400 (Eastern Daylight Time)","896440","Trustworthy,Untrustworthy","","null","","","","decisionFB","","<div class='trialDiv'><img src='trustrating_stim/white_00519_940519_fb_edt.bmp'><br><font class='baseline'><strong>Ryan</strong><p>Choose number of points to send.</font><div class='respPicDiv'><img src='img/responseButtonOffersNo0L5.png' class='respPic'></div></div>","null","6","Ryan","0","Shared","0.8,0.35","12","0.8","trustrating_stim/white_00519_940519_fb_edt.bmp","6","94","16"
"html-keyboard-response","185","295676","0.0-19.0-3.15","63d7b127485d5655e70c8282","bdp_trlrn","Mon Mar 13 2023 14:18:32 GMT-0400 (Eastern Daylight Time)","896440","Trustworthy,Untrustworthy","","null","","","","feedback","","<div class='trialDiv'><img src='trustrating_stim/white_00519_940519_fb_edt.bmp'><br><font class='baseline'><strong>Ryan</strong><p>Received: <strong>20</strong></font> &nbsp; &nbsp; &nbsp; &nbsp; &nbsp; &nbsp;<font class='posOutcome'>Shared back: <strong>10</strong></font></font><div class='respPicDiv'><img src='img/responseButtonOffersNo0_wht.png' class='respPic'></div></div>","null","6","Ryan","0","Shared","0.8,0.35","12","0.8","trustrating_stim/white_00519_940519_fb_edt.bmp","6","104","16"
"html-keyboard-response","186","297918","0.0-19.0-1.16","63d7b127485d5655e70c8282","bdp_trlrn","Mon Mar 13 2023 14:18:32 GMT-0400 (Eastern Daylight Time)","896440","Trustworthy,Untrustworthy","","2240","","","","decision","","<div class='trialDiv'><img src='trustrating_stim/white_mw071.bmp'><br><font class='baseline'><strong>Gavin</strong><p>Choose number of points to send.</font><div class='respPicDiv'><img src='img/responseButtonOffersNo0L.png' class='respPic'></div></div>","5","6","Gavin","10","Kept","0.35,0.8","14","0.35","trustrating_stim/white_mw071.bmp","6.5","109","17"
"html-keyboard-response","187","298175","0.0-19.0-2.16","63d7b127485d5655e70c8282","bdp_trlrn","Mon Mar 13 2023 14:18:32 GMT-0400 (Eastern Daylight Time)","896440","Trustworthy,Untrustworthy","","null","","","","decisionFB","","<div class='trialDiv'><img src='trustrating_stim/white_mw071.bmp'><br><font class='baseline'><strong>Gavin</strong><p>Choose number of points to send.</font><div class='respPicDiv'><img src='img/responseButtonOffersNo0L5.png' class='respPic'></div></div>","null","6","Gavin","10","Kept","0.35,0.8","14","0.35","trustrating_stim/white_mw071.bmp","6.5","104","17"
"html-keyboard-response","188","299179","0.0-19.0-3.16","63d7b127485d5655e70c8282","bdp_trlrn","Mon Mar 13 2023 14:18:32 GMT-0400 (Eastern Daylight Time)","896440","Trustworthy,Untrustworthy","","null","","","","feedback","","<div class='trialDiv'><img src='trustrating_stim/white_mw071.bmp'><br><font class='baseline'><strong>Gavin</strong><p>Received: <strong>20</strong></font> &nbsp; &nbsp; &nbsp; &nbsp; &nbsp; &nbsp;<font class='negOutcome'>Shared back: <strong>0</strong></font></font><div class='respPicDiv'><img src='img/responseButtonOffersNo0_wht.png' class='respPic'></div></div>","null","6","Gavin","10","Kept","0.35,0.8","14","0.35","trustrating_stim/white_mw071.bmp","6.5","104","17"
"html-keyboard-response","189","300469","0.0-19.0-1.17","63d7b127485d5655e70c8282","bdp_trlrn","Mon Mar 13 2023 14:18:32 GMT-0400 (Eastern Daylight Time)","896440","Trustworthy,Untrustworthy","","1289","","","","decision","","<div class='trialDiv'><img src='trustrating_stim/white_mw063.bmp'><br><font class='baseline'><strong>Brian</strong><p>Choose number of points to send.</font><div class='respPicDiv'><img src='img/responseButtonOffersNo0L.png' class='respPic'></div></div>","1","6","Brian","4","Shared","0.65,0.35","8","0.65","trustrating_stim/white_mw063.bmp","6","109","18"
"html-keyboard-response","190","300726","0.0-19.0-2.17","63d7b127485d5655e70c8282","bdp_trlrn","Mon Mar 13 2023 14:18:32 GMT-0400 (Eastern Daylight Time)","896440","Trustworthy,Untrustworthy","","null","","","","decisionFB","","<div class='trialDiv'><img src='trustrating_stim/white_mw063.bmp'><br><font class='baseline'><strong>Brian</strong><p>Choose number of points to send.</font><div class='respPicDiv'><img src='img/responseButtonOffersNo0L1.png' class='respPic'></div></div>","null","6","Brian","4","Shared","0.65,0.35","8","0.65","trustrating_stim/white_mw063.bmp","6","108","18"
"html-keyboard-response","191","301732","0.0-19.0-3.17","63d7b127485d5655e70c8282","bdp_trlrn","Mon Mar 13 2023 14:18:32 GMT-0400 (Eastern Daylight Time)","896440","Trustworthy,Untrustworthy","","null","","","","feedback","","<div class='trialDiv'><img src='trustrating_stim/white_mw063.bmp'><br><font class='baseline'><strong>Brian</strong><p>Received: <strong>4</strong></font> &nbsp; &nbsp; &nbsp; &nbsp; &nbsp; &nbsp;<font class='posOutcome'>Shared back: <strong>2</strong></font></font><div class='respPicDiv'><img src='img/responseButtonOffersNo0_wht.png' class='respPic'></div></div>","null","6","Brian","4","Shared","0.65,0.35","8","0.65","trustrating_stim/white_mw063.bmp","6","110","18"
"html-keyboard-response","192","302643","0.0-19.0-1.18","63d7b127485d5655e70c8282","bdp_trlrn","Mon Mar 13 2023 14:18:32 GMT-0400 (Eastern Daylight Time)","896440","Trustworthy,Untrustworthy","","909","","","","decision","","<div class='trialDiv'><img src='trustrating_stim/white_00519_940519_fb_edt.bmp'><br><font class='baseline'><strong>Ryan</strong><p>Choose number of points to send.</font><div class='respPicDiv'><img src='img/responseButtonOffersNo0L.png' class='respPic'></div></div>","5","7","Ryan","0","Shared","0.8,0.35","12","0.8","trustrating_stim/white_00519_940519_fb_edt.bmp","6","115","19"
"html-keyboard-response","193","302897","0.0-19.0-2.18","63d7b127485d5655e70c8282","bdp_trlrn","Mon Mar 13 2023 14:18:32 GMT-0400 (Eastern Daylight Time)","896440","Trustworthy,Untrustworthy","","null","","","","decisionFB","","<div class='trialDiv'><img src='trustrating_stim/white_00519_940519_fb_edt.bmp'><br><font class='baseline'><strong>Ryan</strong><p>Choose number of points to send.</font><div class='respPicDiv'><img src='img/responseButtonOffersNo0L5.png' class='respPic'></div></div>","null","7","Ryan","0","Shared","0.8,0.35","12","0.8","trustrating_stim/white_00519_940519_fb_edt.bmp","6","110","19"
"html-keyboard-response","194","303904","0.0-19.0-3.18","63d7b127485d5655e70c8282","bdp_trlrn","Mon Mar 13 2023 14:18:32 GMT-0400 (Eastern Daylight Time)","896440","Trustworthy,Untrustworthy","","null","","","","feedback","","<div class='trialDiv'><img src='trustrating_stim/white_00519_940519_fb_edt.bmp'><br><font class='baseline'><strong>Ryan</strong><p>Received: <strong>20</strong></font> &nbsp; &nbsp; &nbsp; &nbsp; &nbsp; &nbsp;<font class='posOutcome'>Shared back: <strong>10</strong></font></font><div class='respPicDiv'><img src='img/responseButtonOffersNo0_wht.png' class='respPic'></div></div>","null","7","Ryan","0","Shared","0.8,0.35","12","0.8","trustrating_stim/white_00519_940519_fb_edt.bmp","6","120","19"
"html-keyboard-response","195","305773","0.0-19.0-1.19","63d7b127485d5655e70c8282","bdp_trlrn","Mon Mar 13 2023 14:18:32 GMT-0400 (Eastern Daylight Time)","896440","Trustworthy,Untrustworthy","","1867","","","","decision","","<div class='trialDiv'><img src='trustrating_stim/white_mw063.bmp'><br><font class='baseline'><strong>Brian</strong><p>Choose number of points to send.</font><div class='respPicDiv'><img src='img/responseButtonOffersNo0L.png' class='respPic'></div></div>","1","7","Brian","4","Shared","0.65,0.35","8","0.65","trustrating_stim/white_mw063.bmp","6","125","20"
"html-keyboard-response","196","306026","0.0-19.0-2.19","63d7b127485d5655e70c8282","bdp_trlrn","Mon Mar 13 2023 14:18:32 GMT-0400 (Eastern Daylight Time)","896440","Trustworthy,Untrustworthy","","null","","","","decisionFB","","<div class='trialDiv'><img src='trustrating_stim/white_mw063.bmp'><br><font class='baseline'><strong>Brian</strong><p>Choose number of points to send.</font><div class='respPicDiv'><img src='img/responseButtonOffersNo0L1.png' class='respPic'></div></div>","null","7","Brian","4","Shared","0.65,0.35","8","0.65","trustrating_stim/white_mw063.bmp","6","124","20"
"html-keyboard-response","197","307031","0.0-19.0-3.19","63d7b127485d5655e70c8282","bdp_trlrn","Mon Mar 13 2023 14:18:32 GMT-0400 (Eastern Daylight Time)","896440","Trustworthy,Untrustworthy","","null","","","","feedback","","<div class='trialDiv'><img src='trustrating_stim/white_mw063.bmp'><br><font class='baseline'><strong>Brian</strong><p>Received: <strong>4</strong></font> &nbsp; &nbsp; &nbsp; &nbsp; &nbsp; &nbsp;<font class='posOutcome'>Shared back: <strong>2</strong></font></font><div class='respPicDiv'><img src='img/responseButtonOffersNo0_wht.png' class='respPic'></div></div>","null","7","Brian","4","Shared","0.65,0.35","8","0.65","trustrating_stim/white_mw063.bmp","6","126","20"
"html-keyboard-response","198","307650","0.0-19.0-1.20","63d7b127485d5655e70c8282","bdp_trlrn","Mon Mar 13 2023 14:18:32 GMT-0400 (Eastern Daylight Time)","896440","Trustworthy,Untrustworthy","","619","","","","decision","","<div class='trialDiv'><img src='trustrating_stim/white_mw071.bmp'><br><font class='baseline'><strong>Gavin</strong><p>Choose number of points to send.</font><div class='respPicDiv'><img src='img/responseButtonOffersNo0L.png' class='respPic'></div></div>","1","7","Gavin","10","Kept","0.35,0.8","14","0.35","trustrating_stim/white_mw071.bmp","6.5","131","21"
"html-keyboard-response","199","307907","0.0-19.0-2.20","63d7b127485d5655e70c8282","bdp_trlrn","Mon Mar 13 2023 14:18:32 GMT-0400 (Eastern Daylight Time)","896440","Trustworthy,Untrustworthy","","null","","","","decisionFB","","<div class='trialDiv'><img src='trustrating_stim/white_mw071.bmp'><br><font class='baseline'><strong>Gavin</strong><p>Choose number of points to send.</font><div class='respPicDiv'><img src='img/responseButtonOffersNo0L1.png' class='respPic'></div></div>","null","7","Gavin","10","Kept","0.35,0.8","14","0.35","trustrating_stim/white_mw071.bmp","6.5","130","21"
"html-keyboard-response","200","308913","0.0-19.0-3.20","63d7b127485d5655e70c8282","bdp_trlrn","Mon Mar 13 2023 14:18:32 GMT-0400 (Eastern Daylight Time)","896440","Trustworthy,Untrustworthy","","null","","","","feedback","","<div class='trialDiv'><img src='trustrating_stim/white_mw071.bmp'><br><font class='baseline'><strong>Gavin</strong><p>Received: <strong>4</strong></font> &nbsp; &nbsp; &nbsp; &nbsp; &nbsp; &nbsp;<font class='negOutcome'>Shared back: <strong>0</strong></font></font><div class='respPicDiv'><img src='img/responseButtonOffersNo0_wht.png' class='respPic'></div></div>","null","7","Gavin","10","Kept","0.35,0.8","14","0.35","trustrating_stim/white_mw071.bmp","6.5","130","21"
"html-keyboard-response","201","309544","0.0-19.0-1.21","63d7b127485d5655e70c8282","bdp_trlrn","Mon Mar 13 2023 14:18:32 GMT-0400 (Eastern Daylight Time)","896440","Trustworthy,Untrustworthy","","631","","","","decision","","<div class='trialDiv'><img src='trustrating_stim/white_mw063.bmp'><br><font class='baseline'><strong>Brian</strong><p>Choose number of points to send.</font><div class='respPicDiv'><img src='img/responseButtonOffersNo0L.png' class='respPic'></div></div>","1","8","Brian","4","Shared","0.65,0.35","8","0.65","trustrating_stim/white_mw063.bmp","6","135","22"
"html-keyboard-response","202","309801","0.0-19.0-2.21","63d7b127485d5655e70c8282","bdp_trlrn","Mon Mar 13 2023 14:18:32 GMT-0400 (Eastern Daylight Time)","896440","Trustworthy,Untrustworthy","","null","","","","decisionFB","","<div class='trialDiv'><img src='trustrating_stim/white_mw063.bmp'><br><font class='baseline'><strong>Brian</strong><p>Choose number of points to send.</font><div class='respPicDiv'><img src='img/responseButtonOffersNo0L1.png' class='respPic'></div></div>","null","8","Brian","4","Shared","0.65,0.35","8","0.65","trustrating_stim/white_mw063.bmp","6","134","22"
"html-keyboard-response","203","310807","0.0-19.0-3.21","63d7b127485d5655e70c8282","bdp_trlrn","Mon Mar 13 2023 14:18:32 GMT-0400 (Eastern Daylight Time)","896440","Trustworthy,Untrustworthy","","null","","","","feedback","","<div class='trialDiv'><img src='trustrating_stim/white_mw063.bmp'><br><font class='baseline'><strong>Brian</strong><p>Received: <strong>4</strong></font> &nbsp; &nbsp; &nbsp; &nbsp; &nbsp; &nbsp;<font class='posOutcome'>Shared back: <strong>2</strong></font></font><div class='respPicDiv'><img src='img/responseButtonOffersNo0_wht.png' class='respPic'></div></div>","null","8","Brian","4","Shared","0.65,0.35","8","0.65","trustrating_stim/white_mw063.bmp","6","136","22"
"html-keyboard-response","204","311538","0.0-19.0-1.22","63d7b127485d5655e70c8282","bdp_trlrn","Mon Mar 13 2023 14:18:32 GMT-0400 (Eastern Daylight Time)","896440","Trustworthy,Untrustworthy","","731","","","","decision","","<div class='trialDiv'><img src='trustrating_stim/white_mw071.bmp'><br><font class='baseline'><strong>Gavin</strong><p>Choose number of points to send.</font><div class='respPicDiv'><img src='img/responseButtonOffersNo0L.png' class='respPic'></div></div>","1","8","Gavin","10","Kept","0.35,0.8","14","0.35","trustrating_stim/white_mw071.bmp","6.5","141","23"
"html-keyboard-response","205","311792","0.0-19.0-2.22","63d7b127485d5655e70c8282","bdp_trlrn","Mon Mar 13 2023 14:18:32 GMT-0400 (Eastern Daylight Time)","896440","Trustworthy,Untrustworthy","","null","","","","decisionFB","","<div class='trialDiv'><img src='trustrating_stim/white_mw071.bmp'><br><font class='baseline'><strong>Gavin</strong><p>Choose number of points to send.</font><div class='respPicDiv'><img src='img/responseButtonOffersNo0L1.png' class='respPic'></div></div>","null","8","Gavin","10","Kept","0.35,0.8","14","0.35","trustrating_stim/white_mw071.bmp","6.5","140","23"
"html-keyboard-response","206","312795","0.0-19.0-3.22","63d7b127485d5655e70c8282","bdp_trlrn","Mon Mar 13 2023 14:18:32 GMT-0400 (Eastern Daylight Time)","896440","Trustworthy,Untrustworthy","","null","","","","feedback","","<div class='trialDiv'><img src='trustrating_stim/white_mw071.bmp'><br><font class='baseline'><strong>Gavin</strong><p>Received: <strong>4</strong></font> &nbsp; &nbsp; &nbsp; &nbsp; &nbsp; &nbsp;<font class='negOutcome'>Shared back: <strong>0</strong></font></font><div class='respPicDiv'><img src='img/responseButtonOffersNo0_wht.png' class='respPic'></div></div>","null","8","Gavin","10","Kept","0.35,0.8","14","0.35","trustrating_stim/white_mw071.bmp","6.5","140","23"
"html-keyboard-response","207","313353","0.0-19.0-1.23","63d7b127485d5655e70c8282","bdp_trlrn","Mon Mar 13 2023 14:18:32 GMT-0400 (Eastern Daylight Time)","896440","Trustworthy,Untrustworthy","","556","","","","decision","","<div class='trialDiv'><img src='trustrating_stim/white_00519_940519_fb_edt.bmp'><br><font class='baseline'><strong>Ryan</strong><p>Choose number of points to send.</font><div class='respPicDiv'><img src='img/responseButtonOffersNo0L.png' class='respPic'></div></div>","5","8","Ryan","0","Kept","0.8,0.35","12","0.8","trustrating_stim/white_00519_940519_fb_edt.bmp","6","145","24"
"html-keyboard-response","208","313604","0.0-19.0-2.23","63d7b127485d5655e70c8282","bdp_trlrn","Mon Mar 13 2023 14:18:32 GMT-0400 (Eastern Daylight Time)","896440","Trustworthy,Untrustworthy","","null","","","","decisionFB","","<div class='trialDiv'><img src='trustrating_stim/white_00519_940519_fb_edt.bmp'><br><font class='baseline'><strong>Ryan</strong><p>Choose number of points to send.</font><div class='respPicDiv'><img src='img/responseButtonOffersNo0L5.png' class='respPic'></div></div>","null","8","Ryan","0","Kept","0.8,0.35","12","0.8","trustrating_stim/white_00519_940519_fb_edt.bmp","6","140","24"
"html-keyboard-response","209","314611","0.0-19.0-3.23","63d7b127485d5655e70c8282","bdp_trlrn","Mon Mar 13 2023 14:18:32 GMT-0400 (Eastern Daylight Time)","896440","Trustworthy,Untrustworthy","","null","","","","feedback","","<div class='trialDiv'><img src='trustrating_stim/white_00519_940519_fb_edt.bmp'><br><font class='baseline'><strong>Ryan</strong><p>Received: <strong>20</strong></font> &nbsp; &nbsp; &nbsp; &nbsp; &nbsp; &nbsp;<font class='negOutcome'>Shared back: <strong>0</strong></font></font><div class='respPicDiv'><img src='img/responseButtonOffersNo0_wht.png' class='respPic'></div></div>","null","8","Ryan","0","Kept","0.8,0.35","12","0.8","trustrating_stim/white_00519_940519_fb_edt.bmp","6","140","24"
"html-keyboard-response","210","315262","0.0-19.0-1.24","63d7b127485d5655e70c8282","bdp_trlrn","Mon Mar 13 2023 14:18:32 GMT-0400 (Eastern Daylight Time)","896440","Trustworthy,Untrustworthy","","650","","","","decision","","<div class='trialDiv'><img src='trustrating_stim/white_mw071.bmp'><br><font class='baseline'><strong>Gavin</strong><p>Choose number of points to send.</font><div class='respPicDiv'><img src='img/responseButtonOffersNo0L.png' class='respPic'></div></div>","1","9","Gavin","10","Kept","0.35,0.8","14","0.35","trustrating_stim/white_mw071.bmp","6.5","145","25"
"html-keyboard-response","211","315514","0.0-19.0-2.24","63d7b127485d5655e70c8282","bdp_trlrn","Mon Mar 13 2023 14:18:32 GMT-0400 (Eastern Daylight Time)","896440","Trustworthy,Untrustworthy","","null","","","","decisionFB","","<div class='trialDiv'><img src='trustrating_stim/white_mw071.bmp'><br><font class='baseline'><strong>Gavin</strong><p>Choose number of points to send.</font><div class='respPicDiv'><img src='img/responseButtonOffersNo0L1.png' class='respPic'></div></div>","null","9","Gavin","10","Kept","0.35,0.8","14","0.35","trustrating_stim/white_mw071.bmp","6.5","144","25"
"html-keyboard-response","212","316518","0.0-19.0-3.24","63d7b127485d5655e70c8282","bdp_trlrn","Mon Mar 13 2023 14:18:32 GMT-0400 (Eastern Daylight Time)","896440","Trustworthy,Untrustworthy","","null","","","","feedback","","<div class='trialDiv'><img src='trustrating_stim/white_mw071.bmp'><br><font class='baseline'><strong>Gavin</strong><p>Received: <strong>4</strong></font> &nbsp; &nbsp; &nbsp; &nbsp; &nbsp; &nbsp;<font class='negOutcome'>Shared back: <strong>0</strong></font></font><div class='respPicDiv'><img src='img/responseButtonOffersNo0_wht.png' class='respPic'></div></div>","null","9","Gavin","10","Kept","0.35,0.8","14","0.35","trustrating_stim/white_mw071.bmp","6.5","144","25"
"html-keyboard-response","213","316861","0.0-19.0-1.25","63d7b127485d5655e70c8282","bdp_trlrn","Mon Mar 13 2023 14:18:32 GMT-0400 (Eastern Daylight Time)","896440","Trustworthy,Untrustworthy","","342","","","","decision","","<div class='trialDiv'><img src='trustrating_stim/white_mw063.bmp'><br><font class='baseline'><strong>Brian</strong><p>Choose number of points to send.</font><div class='respPicDiv'><img src='img/responseButtonOffersNo0L.png' class='respPic'></div></div>","1","9","Brian","4","Shared","0.65,0.35","8","0.65","trustrating_stim/white_mw063.bmp","6","149","26"
"html-keyboard-response","214","317114","0.0-19.0-2.25","63d7b127485d5655e70c8282","bdp_trlrn","Mon Mar 13 2023 14:18:32 GMT-0400 (Eastern Daylight Time)","896440","Trustworthy,Untrustworthy","","null","","","","decisionFB","","<div class='trialDiv'><img src='trustrating_stim/white_mw063.bmp'><br><font class='baseline'><strong>Brian</strong><p>Choose number of points to send.</font><div class='respPicDiv'><img src='img/responseButtonOffersNo0L1.png' class='respPic'></div></div>","null","9","Brian","4","Shared","0.65,0.35","8","0.65","trustrating_stim/white_mw063.bmp","6","148","26"
"html-keyboard-response","215","318117","0.0-19.0-3.25","63d7b127485d5655e70c8282","bdp_trlrn","Mon Mar 13 2023 14:18:32 GMT-0400 (Eastern Daylight Time)","896440","Trustworthy,Untrustworthy","","null","","","","feedback","","<div class='trialDiv'><img src='trustrating_stim/white_mw063.bmp'><br><font class='baseline'><strong>Brian</strong><p>Received: <strong>4</strong></font> &nbsp; &nbsp; &nbsp; &nbsp; &nbsp; &nbsp;<font class='posOutcome'>Shared back: <strong>2</strong></font></font><div class='respPicDiv'><img src='img/responseButtonOffersNo0_wht.png' class='respPic'></div></div>","null","9","Brian","4","Shared","0.65,0.35","8","0.65","trustrating_stim/white_mw063.bmp","6","150","26"
"html-keyboard-response","216","318442","0.0-19.0-1.26","63d7b127485d5655e70c8282","bdp_trlrn","Mon Mar 13 2023 14:18:32 GMT-0400 (Eastern Daylight Time)","896440","Trustworthy,Untrustworthy","","323","","","","decision","","<div class='trialDiv'><img src='trustrating_stim/white_00519_940519_fb_edt.bmp'><br><font class='baseline'><strong>Ryan</strong><p>Choose number of points to send.</font><div class='respPicDiv'><img src='img/responseButtonOffersNo0L.png' class='respPic'></div></div>","1","9","Ryan","0","Kept","0.8,0.35","12","0.8","trustrating_stim/white_00519_940519_fb_edt.bmp","6","155","27"
"html-keyboard-response","217","318699","0.0-19.0-2.26","63d7b127485d5655e70c8282","bdp_trlrn","Mon Mar 13 2023 14:18:32 GMT-0400 (Eastern Daylight Time)","896440","Trustworthy,Untrustworthy","","null","","","","decisionFB","","<div class='trialDiv'><img src='trustrating_stim/white_00519_940519_fb_edt.bmp'><br><font class='baseline'><strong>Ryan</strong><p>Choose number of points to send.</font><div class='respPicDiv'><img src='img/responseButtonOffersNo0L1.png' class='respPic'></div></div>","null","9","Ryan","0","Kept","0.8,0.35","12","0.8","trustrating_stim/white_00519_940519_fb_edt.bmp","6","154","27"
"html-keyboard-response","218","319700","0.0-19.0-3.26","63d7b127485d5655e70c8282","bdp_trlrn","Mon Mar 13 2023 14:18:32 GMT-0400 (Eastern Daylight Time)","896440","Trustworthy,Untrustworthy","","null","","","","feedback","","<div class='trialDiv'><img src='trustrating_stim/white_00519_940519_fb_edt.bmp'><br><font class='baseline'><strong>Ryan</strong><p>Received: <strong>4</strong></font> &nbsp; &nbsp; &nbsp; &nbsp; &nbsp; &nbsp;<font class='negOutcome'>Shared back: <strong>0</strong></font></font><div class='respPicDiv'><img src='img/responseButtonOffersNo0_wht.png' class='respPic'></div></div>","null","9","Ryan","0","Kept","0.8,0.35","12","0.8","trustrating_stim/white_00519_940519_fb_edt.bmp","6","154","27"
"html-keyboard-response","219","320263","0.0-19.0-1.27","63d7b127485d5655e70c8282","bdp_trlrn","Mon Mar 13 2023 14:18:32 GMT-0400 (Eastern Daylight Time)","896440","Trustworthy,Untrustworthy","","562","","","","decision","","<div class='trialDiv'><img src='trustrating_stim/white_mw063.bmp'><br><font class='baseline'><strong>Brian</strong><p>Choose number of points to send.</font><div class='respPicDiv'><img src='img/responseButtonOffersNo0L.png' class='respPic'></div></div>","1","10","Brian","4","Kept","0.65,0.35","8","0.65","trustrating_stim/white_mw063.bmp","6","159","28"
"html-keyboard-response","220","320515","0.0-19.0-2.27","63d7b127485d5655e70c8282","bdp_trlrn","Mon Mar 13 2023 14:18:32 GMT-0400 (Eastern Daylight Time)","896440","Trustworthy,Untrustworthy","","null","","","","decisionFB","","<div class='trialDiv'><img src='trustrating_stim/white_mw063.bmp'><br><font class='baseline'><strong>Brian</strong><p>Choose number of points to send.</font><div class='respPicDiv'><img src='img/responseButtonOffersNo0L1.png' class='respPic'></div></div>","null","10","Brian","4","Kept","0.65,0.35","8","0.65","trustrating_stim/white_mw063.bmp","6","158","28"
"html-keyboard-response","221","321521","0.0-19.0-3.27","63d7b127485d5655e70c8282","bdp_trlrn","Mon Mar 13 2023 14:18:32 GMT-0400 (Eastern Daylight Time)","896440","Trustworthy,Untrustworthy","","null","","","","feedback","","<div class='trialDiv'><img src='trustrating_stim/white_mw063.bmp'><br><font class='baseline'><strong>Brian</strong><p>Received: <strong>4</strong></font> &nbsp; &nbsp; &nbsp; &nbsp; &nbsp; &nbsp;<font class='negOutcome'>Shared back: <strong>0</strong></font></font><div class='respPicDiv'><img src='img/responseButtonOffersNo0_wht.png' class='respPic'></div></div>","null","10","Brian","4","Kept","0.65,0.35","8","0.65","trustrating_stim/white_mw063.bmp","6","158","28"
"html-keyboard-response","222","321835","0.0-19.0-1.28","63d7b127485d5655e70c8282","bdp_trlrn","Mon Mar 13 2023 14:18:32 GMT-0400 (Eastern Daylight Time)","896440","Trustworthy,Untrustworthy","","313","","","","decision","","<div class='trialDiv'><img src='trustrating_stim/white_00519_940519_fb_edt.bmp'><br><font class='baseline'><strong>Ryan</strong><p>Choose number of points to send.</font><div class='respPicDiv'><img src='img/responseButtonOffersNo0L.png' class='respPic'></div></div>","1","10","Ryan","0","Shared","0.8,0.35","12","0.8","trustrating_stim/white_00519_940519_fb_edt.bmp","6","163","29"
