"trial_type","trial_index","time_elapsed","internal_node_id","subject_id","task","startTime","totalTime","labels","event","trial","time","trialtype","numBlurs","view_history","rt","success","stimulus","key_press","aground","name","faceID","outcome","agenttype","agentswpt","agentcurrpshare","face","avgRating","point_total","round"
"pavlovia","0","2","0.0-0.0","63615888b5606b24a845f73e","bdp_trlrn","Tue Mar 14 2023 19:46:45 GMT-0400 (Eastern Daylight Time)","508463","Untrustworthy,Trustworthy","","","","","","","","","","","","","","","","","","","","",""
"","","","","63615888b5606b24a845f73e","bdp_trlrn","Tue Mar 14 2023 19:46:45 GMT-0400 (Eastern Daylight Time)","508463","Untrustworthy,Trustworthy","blur","1","2990","blurevent","1","","","","","","","","","","","","","","","",""
"","","","","63615888b5606b24a845f73e","bdp_trlrn","Tue Mar 14 2023 19:46:45 GMT-0400 (Eastern Daylight Time)","508463","Untrustworthy,Trustworthy","focus","1","5579","focusevent","","","","","","","","","","","","","","","","",""
"instructions","1","8654","0.0-1.0","63615888b5606b24a845f73e","bdp_trlrn","Tue Mar 14 2023 19:46:45 GMT-0400 (Eastern Daylight Time)","508463","Untrustworthy,Trustworthy","","","","","","[{""page_index"":0,""viewing_time"":8651}]","8652","","","","","","","","","","","","","",""
"","","","","63615888b5606b24a845f73e","bdp_trlrn","Tue Mar 14 2023 19:46:45 GMT-0400 (Eastern Daylight Time)","508463","Untrustworthy,Trustworthy","fullscreenenter","2","10410","fullscreenenter","","","","","","","","","","","","","","","","",""
"fullscreen","2","11399","0.0-2.0","63615888b5606b24a845f73e","bdp_trlrn","Tue Mar 14 2023 19:46:45 GMT-0400 (Eastern Daylight Time)","508463","Untrustworthy,Trustworthy","","","","","","","","true","","","","","","","","","","","","",""
"instructions","3","19672","0.0-4.0","63615888b5606b24a845f73e","bdp_trlrn","Tue Mar 14 2023 19:46:45 GMT-0400 (Eastern Daylight Time)","508463","Untrustworthy,Trustworthy","","","","","","[{""page_index"":0,""viewing_time"":7352},{""page_index"":1,""viewing_time"":920}]","8272","","","","","","","","","","","","","",""
"instructions","4","20344","0.0-5.0","63615888b5606b24a845f73e","bdp_trlrn","Tue Mar 14 2023 19:46:45 GMT-0400 (Eastern Daylight Time)","508463","Untrustworthy,Trustworthy","","","","","","[{""page_index"":0,""viewing_time"":672}]","672","","","","","","","","","","","","","",""
"image-keyboard-response","5","26003","0.0-6.0-1.0","63615888b5606b24a845f73e","bdp_trlrn","Tue Mar 14 2023 19:46:45 GMT-0400 (Eastern Daylight Time)","508463","Untrustworthy,Trustworthy","","","","rating","","","5557","","trustrating_stim/white_mw089.bmp","4","","","","","","","","","","",""
"image-keyboard-response","6","26216","0.0-6.0-2.0","63615888b5606b24a845f73e","bdp_trlrn","Tue Mar 14 2023 19:46:45 GMT-0400 (Eastern Daylight Time)","508463","Untrustworthy,Trustworthy","","","","ratingFB","","","null","","trustrating_stim/white_mw089.bmp","null","","","","","","","","","","",""
"image-keyboard-response","7","28305","0.0-6.0-1.1","63615888b5606b24a845f73e","bdp_trlrn","Tue Mar 14 2023 19:46:45 GMT-0400 (Eastern Daylight Time)","508463","Untrustworthy,Trustworthy","","","","rating","","","1979","","trustrating_stim/white_00602_940928_fb_edt.bmp","8","","","","","","","","","","",""
"image-keyboard-response","8","28506","0.0-6.0-2.1","63615888b5606b24a845f73e","bdp_trlrn","Tue Mar 14 2023 19:46:45 GMT-0400 (Eastern Daylight Time)","508463","Untrustworthy,Trustworthy","","","","ratingFB","","","null","","trustrating_stim/white_00602_940928_fb_edt.bmp","null","","","","","","","","","","",""
"image-keyboard-response","9","31193","0.0-6.0-1.2","63615888b5606b24a845f73e","bdp_trlrn","Tue Mar 14 2023 19:46:45 GMT-0400 (Eastern Daylight Time)","508463","Untrustworthy,Trustworthy","","","","rating","","","2584","","trustrating_stim/white_mw048.bmp","6","","","","","","","","","","",""
"image-keyboard-response","10","31395","0.0-6.0-2.2","63615888b5606b24a845f73e","bdp_trlrn","Tue Mar 14 2023 19:46:45 GMT-0400 (Eastern Daylight Time)","508463","Untrustworthy,Trustworthy","","","","ratingFB","","","null","","trustrating_stim/white_mw048.bmp","null","","","","","","","","","","",""
"image-keyboard-response","11","32595","0.0-6.0-1.3","63615888b5606b24a845f73e","bdp_trlrn","Tue Mar 14 2023 19:46:45 GMT-0400 (Eastern Daylight Time)","508463","Untrustworthy,Trustworthy","","","","rating","","","1099","","trustrating_stim/white_00898_960530_fa_edt.bmp","7","","","","","","","","","","",""
"image-keyboard-response","12","32797","0.0-6.0-2.3","63615888b5606b24a845f73e","bdp_trlrn","Tue Mar 14 2023 19:46:45 GMT-0400 (Eastern Daylight Time)","508463","Untrustworthy,Trustworthy","","","","ratingFB","","","null","","trustrating_stim/white_00898_960530_fa_edt.bmp","null","","","","","","","","","","",""
"image-keyboard-response","13","35139","0.0-6.0-1.4","63615888b5606b24a845f73e","bdp_trlrn","Tue Mar 14 2023 19:46:45 GMT-0400 (Eastern Daylight Time)","508463","Untrustworthy,Trustworthy","","","","rating","","","2241","","trustrating_stim/white_00223_940128_fb_edt.bmp","5","","","","","","","","","","",""
"image-keyboard-response","14","35340","0.0-6.0-2.4","63615888b5606b24a845f73e","bdp_trlrn","Tue Mar 14 2023 19:46:45 GMT-0400 (Eastern Daylight Time)","508463","Untrustworthy,Trustworthy","","","","ratingFB","","","null","","trustrating_stim/white_00223_940128_fb_edt.bmp","null","","","","","","","","","","",""
"image-keyboard-response","15","36866","0.0-6.0-1.5","63615888b5606b24a845f73e","bdp_trlrn","Tue Mar 14 2023 19:46:45 GMT-0400 (Eastern Daylight Time)","508463","Untrustworthy,Trustworthy","","","","rating","","","1424","","trustrating_stim/white_mw056.bmp","8","","","","","","","","","","",""
"image-keyboard-response","16","37069","0.0-6.0-2.5","63615888b5606b24a845f73e","bdp_trlrn","Tue Mar 14 2023 19:46:45 GMT-0400 (Eastern Daylight Time)","508463","Untrustworthy,Trustworthy","","","","ratingFB","","","null","","trustrating_stim/white_mw056.bmp","null","","","","","","","","","","",""
"image-keyboard-response","17","39030","0.0-6.0-1.6","63615888b5606b24a845f73e","bdp_trlrn","Tue Mar 14 2023 19:46:45 GMT-0400 (Eastern Daylight Time)","508463","Untrustworthy,Trustworthy","","","","rating","","","1860","","trustrating_stim/white_00785_941205_fb_edt.bmp","6","","","","","","","","","","",""
"image-keyboard-response","18","39231","0.0-6.0-2.6","63615888b5606b24a845f73e","bdp_trlrn","Tue Mar 14 2023 19:46:45 GMT-0400 (Eastern Daylight Time)","508463","Untrustworthy,Trustworthy","","","","ratingFB","","","null","","trustrating_stim/white_00785_941205_fb_edt.bmp","null","","","","","","","","","","",""
"image-keyboard-response","19","40807","0.0-6.0-1.7","63615888b5606b24a845f73e","bdp_trlrn","Tue Mar 14 2023 19:46:45 GMT-0400 (Eastern Daylight Time)","508463","Untrustworthy,Trustworthy","","","","rating","","","1474","","trustrating_stim/white_mw046.bmp","6","","","","","","","","","","",""
"image-keyboard-response","20","41013","0.0-6.0-2.7","63615888b5606b24a845f73e","bdp_trlrn","Tue Mar 14 2023 19:46:45 GMT-0400 (Eastern Daylight Time)","508463","Untrustworthy,Trustworthy","","","","ratingFB","","","null","","trustrating_stim/white_mw046.bmp","null","","","","","","","","","","",""
"image-keyboard-response","21","43309","0.0-6.0-1.8","63615888b5606b24a845f73e","bdp_trlrn","Tue Mar 14 2023 19:46:45 GMT-0400 (Eastern Daylight Time)","508463","Untrustworthy,Trustworthy","","","","rating","","","2194","","trustrating_stim/white_00109_931230_fa_edt.bmp","7","","","","","","","","","","",""
"image-keyboard-response","22","43510","0.0-6.0-2.8","63615888b5606b24a845f73e","bdp_trlrn","Tue Mar 14 2023 19:46:45 GMT-0400 (Eastern Daylight Time)","508463","Untrustworthy,Trustworthy","","","","ratingFB","","","null","","trustrating_stim/white_00109_931230_fa_edt.bmp","null","","","","","","","","","","",""
"image-keyboard-response","23","45198","0.0-6.0-1.9","63615888b5606b24a845f73e","bdp_trlrn","Tue Mar 14 2023 19:46:45 GMT-0400 (Eastern Daylight Time)","508463","Untrustworthy,Trustworthy","","","","rating","","","1587","","trustrating_stim/white_mw033.bmp","7","","","","","","","","","","",""
"image-keyboard-response","24","45400","0.0-6.0-2.9","63615888b5606b24a845f73e","bdp_trlrn","Tue Mar 14 2023 19:46:45 GMT-0400 (Eastern Daylight Time)","508463","Untrustworthy,Trustworthy","","","","ratingFB","","","null","","trustrating_stim/white_mw033.bmp","null","","","","","","","","","","",""
"image-keyboard-response","25","48218","0.0-6.0-1.10","63615888b5606b24a845f73e","bdp_trlrn","Tue Mar 14 2023 19:46:45 GMT-0400 (Eastern Daylight Time)","508463","Untrustworthy,Trustworthy","","","","rating","","","2717","","trustrating_stim/white_00761_941201_fb_edt.bmp","8","","","","","","","","","","",""
"image-keyboard-response","26","48420","0.0-6.0-2.10","63615888b5606b24a845f73e","bdp_trlrn","Tue Mar 14 2023 19:46:45 GMT-0400 (Eastern Daylight Time)","508463","Untrustworthy,Trustworthy","","","","ratingFB","","","null","","trustrating_stim/white_00761_941201_fb_edt.bmp","null","","","","","","","","","","",""
"image-keyboard-response","27","49648","0.0-6.0-1.11","63615888b5606b24a845f73e","bdp_trlrn","Tue Mar 14 2023 19:46:45 GMT-0400 (Eastern Daylight Time)","508463","Untrustworthy,Trustworthy","","","","rating","","","1127","","trustrating_stim/white_00519_940519_fb_edt.bmp","9","","","","","","","","","","",""
"image-keyboard-response","28","49849","0.0-6.0-2.11","63615888b5606b24a845f73e","bdp_trlrn","Tue Mar 14 2023 19:46:45 GMT-0400 (Eastern Daylight Time)","508463","Untrustworthy,Trustworthy","","","","ratingFB","","","null","","trustrating_stim/white_00519_940519_fb_edt.bmp","null","","","","","","","","","","",""
"image-keyboard-response","29","51994","0.0-6.0-1.12","63615888b5606b24a845f73e","bdp_trlrn","Tue Mar 14 2023 19:46:45 GMT-0400 (Eastern Daylight Time)","508463","Untrustworthy,Trustworthy","","","","rating","","","2044","","trustrating_stim/white_00659_941121_fa_edt.bmp","7","","","","","","","","","","",""
"image-keyboard-response","30","52196","0.0-6.0-2.12","63615888b5606b24a845f73e","bdp_trlrn","Tue Mar 14 2023 19:46:45 GMT-0400 (Eastern Daylight Time)","508463","Untrustworthy,Trustworthy","","","","ratingFB","","","null","","trustrating_stim/white_00659_941121_fa_edt.bmp","null","","","","","","","","","","",""
"image-keyboard-response","31","53547","0.0-6.0-1.13","63615888b5606b24a845f73e","bdp_trlrn","Tue Mar 14 2023 19:46:45 GMT-0400 (Eastern Daylight Time)","508463","Untrustworthy,Trustworthy","","","","rating","","","1250","","trustrating_stim/white_mw049.bmp","8","","","","","","","","","","",""
"image-keyboard-response","32","53748","0.0-6.0-2.13","63615888b5606b24a845f73e","bdp_trlrn","Tue Mar 14 2023 19:46:45 GMT-0400 (Eastern Daylight Time)","508463","Untrustworthy,Trustworthy","","","","ratingFB","","","null","","trustrating_stim/white_mw049.bmp","null","","","","","","","","","","",""
"image-keyboard-response","33","55877","0.0-6.0-1.14","63615888b5606b24a845f73e","bdp_trlrn","Tue Mar 14 2023 19:46:45 GMT-0400 (Eastern Daylight Time)","508463","Untrustworthy,Trustworthy","","","","rating","","","2028","","trustrating_stim/white_mw084.bmp","7","","","","","","","","","","",""
"image-keyboard-response","34","56078","0.0-6.0-2.14","63615888b5606b24a845f73e","bdp_trlrn","Tue Mar 14 2023 19:46:45 GMT-0400 (Eastern Daylight Time)","508463","Untrustworthy,Trustworthy","","","","ratingFB","","","null","","trustrating_stim/white_mw084.bmp","null","","","","","","","","","","",""
"image-keyboard-response","35","62041","0.0-6.0-1.15","63615888b5606b24a845f73e","bdp_trlrn","Tue Mar 14 2023 19:46:45 GMT-0400 (Eastern Daylight Time)","508463","Untrustworthy,Trustworthy","","","","rating","","","5860","","trustrating_stim/white_mw099.bmp","7","","","","","","","","","","",""
"image-keyboard-response","36","62243","0.0-6.0-2.15","63615888b5606b24a845f73e","bdp_trlrn","Tue Mar 14 2023 19:46:45 GMT-0400 (Eastern Daylight Time)","508463","Untrustworthy,Trustworthy","","","","ratingFB","","","null","","trustrating_stim/white_mw099.bmp","null","","","","","","","","","","",""
"image-keyboard-response","37","65376","0.0-6.0-1.16","63615888b5606b24a845f73e","bdp_trlrn","Tue Mar 14 2023 19:46:45 GMT-0400 (Eastern Daylight Time)","508463","Untrustworthy,Trustworthy","","","","rating","","","3032","","trustrating_stim/white_mw060.bmp","1","","","","","","","","","","",""
"image-keyboard-response","38","65578","0.0-6.0-2.16","63615888b5606b24a845f73e","bdp_trlrn","Tue Mar 14 2023 19:46:45 GMT-0400 (Eastern Daylight Time)","508463","Untrustworthy,Trustworthy","","","","ratingFB","","","null","","trustrating_stim/white_mw060.bmp","null","","","","","","","","","","",""
"image-keyboard-response","39","68996","0.0-6.0-1.17","63615888b5606b24a845f73e","bdp_trlrn","Tue Mar 14 2023 19:46:45 GMT-0400 (Eastern Daylight Time)","508463","Untrustworthy,Trustworthy","","","","rating","","","3317","","trustrating_stim/white_mw097.bmp","3","","","","","","","","","","",""
"image-keyboard-response","40","69198","0.0-6.0-2.17","63615888b5606b24a845f73e","bdp_trlrn","Tue Mar 14 2023 19:46:45 GMT-0400 (Eastern Daylight Time)","508463","Untrustworthy,Trustworthy","","","","ratingFB","","","null","","trustrating_stim/white_mw097.bmp","null","","","","","","","","","","",""
"image-keyboard-response","41","71071","0.0-6.0-1.18","63615888b5606b24a845f73e","bdp_trlrn","Tue Mar 14 2023 19:46:45 GMT-0400 (Eastern Daylight Time)","508463","Untrustworthy,Trustworthy","","","","rating","","","1772","","trustrating_stim/white_00129_931230_fb_edt.bmp","4","","","","","","","","","","",""
"image-keyboard-response","42","71272","0.0-6.0-2.18","63615888b5606b24a845f73e","bdp_trlrn","Tue Mar 14 2023 19:46:45 GMT-0400 (Eastern Daylight Time)","508463","Untrustworthy,Trustworthy","","","","ratingFB","","","null","","trustrating_stim/white_00129_931230_fb_edt.bmp","null","","","","","","","","","","",""
"image-keyboard-response","43","73773","0.0-6.0-1.19","63615888b5606b24a845f73e","bdp_trlrn","Tue Mar 14 2023 19:46:45 GMT-0400 (Eastern Daylight Time)","508463","Untrustworthy,Trustworthy","","","","rating","","","2399","","trustrating_stim/white_00299_940422_fa_edt.bmp","2","","","","","","","","","","",""
"image-keyboard-response","44","73974","0.0-6.0-2.19","63615888b5606b24a845f73e","bdp_trlrn","Tue Mar 14 2023 19:46:45 GMT-0400 (Eastern Daylight Time)","508463","Untrustworthy,Trustworthy","","","","ratingFB","","","null","","trustrating_stim/white_00299_940422_fa_edt.bmp","null","","","","","","","","","","",""
"image-keyboard-response","45","75603","0.0-6.0-1.20","63615888b5606b24a845f73e","bdp_trlrn","Tue Mar 14 2023 19:46:45 GMT-0400 (Eastern Daylight Time)","508463","Untrustworthy,Trustworthy","","","","rating","","","1528","","trustrating_stim/white_mw063.bmp","3","","","","","","","","","","",""
"image-keyboard-response","46","75806","0.0-6.0-2.20","63615888b5606b24a845f73e","bdp_trlrn","Tue Mar 14 2023 19:46:45 GMT-0400 (Eastern Daylight Time)","508463","Untrustworthy,Trustworthy","","","","ratingFB","","","null","","trustrating_stim/white_mw063.bmp","null","","","","","","","","","","",""
"image-keyboard-response","47","77396","0.0-6.0-1.21","63615888b5606b24a845f73e","bdp_trlrn","Tue Mar 14 2023 19:46:45 GMT-0400 (Eastern Daylight Time)","508463","Untrustworthy,Trustworthy","","","","rating","","","1489","","trustrating_stim/white_mw035.bmp","6","","","","","","","","","","",""
"image-keyboard-response","48","77598","0.0-6.0-2.21","63615888b5606b24a845f73e","bdp_trlrn","Tue Mar 14 2023 19:46:45 GMT-0400 (Eastern Daylight Time)","508463","Untrustworthy,Trustworthy","","","","ratingFB","","","null","","trustrating_stim/white_mw035.bmp","null","","","","","","","","","","",""
"image-keyboard-response","49","78756","0.0-6.0-1.22","63615888b5606b24a845f73e","bdp_trlrn","Tue Mar 14 2023 19:46:45 GMT-0400 (Eastern Daylight Time)","508463","Untrustworthy,Trustworthy","","","","rating","","","1057","","trustrating_stim/white_mw053.bmp","5","","","","","","","","","","",""
"image-keyboard-response","50","78958","0.0-6.0-2.22","63615888b5606b24a845f73e","bdp_trlrn","Tue Mar 14 2023 19:46:45 GMT-0400 (Eastern Daylight Time)","508463","Untrustworthy,Trustworthy","","","","ratingFB","","","null","","trustrating_stim/white_mw053.bmp","null","","","","","","","","","","",""
"image-keyboard-response","51","80580","0.0-6.0-1.23","63615888b5606b24a845f73e","bdp_trlrn","Tue Mar 14 2023 19:46:45 GMT-0400 (Eastern Daylight Time)","508463","Untrustworthy,Trustworthy","","","","rating","","","1520","","trustrating_stim/white_00757_941201_fa_edt.bmp","4","","","","","","","","","","",""
"image-keyboard-response","52","80781","0.0-6.0-2.23","63615888b5606b24a845f73e","bdp_trlrn","Tue Mar 14 2023 19:46:45 GMT-0400 (Eastern Daylight Time)","508463","Untrustworthy,Trustworthy","","","","ratingFB","","","null","","trustrating_stim/white_00757_941201_fa_edt.bmp","null","","","","","","","","","","",""
"image-keyboard-response","53","82816","0.0-6.0-1.24","63615888b5606b24a845f73e","bdp_trlrn","Tue Mar 14 2023 19:46:45 GMT-0400 (Eastern Daylight Time)","508463","Untrustworthy,Trustworthy","","","","rating","","","1933","","trustrating_stim/white_00340_940422_fa_edt.bmp","7","","","","","","","","","","",""
"image-keyboard-response","54","83017","0.0-6.0-2.24","63615888b5606b24a845f73e","bdp_trlrn","Tue Mar 14 2023 19:46:45 GMT-0400 (Eastern Daylight Time)","508463","Untrustworthy,Trustworthy","","","","ratingFB","","","null","","trustrating_stim/white_00340_940422_fa_edt.bmp","null","","","","","","","","","","",""
"image-keyboard-response","55","84277","0.0-6.0-1.25","63615888b5606b24a845f73e","bdp_trlrn","Tue Mar 14 2023 19:46:45 GMT-0400 (Eastern Daylight Time)","508463","Untrustworthy,Trustworthy","","","","rating","","","1158","","trustrating_stim/white_mw066.bmp","7","","","","","","","","","","",""
"image-keyboard-response","56","84484","0.0-6.0-2.25","63615888b5606b24a845f73e","bdp_trlrn","Tue Mar 14 2023 19:46:45 GMT-0400 (Eastern Daylight Time)","508463","Untrustworthy,Trustworthy","","","","ratingFB","","","null","","trustrating_stim/white_mw066.bmp","null","","","","","","","","","","",""
"image-keyboard-response","57","86305","0.0-6.0-1.26","63615888b5606b24a845f73e","bdp_trlrn","Tue Mar 14 2023 19:46:45 GMT-0400 (Eastern Daylight Time)","508463","Untrustworthy,Trustworthy","","","","rating","","","1718","","trustrating_stim/white_00577_940928_fa_edt.bmp","6","","","","","","","","","","",""
"image-keyboard-response","58","86506","0.0-6.0-2.26","63615888b5606b24a845f73e","bdp_trlrn","Tue Mar 14 2023 19:46:45 GMT-0400 (Eastern Daylight Time)","508463","Untrustworthy,Trustworthy","","","","ratingFB","","","null","","trustrating_stim/white_00577_940928_fa_edt.bmp","null","","","","","","","","","","",""
"image-keyboard-response","59","88177","0.0-6.0-1.27","63615888b5606b24a845f73e","bdp_trlrn","Tue Mar 14 2023 19:46:45 GMT-0400 (Eastern Daylight Time)","508463","Untrustworthy,Trustworthy","","","","rating","","","1569","","trustrating_stim/white_00120_931230_fa_edt.bmp","8","","","","","","","","","","",""
"image-keyboard-response","60","88378","0.0-6.0-2.27","63615888b5606b24a845f73e","bdp_trlrn","Tue Mar 14 2023 19:46:45 GMT-0400 (Eastern Daylight Time)","508463","Untrustworthy,Trustworthy","","","","ratingFB","","","null","","trustrating_stim/white_00120_931230_fa_edt.bmp","null","","","","","","","","","","",""
"image-keyboard-response","61","89943","0.0-6.0-1.28","63615888b5606b24a845f73e","bdp_trlrn","Tue Mar 14 2023 19:46:45 GMT-0400 (Eastern Daylight Time)","508463","Untrustworthy,Trustworthy","","","","rating","","","1463","","trustrating_stim/white_00807_941205_fb_edt.bmp","5","","","","","","","","","","",""
"image-keyboard-response","62","90145","0.0-6.0-2.28","63615888b5606b24a845f73e","bdp_trlrn","Tue Mar 14 2023 19:46:45 GMT-0400 (Eastern Daylight Time)","508463","Untrustworthy,Trustworthy","","","","ratingFB","","","null","","trustrating_stim/white_00807_941205_fb_edt.bmp","null","","","","","","","","","","",""
"image-keyboard-response","63","91472","0.0-6.0-1.29","63615888b5606b24a845f73e","bdp_trlrn","Tue Mar 14 2023 19:46:45 GMT-0400 (Eastern Daylight Time)","508463","Untrustworthy,Trustworthy","","","","rating","","","1226","","trustrating_stim/white_mw071.bmp","3","","","","","","","","","","",""
"image-keyboard-response","64","91673","0.0-6.0-2.29","63615888b5606b24a845f73e","bdp_trlrn","Tue Mar 14 2023 19:46:45 GMT-0400 (Eastern Daylight Time)","508463","Untrustworthy,Trustworthy","","","","ratingFB","","","null","","trustrating_stim/white_mw071.bmp","null","","","","","","","","","","",""
"image-keyboard-response","65","94678","0.0-6.0-1.30","63615888b5606b24a845f73e","bdp_trlrn","Tue Mar 14 2023 19:46:45 GMT-0400 (Eastern Daylight Time)","508463","Untrustworthy,Trustworthy","","","","rating","","","2903","","trustrating_stim/white_00299_940422_fa_edt.bmp","6","","","","","","","","","","",""
"image-keyboard-response","66","94879","0.0-6.0-2.30","63615888b5606b24a845f73e","bdp_trlrn","Tue Mar 14 2023 19:46:45 GMT-0400 (Eastern Daylight Time)","508463","Untrustworthy,Trustworthy","","","","ratingFB","","","null","","trustrating_stim/white_00299_940422_fa_edt.bmp","null","","","","","","","","","","",""
"image-keyboard-response","67","96569","0.0-6.0-1.31","63615888b5606b24a845f73e","bdp_trlrn","Tue Mar 14 2023 19:46:45 GMT-0400 (Eastern Daylight Time)","508463","Untrustworthy,Trustworthy","","","","rating","","","1588","","trustrating_stim/white_mw097.bmp","2","","","","","","","","","","",""
"image-keyboard-response","68","96770","0.0-6.0-2.31","63615888b5606b24a845f73e","bdp_trlrn","Tue Mar 14 2023 19:46:45 GMT-0400 (Eastern Daylight Time)","508463","Untrustworthy,Trustworthy","","","","ratingFB","","","null","","trustrating_stim/white_mw097.bmp","null","","","","","","","","","","",""
"image-keyboard-response","69","98870","0.0-6.0-1.32","63615888b5606b24a845f73e","bdp_trlrn","Tue Mar 14 2023 19:46:45 GMT-0400 (Eastern Daylight Time)","508463","Untrustworthy,Trustworthy","","","","rating","","","2000","","trustrating_stim/white_mw099.bmp","3","","","","","","","","","","",""
"image-keyboard-response","70","99071","0.0-6.0-2.32","63615888b5606b24a845f73e","bdp_trlrn","Tue Mar 14 2023 19:46:45 GMT-0400 (Eastern Daylight Time)","508463","Untrustworthy,Trustworthy","","","","ratingFB","","","null","","trustrating_stim/white_mw099.bmp","null","","","","","","","","","","",""
"image-keyboard-response","71","104248","0.0-6.0-1.33","63615888b5606b24a845f73e","bdp_trlrn","Tue Mar 14 2023 19:46:45 GMT-0400 (Eastern Daylight Time)","508463","Untrustworthy,Trustworthy","","","","rating","","","5075","","trustrating_stim/white_00577_940928_fa_edt.bmp","7","","","","","","","","","","",""
"image-keyboard-response","72","104449","0.0-6.0-2.33","63615888b5606b24a845f73e","bdp_trlrn","Tue Mar 14 2023 19:46:45 GMT-0400 (Eastern Daylight Time)","508463","Untrustworthy,Trustworthy","","","","ratingFB","","","null","","trustrating_stim/white_00577_940928_fa_edt.bmp","null","","","","","","","","","","",""
"image-keyboard-response","73","106272","0.0-6.0-1.34","63615888b5606b24a845f73e","bdp_trlrn","Tue Mar 14 2023 19:46:45 GMT-0400 (Eastern Daylight Time)","508463","Untrustworthy,Trustworthy","","","","rating","","","1722","","trustrating_stim/white_mw048.bmp","6","","","","","","","","","","",""
"image-keyboard-response","74","106474","0.0-6.0-2.34","63615888b5606b24a845f73e","bdp_trlrn","Tue Mar 14 2023 19:46:45 GMT-0400 (Eastern Daylight Time)","508463","Untrustworthy,Trustworthy","","","","ratingFB","","","null","","trustrating_stim/white_mw048.bmp","null","","","","","","","","","","",""
"image-keyboard-response","75","108417","0.0-6.0-1.35","63615888b5606b24a845f73e","bdp_trlrn","Tue Mar 14 2023 19:46:45 GMT-0400 (Eastern Daylight Time)","508463","Untrustworthy,Trustworthy","","","","rating","","","1841","","trustrating_stim/white_mw089.bmp","4","","","","","","","","","","",""
"image-keyboard-response","76","108619","0.0-6.0-2.35","63615888b5606b24a845f73e","bdp_trlrn","Tue Mar 14 2023 19:46:45 GMT-0400 (Eastern Daylight Time)","508463","Untrustworthy,Trustworthy","","","","ratingFB","","","null","","trustrating_stim/white_mw089.bmp","null","","","","","","","","","","",""
"image-keyboard-response","77","110651","0.0-6.0-1.36","63615888b5606b24a845f73e","bdp_trlrn","Tue Mar 14 2023 19:46:45 GMT-0400 (Eastern Daylight Time)","508463","Untrustworthy,Trustworthy","","","","rating","","","1931","","trustrating_stim/white_00761_941201_fb_edt.bmp","9","","","","","","","","","","",""
"image-keyboard-response","78","110853","0.0-6.0-2.36","63615888b5606b24a845f73e","bdp_trlrn","Tue Mar 14 2023 19:46:45 GMT-0400 (Eastern Daylight Time)","508463","Untrustworthy,Trustworthy","","","","ratingFB","","","null","","trustrating_stim/white_00761_941201_fb_edt.bmp","null","","","","","","","","","","",""
"image-keyboard-response","79","113541","0.0-6.0-1.37","63615888b5606b24a845f73e","bdp_trlrn","Tue Mar 14 2023 19:46:45 GMT-0400 (Eastern Daylight Time)","508463","Untrustworthy,Trustworthy","","","","rating","","","2587","","trustrating_stim/white_mw056.bmp","7","","","","","","","","","","",""
"image-keyboard-response","80","113743","0.0-6.0-2.37","63615888b5606b24a845f73e","bdp_trlrn","Tue Mar 14 2023 19:46:45 GMT-0400 (Eastern Daylight Time)","508463","Untrustworthy,Trustworthy","","","","ratingFB","","","null","","trustrating_stim/white_mw056.bmp","null","","","","","","","","","","",""
"image-keyboard-response","81","115712","0.0-6.0-1.38","63615888b5606b24a845f73e","bdp_trlrn","Tue Mar 14 2023 19:46:45 GMT-0400 (Eastern Daylight Time)","508463","Untrustworthy,Trustworthy","","","","rating","","","1867","","trustrating_stim/white_mw035.bmp","6","","","","","","","","","","",""
"image-keyboard-response","82","115913","0.0-6.0-2.38","63615888b5606b24a845f73e","bdp_trlrn","Tue Mar 14 2023 19:46:45 GMT-0400 (Eastern Daylight Time)","508463","Untrustworthy,Trustworthy","","","","ratingFB","","","null","","trustrating_stim/white_mw035.bmp","null","","","","","","","","","","",""
"image-keyboard-response","83","117307","0.0-6.0-1.39","63615888b5606b24a845f73e","bdp_trlrn","Tue Mar 14 2023 19:46:45 GMT-0400 (Eastern Daylight Time)","508463","Untrustworthy,Trustworthy","","","","rating","","","1292","","trustrating_stim/white_mw060.bmp","4","","","","","","","","","","",""
"image-keyboard-response","84","117508","0.0-6.0-2.39","63615888b5606b24a845f73e","bdp_trlrn","Tue Mar 14 2023 19:46:45 GMT-0400 (Eastern Daylight Time)","508463","Untrustworthy,Trustworthy","","","","ratingFB","","","null","","trustrating_stim/white_mw060.bmp","null","","","","","","","","","","",""
"image-keyboard-response","85","120717","0.0-6.0-1.40","63615888b5606b24a845f73e","bdp_trlrn","Tue Mar 14 2023 19:46:45 GMT-0400 (Eastern Daylight Time)","508463","Untrustworthy,Trustworthy","","","","rating","","","3108","","trustrating_stim/white_00120_931230_fa_edt.bmp","5","","","","","","","","","","",""
"image-keyboard-response","86","120918","0.0-6.0-2.40","63615888b5606b24a845f73e","bdp_trlrn","Tue Mar 14 2023 19:46:45 GMT-0400 (Eastern Daylight Time)","508463","Untrustworthy,Trustworthy","","","","ratingFB","","","null","","trustrating_stim/white_00120_931230_fa_edt.bmp","null","","","","","","","","","","",""
"image-keyboard-response","87","121980","0.0-6.0-1.41","63615888b5606b24a845f73e","bdp_trlrn","Tue Mar 14 2023 19:46:45 GMT-0400 (Eastern Daylight Time)","508463","Untrustworthy,Trustworthy","","","","rating","","","960","","trustrating_stim/white_mw049.bmp","6","","","","","","","","","","",""
"image-keyboard-response","88","122182","0.0-6.0-2.41","63615888b5606b24a845f73e","bdp_trlrn","Tue Mar 14 2023 19:46:45 GMT-0400 (Eastern Daylight Time)","508463","Untrustworthy,Trustworthy","","","","ratingFB","","","null","","trustrating_stim/white_mw049.bmp","null","","","","","","","","","","",""
"image-keyboard-response","89","123606","0.0-6.0-1.42","63615888b5606b24a845f73e","bdp_trlrn","Tue Mar 14 2023 19:46:45 GMT-0400 (Eastern Daylight Time)","508463","Untrustworthy,Trustworthy","","","","rating","","","1323","","trustrating_stim/white_00659_941121_fa_edt.bmp","6","","","","","","","","","","",""
"image-keyboard-response","90","123808","0.0-6.0-2.42","63615888b5606b24a845f73e","bdp_trlrn","Tue Mar 14 2023 19:46:45 GMT-0400 (Eastern Daylight Time)","508463","Untrustworthy,Trustworthy","","","","ratingFB","","","null","","trustrating_stim/white_00659_941121_fa_edt.bmp","null","","","","","","","","","","",""
"image-keyboard-response","91","125862","0.0-6.0-1.43","63615888b5606b24a845f73e","bdp_trlrn","Tue Mar 14 2023 19:46:45 GMT-0400 (Eastern Daylight Time)","508463","Untrustworthy,Trustworthy","","","","rating","","","1953","","trustrating_stim/white_00602_940928_fb_edt.bmp","9","","","","","","","","","","",""
"image-keyboard-response","92","126063","0.0-6.0-2.43","63615888b5606b24a845f73e","bdp_trlrn","Tue Mar 14 2023 19:46:45 GMT-0400 (Eastern Daylight Time)","508463","Untrustworthy,Trustworthy","","","","ratingFB","","","null","","trustrating_stim/white_00602_940928_fb_edt.bmp","null","","","","","","","","","","",""
"image-keyboard-response","93","127844","0.0-6.0-1.44","63615888b5606b24a845f73e","bdp_trlrn","Tue Mar 14 2023 19:46:45 GMT-0400 (Eastern Daylight Time)","508463","Untrustworthy,Trustworthy","","","","rating","","","1680","","trustrating_stim/white_mw084.bmp","4","","","","","","","","","","",""
"image-keyboard-response","94","128046","0.0-6.0-2.44","63615888b5606b24a845f73e","bdp_trlrn","Tue Mar 14 2023 19:46:45 GMT-0400 (Eastern Daylight Time)","508463","Untrustworthy,Trustworthy","","","","ratingFB","","","null","","trustrating_stim/white_mw084.bmp","null","","","","","","","","","","",""
"image-keyboard-response","95","129537","0.0-6.0-1.45","63615888b5606b24a845f73e","bdp_trlrn","Tue Mar 14 2023 19:46:45 GMT-0400 (Eastern Daylight Time)","508463","Untrustworthy,Trustworthy","","","","rating","","","1389","","trustrating_stim/white_00340_940422_fa_edt.bmp","5","","","","","","","","","","",""
"image-keyboard-response","96","129739","0.0-6.0-2.45","63615888b5606b24a845f73e","bdp_trlrn","Tue Mar 14 2023 19:46:45 GMT-0400 (Eastern Daylight Time)","508463","Untrustworthy,Trustworthy","","","","ratingFB","","","null","","trustrating_stim/white_00340_940422_fa_edt.bmp","null","","","","","","","","","","",""
"image-keyboard-response","97","131226","0.0-6.0-1.46","63615888b5606b24a845f73e","bdp_trlrn","Tue Mar 14 2023 19:46:45 GMT-0400 (Eastern Daylight Time)","508463","Untrustworthy,Trustworthy","","","","rating","","","1385","","trustrating_stim/white_00109_931230_fa_edt.bmp","6","","","","","","","","","","",""
"image-keyboard-response","98","131427","0.0-6.0-2.46","63615888b5606b24a845f73e","bdp_trlrn","Tue Mar 14 2023 19:46:45 GMT-0400 (Eastern Daylight Time)","508463","Untrustworthy,Trustworthy","","","","ratingFB","","","null","","trustrating_stim/white_00109_931230_fa_edt.bmp","null","","","","","","","","","","",""
"image-keyboard-response","99","132769","0.0-6.0-1.47","63615888b5606b24a845f73e","bdp_trlrn","Tue Mar 14 2023 19:46:45 GMT-0400 (Eastern Daylight Time)","508463","Untrustworthy,Trustworthy","","","","rating","","","1240","","trustrating_stim/white_mw033.bmp","4","","","","","","","","","","",""
"image-keyboard-response","100","132970","0.0-6.0-2.47","63615888b5606b24a845f73e","bdp_trlrn","Tue Mar 14 2023 19:46:45 GMT-0400 (Eastern Daylight Time)","508463","Untrustworthy,Trustworthy","","","","ratingFB","","","null","","trustrating_stim/white_mw033.bmp","null","","","","","","","","","","",""
"image-keyboard-response","101","134592","0.0-6.0-1.48","63615888b5606b24a845f73e","bdp_trlrn","Tue Mar 14 2023 19:46:45 GMT-0400 (Eastern Daylight Time)","508463","Untrustworthy,Trustworthy","","","","rating","","","1520","","trustrating_stim/white_mw053.bmp","6","","","","","","","","","","",""
"image-keyboard-response","102","134794","0.0-6.0-2.48","63615888b5606b24a845f73e","bdp_trlrn","Tue Mar 14 2023 19:46:45 GMT-0400 (Eastern Daylight Time)","508463","Untrustworthy,Trustworthy","","","","ratingFB","","","null","","trustrating_stim/white_mw053.bmp","null","","","","","","","","","","",""
"image-keyboard-response","103","136825","0.0-6.0-1.49","63615888b5606b24a845f73e","bdp_trlrn","Tue Mar 14 2023 19:46:45 GMT-0400 (Eastern Daylight Time)","508463","Untrustworthy,Trustworthy","","","","rating","","","1930","","trustrating_stim/white_00223_940128_fb_edt.bmp","3","","","","","","","","","","",""
"image-keyboard-response","104","137027","0.0-6.0-2.49","63615888b5606b24a845f73e","bdp_trlrn","Tue Mar 14 2023 19:46:45 GMT-0400 (Eastern Daylight Time)","508463","Untrustworthy,Trustworthy","","","","ratingFB","","","null","","trustrating_stim/white_00223_940128_fb_edt.bmp","null","","","","","","","","","","",""
"image-keyboard-response","105","138838","0.0-6.0-1.50","63615888b5606b24a845f73e","bdp_trlrn","Tue Mar 14 2023 19:46:45 GMT-0400 (Eastern Daylight Time)","508463","Untrustworthy,Trustworthy","","","","rating","","","1710","","trustrating_stim/white_00898_960530_fa_edt.bmp","7","","","","","","","","","","",""
"image-keyboard-response","106","139040","0.0-6.0-2.50","63615888b5606b24a845f73e","bdp_trlrn","Tue Mar 14 2023 19:46:45 GMT-0400 (Eastern Daylight Time)","508463","Untrustworthy,Trustworthy","","","","ratingFB","","","null","","trustrating_stim/white_00898_960530_fa_edt.bmp","null","","","","","","","","","","",""
"image-keyboard-response","107","140533","0.0-6.0-1.51","63615888b5606b24a845f73e","bdp_trlrn","Tue Mar 14 2023 19:46:45 GMT-0400 (Eastern Daylight Time)","508463","Untrustworthy,Trustworthy","","","","rating","","","1391","","trustrating_stim/white_00519_940519_fb_edt.bmp","9","","","","","","","","","","",""
"image-keyboard-response","108","140735","0.0-6.0-2.51","63615888b5606b24a845f73e","bdp_trlrn","Tue Mar 14 2023 19:46:45 GMT-0400 (Eastern Daylight Time)","508463","Untrustworthy,Trustworthy","","","","ratingFB","","","null","","trustrating_stim/white_00519_940519_fb_edt.bmp","null","","","","","","","","","","",""
"image-keyboard-response","109","144731","0.0-6.0-1.52","63615888b5606b24a845f73e","bdp_trlrn","Tue Mar 14 2023 19:46:45 GMT-0400 (Eastern Daylight Time)","508463","Untrustworthy,Trustworthy","","","","rating","","","3894","","trustrating_stim/white_00129_931230_fb_edt.bmp","5","","","","","","","","","","",""
"image-keyboard-response","110","144932","0.0-6.0-2.52","63615888b5606b24a845f73e","bdp_trlrn","Tue Mar 14 2023 19:46:45 GMT-0400 (Eastern Daylight Time)","508463","Untrustworthy,Trustworthy","","","","ratingFB","","","null","","trustrating_stim/white_00129_931230_fb_edt.bmp","null","","","","","","","","","","",""
"image-keyboard-response","111","146847","0.0-6.0-1.53","63615888b5606b24a845f73e","bdp_trlrn","Tue Mar 14 2023 19:46:45 GMT-0400 (Eastern Daylight Time)","508463","Untrustworthy,Trustworthy","","","","rating","","","1813","","trustrating_stim/white_00785_941205_fb_edt.bmp","7","","","","","","","","","","",""
"image-keyboard-response","112","147048","0.0-6.0-2.53","63615888b5606b24a845f73e","bdp_trlrn","Tue Mar 14 2023 19:46:45 GMT-0400 (Eastern Daylight Time)","508463","Untrustworthy,Trustworthy","","","","ratingFB","","","null","","trustrating_stim/white_00785_941205_fb_edt.bmp","null","","","","","","","","","","",""
"image-keyboard-response","113","148168","0.0-6.0-1.54","63615888b5606b24a845f73e","bdp_trlrn","Tue Mar 14 2023 19:46:45 GMT-0400 (Eastern Daylight Time)","508463","Untrustworthy,Trustworthy","","","","rating","","","1018","","trustrating_stim/white_mw071.bmp","3","","","","","","","","","","",""
"image-keyboard-response","114","148369","0.0-6.0-2.54","63615888b5606b24a845f73e","bdp_trlrn","Tue Mar 14 2023 19:46:45 GMT-0400 (Eastern Daylight Time)","508463","Untrustworthy,Trustworthy","","","","ratingFB","","","null","","trustrating_stim/white_mw071.bmp","null","","","","","","","","","","",""
"image-keyboard-response","115","151019","0.0-6.0-1.55","63615888b5606b24a845f73e","bdp_trlrn","Tue Mar 14 2023 19:46:45 GMT-0400 (Eastern Daylight Time)","508463","Untrustworthy,Trustworthy","","","","rating","","","2548","","trustrating_stim/white_00757_941201_fa_edt.bmp","1","","","","","","","","","","",""
"image-keyboard-response","116","151220","0.0-6.0-2.55","63615888b5606b24a845f73e","bdp_trlrn","Tue Mar 14 2023 19:46:45 GMT-0400 (Eastern Daylight Time)","508463","Untrustworthy,Trustworthy","","","","ratingFB","","","null","","trustrating_stim/white_00757_941201_fa_edt.bmp","null","","","","","","","","","","",""
"image-keyboard-response","117","152402","0.0-6.0-1.56","63615888b5606b24a845f73e","bdp_trlrn","Tue Mar 14 2023 19:46:45 GMT-0400 (Eastern Daylight Time)","508463","Untrustworthy,Trustworthy","","","","rating","","","1081","","trustrating_stim/white_mw046.bmp","1","","","","","","","","","","",""
"image-keyboard-response","118","152604","0.0-6.0-2.56","63615888b5606b24a845f73e","bdp_trlrn","Tue Mar 14 2023 19:46:45 GMT-0400 (Eastern Daylight Time)","508463","Untrustworthy,Trustworthy","","","","ratingFB","","","null","","trustrating_stim/white_mw046.bmp","null","","","","","","","","","","",""
"image-keyboard-response","119","154037","0.0-6.0-1.57","63615888b5606b24a845f73e","bdp_trlrn","Tue Mar 14 2023 19:46:45 GMT-0400 (Eastern Daylight Time)","508463","Untrustworthy,Trustworthy","","","","rating","","","1331","","trustrating_stim/white_00807_941205_fb_edt.bmp","7","","","","","","","","","","",""
"image-keyboard-response","120","154237","0.0-6.0-2.57","63615888b5606b24a845f73e","bdp_trlrn","Tue Mar 14 2023 19:46:45 GMT-0400 (Eastern Daylight Time)","508463","Untrustworthy,Trustworthy","","","","ratingFB","","","null","","trustrating_stim/white_00807_941205_fb_edt.bmp","null","","","","","","","","","","",""
"image-keyboard-response","121","156445","0.0-6.0-1.58","63615888b5606b24a845f73e","bdp_trlrn","Tue Mar 14 2023 19:46:45 GMT-0400 (Eastern Daylight Time)","508463","Untrustworthy,Trustworthy","","","","rating","","","2106","","trustrating_stim/white_mw063.bmp","3","","","","","","","","","","",""
"image-keyboard-response","122","156660","0.0-6.0-2.58","63615888b5606b24a845f73e","bdp_trlrn","Tue Mar 14 2023 19:46:45 GMT-0400 (Eastern Daylight Time)","508463","Untrustworthy,Trustworthy","","","","ratingFB","","","null","","trustrating_stim/white_mw063.bmp","null","","","","","","","","","","",""
"image-keyboard-response","123","157816","0.0-6.0-1.59","63615888b5606b24a845f73e","bdp_trlrn","Tue Mar 14 2023 19:46:45 GMT-0400 (Eastern Daylight Time)","508463","Untrustworthy,Trustworthy","","","","rating","","","1054","","trustrating_stim/white_mw066.bmp","2","","","","","","","","","","",""
"image-keyboard-response","124","158017","0.0-6.0-2.59","63615888b5606b24a845f73e","bdp_trlrn","Tue Mar 14 2023 19:46:45 GMT-0400 (Eastern Daylight Time)","508463","Untrustworthy,Trustworthy","","","","ratingFB","","","null","","trustrating_stim/white_mw066.bmp","null","","","","","","","","","","",""
"instructions","125","159316","0.0-7.0","63615888b5606b24a845f73e","bdp_trlrn","Tue Mar 14 2023 19:46:45 GMT-0400 (Eastern Daylight Time)","508463","Untrustworthy,Trustworthy","","","","","","[{""page_index"":0,""viewing_time"":1196}]","1197","","","","","","","","","","","","","",""
"instructions","126","214498","0.0-8.0","63615888b5606b24a845f73e","bdp_trlrn","Tue Mar 14 2023 19:46:45 GMT-0400 (Eastern Daylight Time)","508463","Untrustworthy,Trustworthy","","","","","","[{""page_index"":0,""viewing_time"":2212},{""page_index"":1,""viewing_time"":24392},{""page_index"":2,""viewing_time"":818},{""page_index"":3,""viewing_time"":8626},{""page_index"":4,""viewing_time"":3100},{""page_index"":5,""viewing_time"":6196},{""page_index"":6,""viewing_time"":9006},{""page_index"":7,""viewing_time"":731}]","55081","","","","","","","","","","","","","",""
"html-keyboard-response","127","220331","0.0-9.0","63615888b5606b24a845f73e","bdp_trlrn","Tue Mar 14 2023 19:46:45 GMT-0400 (Eastern Daylight Time)","508463","Untrustworthy,Trustworthy","","","","","","","5832","","<div class='header' style='text-align:left; position: absolute; top: 5%; left: 5%;'><small>Task 3 of 5</small></div><div class='instruxDiv'><p><strong>1) What is the minimum number of points you can choose to send to your partner?</strong></p><p>a) 0</p><p>b) 1</p><p>c) 5</p>","B","","","","","","","","","","",""
"html-keyboard-response","128","221361","0.0-10.0","63615888b5606b24a845f73e","bdp_trlrn","Tue Mar 14 2023 19:46:45 GMT-0400 (Eastern Daylight Time)","508463","Untrustworthy,Trustworthy","","","","","","","929","","<div class='header' style='text-align:left; position: absolute; top: 5%; left: 5%;'><small>Task 3 of 5</small></div><div class='instruxDiv'><p><strong>1) What is the minimum number of points you can choose to send to your partner?</strong></p><p>a) 0</p><p style='color:#00FF00'>b) 1</p><p>c) 5</p><h3 style='color:#00FF00'>Correct!</h3><h3 class='center-content'>The correct response is b).</h3><h3 class='center-content'>The minimum number of points you can choose to send to your partner is 1 point.</h3><p><em>Press SPACEBAR to continue</em></p></div>"," ","","","","","","","","","","",""
"html-keyboard-response","129","224545","0.0-11.0","63615888b5606b24a845f73e","bdp_trlrn","Tue Mar 14 2023 19:46:45 GMT-0400 (Eastern Daylight Time)","508463","Untrustworthy,Trustworthy","","","","","","","3083","","<div class='header' style='text-align:left; position: absolute; top: 5%; left: 5%;'><small>Task 3 of 5</small></div><div class='instruxDiv'><p><strong>2) What is the maximum number of points you can choose to send to your partner?</strong></p><p>a) 8</p><p>b) 5</p><p>c) 3</p>","B","","","","","","","","","","",""
"html-keyboard-response","130","225411","0.0-12.0","63615888b5606b24a845f73e","bdp_trlrn","Tue Mar 14 2023 19:46:45 GMT-0400 (Eastern Daylight Time)","508463","Untrustworthy,Trustworthy","","","","","","","765","","<div class='header' style='text-align:left; position: absolute; top: 5%; left: 5%;'><small>Task 3 of 5</small></div><div class='instruxDiv'><p><strong>2) What is the maximum number of points you can choose to send to your partner?</strong></p><p>a) 8</p><p style='color:#00FF00'>b) 5</p><p>c) 3</p><h3 style='color:#00FF00'>Correct!</h3><h3 class='center-content'>The correct response is b).</h3><h3 class='center-content'>The maximum number of points you can choose to send to your partner is 5 points.</h3><p><em>Press SPACEBAR to continue</em></p></div>"," ","","","","","","","","","","",""
"html-keyboard-response","131","229119","0.0-13.0","63615888b5606b24a845f73e","bdp_trlrn","Tue Mar 14 2023 19:46:45 GMT-0400 (Eastern Daylight Time)","508463","Untrustworthy,Trustworthy","","","","","","","3607","","<div class='header' style='text-align:left; position: absolute; top: 5%; left: 5%;'><small>Task 3 of 5</small></div><div class='instruxDiv'><p><strong>3) What happens to the amount of points you send to your partner?</strong></p><p>a) Nothing</p><p>b) It doubles</p><p>c) It quadruples</p>","C","","","","","","","","","","",""
"html-keyboard-response","132","229823","0.0-14.0","63615888b5606b24a845f73e","bdp_trlrn","Tue Mar 14 2023 19:46:45 GMT-0400 (Eastern Daylight Time)","508463","Untrustworthy,Trustworthy","","","","","","","604","","<div class='header' style='text-align:left; position: absolute; top: 5%; left: 5%;'><small>Task 3 of 5</small></div><div class='instruxDiv'><p><strong>3) What happens to the amount of points you send to your partner?</strong></p><p>a) Nothing</p><p>b) It doubles</p><p style='color:#00FF00'>c) It quadruples</p><h3 style='color:#00FF00'>Correct!</h3><h3 class='center-content'>The correct response is c).</h3><h3 class='center-content'>The amount of points you send to your partner quadruples.</h3><p><em>Press SPACEBAR to continue</em></p></div>"," ","","","","","","","","","","",""
"html-keyboard-response","133","236604","0.0-15.0","63615888b5606b24a845f73e","bdp_trlrn","Tue Mar 14 2023 19:46:45 GMT-0400 (Eastern Daylight Time)","508463","Untrustworthy,Trustworthy","","","","","","","6680","","<div class='header' style='text-align:left; position: absolute; top: 5%; left: 5%;'><small>Task 3 of 5</small></div><div class='instruxDiv'><p><strong>4) If you decided to share 4 out of 5 points with your partner, and they decided to share half of the amount they received with you, how many points would you receive back from them on this round?</strong></p><p>a) 16</p><p>b) 0</p><p>c) 8</p>","C","","","","","","","","","","",""
"html-keyboard-response","134","237101","0.0-16.0","63615888b5606b24a845f73e","bdp_trlrn","Tue Mar 14 2023 19:46:45 GMT-0400 (Eastern Daylight Time)","508463","Untrustworthy,Trustworthy","","","","","","","395","","<div class='header' style='text-align:left; position: absolute; top: 5%; left: 5%;'><small>Task 3 of 5</small></div><div class='instruxDiv'><p><strong>4) If you decided to share 4 out of 5 points with your partner, and they decided to share half of the amount they received with you, how many points would you receive back from them on this round?</strong></p><p>a) 16</p><p>b) 0</p><p style='color:#00FF00'>c) 8</p><h3 style='color:#00FF00'>Correct!</h3><h3 class='center-content'>The correct response is c).</h3><h3 class='center-content'>If you shared 4 out of 5 points with your partner and they decided to share half of the amount they received with you, you would receive 8 points back (i.e. (4 x 4)/2 = 8).</h3><p><em>Press SPACEBAR to continue</em></p></div>"," ","","","","","","","","","","",""
"html-keyboard-response","135","242203","0.0-17.0","63615888b5606b24a845f73e","bdp_trlrn","Tue Mar 14 2023 19:46:45 GMT-0400 (Eastern Daylight Time)","508463","Untrustworthy,Trustworthy","","","","","","","null","","<div class='header' style='text-align:left; position: absolute; top: 5%; left: 5%;'><small>Task 3 of 5</small></div><div class='instruxDiv'><p>Thank you for completing the quiz<p>These are the actual partners you will be interacting with in the next block:<p><div class='tc' align='center'><img class='introPic' src='trustrating_stim/white_mw063.bmp'><br><strong>Michael</strong></div><div class='bl' align='center'><img class='introPic' src='trustrating_stim/white_00340_940422_fa_edt.bmp'><br><strong>Ryan</strong></div><div class='br' align='center'><img class='introPic' src='trustrating_stim/white_00761_941201_fb_edt.bmp'><br><strong>Benjamin</strong></div></div><p>Across <strong>66 rounds</strong> you will interact with each partner <strong>22 times</strong> (in random order).<p style='align:center; color:white'><font <em>Press SPACEBAR to continue</em></p>","null","","","","","","","","","","",""
"instructions","136","246455","0.0-18.0","63615888b5606b24a845f73e","bdp_trlrn","Tue Mar 14 2023 19:46:45 GMT-0400 (Eastern Daylight Time)","508463","Untrustworthy,Trustworthy","","","","","","[{""page_index"":0,""viewing_time"":2969},{""page_index"":1,""viewing_time"":1283}]","4252","","","","","","","","","","","","","",""
"html-keyboard-response","137","249684","0.0-19.0-1.0","63615888b5606b24a845f73e","bdp_trlrn","Tue Mar 14 2023 19:46:45 GMT-0400 (Eastern Daylight Time)","508463","Untrustworthy,Trustworthy","","","","decision","","","3127","","<div class='trialDiv'><img src='trustrating_stim/white_00761_941201_fb_edt.bmp'><br><font class='baseline'><strong>Benjamin</strong><p>Choose number of points to send.</font><div class='respPicDiv'><img src='img/responseButtonOffersNo0L.png' class='respPic'></div></div>","5","1","Benjamin","9","Shared","0.2,0.8","10","0.2","trustrating_stim/white_00761_941201_fb_edt.bmp","8.5","5","1"
"html-keyboard-response","138","249936","0.0-19.0-2.0","63615888b5606b24a845f73e","bdp_trlrn","Tue Mar 14 2023 19:46:45 GMT-0400 (Eastern Daylight Time)","508463","Untrustworthy,Trustworthy","","","","decisionFB","","","null","","<div class='trialDiv'><img src='trustrating_stim/white_00761_941201_fb_edt.bmp'><br><font class='baseline'><strong>Benjamin</strong><p>Choose number of points to send.</font><div class='respPicDiv'><img src='img/responseButtonOffersNo0L5.png' class='respPic'></div></div>","null","1","Benjamin","9","Shared","0.2,0.8","10","0.2","trustrating_stim/white_00761_941201_fb_edt.bmp","8.5","0","1"
"html-keyboard-response","139","250939","0.0-19.0-3.0","63615888b5606b24a845f73e","bdp_trlrn","Tue Mar 14 2023 19:46:45 GMT-0400 (Eastern Daylight Time)","508463","Untrustworthy,Trustworthy","","","","feedback","","","null","","<div class='trialDiv'><img src='trustrating_stim/white_00761_941201_fb_edt.bmp'><br><font class='baseline'><strong>Benjamin</strong><p>Received: <strong>20</strong></font> &nbsp; &nbsp; &nbsp; &nbsp; &nbsp; &nbsp;<font class='posOutcome'>Shared back: <strong>10</strong></font></font><div class='respPicDiv'><img src='img/responseButtonOffersNo0_wht.png' class='respPic'></div></div>","null","1","Benjamin","9","Shared","0.2,0.8","10","0.2","trustrating_stim/white_00761_941201_fb_edt.bmp","8.5","10","1"
"html-keyboard-response","140","251806","0.0-19.0-1.1","63615888b5606b24a845f73e","bdp_trlrn","Tue Mar 14 2023 19:46:45 GMT-0400 (Eastern Daylight Time)","508463","Untrustworthy,Trustworthy","","","","decision","","","867","","<div class='trialDiv'><img src='trustrating_stim/white_mw063.bmp'><br><font class='baseline'><strong>Michael</strong><p>Choose number of points to send.</font><div class='respPicDiv'><img src='img/responseButtonOffersNo0L.png' class='respPic'></div></div>","5","1","Michael","3","Kept","0.8,0.35","13","0.8","trustrating_stim/white_mw063.bmp","3","15","2"
"html-keyboard-response","141","252058","0.0-19.0-2.1","63615888b5606b24a845f73e","bdp_trlrn","Tue Mar 14 2023 19:46:45 GMT-0400 (Eastern Daylight Time)","508463","Untrustworthy,Trustworthy","","","","decisionFB","","","null","","<div class='trialDiv'><img src='trustrating_stim/white_mw063.bmp'><br><font class='baseline'><strong>Michael</strong><p>Choose number of points to send.</font><div class='respPicDiv'><img src='img/responseButtonOffersNo0L5.png' class='respPic'></div></div>","null","1","Michael","3","Kept","0.8,0.35","13","0.8","trustrating_stim/white_mw063.bmp","3","10","2"
"html-keyboard-response","142","253059","0.0-19.0-3.1","63615888b5606b24a845f73e","bdp_trlrn","Tue Mar 14 2023 19:46:45 GMT-0400 (Eastern Daylight Time)","508463","Untrustworthy,Trustworthy","","","","feedback","","","null","","<div class='trialDiv'><img src='trustrating_stim/white_mw063.bmp'><br><font class='baseline'><strong>Michael</strong><p>Received: <strong>20</strong></font> &nbsp; &nbsp; &nbsp; &nbsp; &nbsp; &nbsp;<font class='negOutcome'>Shared back: <strong>0</strong></font></font><div class='respPicDiv'><img src='img/responseButtonOffersNo0_wht.png' class='respPic'></div></div>","null","1","Michael","3","Kept","0.8,0.35","13","0.8","trustrating_stim/white_mw063.bmp","3","10","2"
"html-keyboard-response","143","254800","0.0-19.0-1.2","63615888b5606b24a845f73e","bdp_trlrn","Tue Mar 14 2023 19:46:45 GMT-0400 (Eastern Daylight Time)","508463","Untrustworthy,Trustworthy","","","","decision","","","1740","","<div class='trialDiv'><img src='trustrating_stim/white_00340_940422_fa_edt.bmp'><br><font class='baseline'><strong>Ryan</strong><p>Choose number of points to send.</font><div class='respPicDiv'><img src='img/responseButtonOffersNo0L.png' class='respPic'></div></div>","5","1","Ryan","7","Shared","0.2,0.65","12","0.2","trustrating_stim/white_00340_940422_fa_edt.bmp","6","15","3"
"html-keyboard-response","144","255052","0.0-19.0-2.2","63615888b5606b24a845f73e","bdp_trlrn","Tue Mar 14 2023 19:46:45 GMT-0400 (Eastern Daylight Time)","508463","Untrustworthy,Trustworthy","","","","decisionFB","","","null","","<div class='trialDiv'><img src='trustrating_stim/white_00340_940422_fa_edt.bmp'><br><font class='baseline'><strong>Ryan</strong><p>Choose number of points to send.</font><div class='respPicDiv'><img src='img/responseButtonOffersNo0L5.png' class='respPic'></div></div>","null","1","Ryan","7","Shared","0.2,0.65","12","0.2","trustrating_stim/white_00340_940422_fa_edt.bmp","6","10","3"
"html-keyboard-response","145","256054","0.0-19.0-3.2","63615888b5606b24a845f73e","bdp_trlrn","Tue Mar 14 2023 19:46:45 GMT-0400 (Eastern Daylight Time)","508463","Untrustworthy,Trustworthy","","","","feedback","","","null","","<div class='trialDiv'><img src='trustrating_stim/white_00340_940422_fa_edt.bmp'><br><font class='baseline'><strong>Ryan</strong><p>Received: <strong>20</strong></font> &nbsp; &nbsp; &nbsp; &nbsp; &nbsp; &nbsp;<font class='posOutcome'>Shared back: <strong>10</strong></font></font><div class='respPicDiv'><img src='img/responseButtonOffersNo0_wht.png' class='respPic'></div></div>","null","1","Ryan","7","Shared","0.2,0.65","12","0.2","trustrating_stim/white_00340_940422_fa_edt.bmp","6","20","3"
"html-keyboard-response","146","257880","0.0-19.0-1.3","63615888b5606b24a845f73e","bdp_trlrn","Tue Mar 14 2023 19:46:45 GMT-0400 (Eastern Daylight Time)","508463","Untrustworthy,Trustworthy","","","","decision","","","1826","","<div class='trialDiv'><img src='trustrating_stim/white_mw063.bmp'><br><font class='baseline'><strong>Michael</strong><p>Choose number of points to send.</font><div class='respPicDiv'><img src='img/responseButtonOffersNo0L.png' class='respPic'></div></div>","1","2","Michael","3","Shared","0.8,0.35","13","0.8","trustrating_stim/white_mw063.bmp","3","25","4"
"html-keyboard-response","147","258132","0.0-19.0-2.3","63615888b5606b24a845f73e","bdp_trlrn","Tue Mar 14 2023 19:46:45 GMT-0400 (Eastern Daylight Time)","508463","Untrustworthy,Trustworthy","","","","decisionFB","","","null","","<div class='trialDiv'><img src='trustrating_stim/white_mw063.bmp'><br><font class='baseline'><strong>Michael</strong><p>Choose number of points to send.</font><div class='respPicDiv'><img src='img/responseButtonOffersNo0L1.png' class='respPic'></div></div>","null","2","Michael","3","Shared","0.8,0.35","13","0.8","trustrating_stim/white_mw063.bmp","3","24","4"
"html-keyboard-response","148","259133","0.0-19.0-3.3","63615888b5606b24a845f73e","bdp_trlrn","Tue Mar 14 2023 19:46:45 GMT-0400 (Eastern Daylight Time)","508463","Untrustworthy,Trustworthy","","","","feedback","","","null","","<div class='trialDiv'><img src='trustrating_stim/white_mw063.bmp'><br><font class='baseline'><strong>Michael</strong><p>Received: <strong>4</strong></font> &nbsp; &nbsp; &nbsp; &nbsp; &nbsp; &nbsp;<font class='posOutcome'>Shared back: <strong>2</strong></font></font><div class='respPicDiv'><img src='img/responseButtonOffersNo0_wht.png' class='respPic'></div></div>","null","2","Michael","3","Shared","0.8,0.35","13","0.8","trustrating_stim/white_mw063.bmp","3","26","4"
"html-keyboard-response","149","259839","0.0-19.0-1.4","63615888b5606b24a845f73e","bdp_trlrn","Tue Mar 14 2023 19:46:45 GMT-0400 (Eastern Daylight Time)","508463","Untrustworthy,Trustworthy","","","","decision","","","705","","<div class='trialDiv'><img src='trustrating_stim/white_00761_941201_fb_edt.bmp'><br><font class='baseline'><strong>Benjamin</strong><p>Choose number of points to send.</font><div class='respPicDiv'><img src='img/responseButtonOffersNo0L.png' class='respPic'></div></div>","5","2","Benjamin","9","Kept","0.2,0.8","10","0.2","trustrating_stim/white_00761_941201_fb_edt.bmp","8.5","31","5"
"html-keyboard-response","150","260090","0.0-19.0-2.4","63615888b5606b24a845f73e","bdp_trlrn","Tue Mar 14 2023 19:46:45 GMT-0400 (Eastern Daylight Time)","508463","Untrustworthy,Trustworthy","","","","decisionFB","","","null","","<div class='trialDiv'><img src='trustrating_stim/white_00761_941201_fb_edt.bmp'><br><font class='baseline'><strong>Benjamin</strong><p>Choose number of points to send.</font><div class='respPicDiv'><img src='img/responseButtonOffersNo0L5.png' class='respPic'></div></div>","null","2","Benjamin","9","Kept","0.2,0.8","10","0.2","trustrating_stim/white_00761_941201_fb_edt.bmp","8.5","26","5"
"html-keyboard-response","151","261091","0.0-19.0-3.4","63615888b5606b24a845f73e","bdp_trlrn","Tue Mar 14 2023 19:46:45 GMT-0400 (Eastern Daylight Time)","508463","Untrustworthy,Trustworthy","","","","feedback","","","null","","<div class='trialDiv'><img src='trustrating_stim/white_00761_941201_fb_edt.bmp'><br><font class='baseline'><strong>Benjamin</strong><p>Received: <strong>20</strong></font> &nbsp; &nbsp; &nbsp; &nbsp; &nbsp; &nbsp;<font class='negOutcome'>Shared back: <strong>0</strong></font></font><div class='respPicDiv'><img src='img/responseButtonOffersNo0_wht.png' class='respPic'></div></div>","null","2","Benjamin","9","Kept","0.2,0.8","10","0.2","trustrating_stim/white_00761_941201_fb_edt.bmp","8.5","26","5"
"html-keyboard-response","152","262284","0.0-19.0-1.5","63615888b5606b24a845f73e","bdp_trlrn","Tue Mar 14 2023 19:46:45 GMT-0400 (Eastern Daylight Time)","508463","Untrustworthy,Trustworthy","","","","decision","","","1192","","<div class='trialDiv'><img src='trustrating_stim/white_00340_940422_fa_edt.bmp'><br><font class='baseline'><strong>Ryan</strong><p>Choose number of points to send.</font><div class='respPicDiv'><img src='img/responseButtonOffersNo0L.png' class='respPic'></div></div>","5","2","Ryan","7","Kept","0.2,0.65","12","0.2","trustrating_stim/white_00340_940422_fa_edt.bmp","6","31","6"
"html-keyboard-response","153","262535","0.0-19.0-2.5","63615888b5606b24a845f73e","bdp_trlrn","Tue Mar 14 2023 19:46:45 GMT-0400 (Eastern Daylight Time)","508463","Untrustworthy,Trustworthy","","","","decisionFB","","","null","","<div class='trialDiv'><img src='trustrating_stim/white_00340_940422_fa_edt.bmp'><br><font class='baseline'><strong>Ryan</strong><p>Choose number of points to send.</font><div class='respPicDiv'><img src='img/responseButtonOffersNo0L5.png' class='respPic'></div></div>","null","2","Ryan","7","Kept","0.2,0.65","12","0.2","trustrating_stim/white_00340_940422_fa_edt.bmp","6","26","6"
"html-keyboard-response","154","263537","0.0-19.0-3.5","63615888b5606b24a845f73e","bdp_trlrn","Tue Mar 14 2023 19:46:45 GMT-0400 (Eastern Daylight Time)","508463","Untrustworthy,Trustworthy","","","","feedback","","","null","","<div class='trialDiv'><img src='trustrating_stim/white_00340_940422_fa_edt.bmp'><br><font class='baseline'><strong>Ryan</strong><p>Received: <strong>20</strong></font> &nbsp; &nbsp; &nbsp; &nbsp; &nbsp; &nbsp;<font class='negOutcome'>Shared back: <strong>0</strong></font></font><div class='respPicDiv'><img src='img/responseButtonOffersNo0_wht.png' class='respPic'></div></div>","null","2","Ryan","7","Kept","0.2,0.65","12","0.2","trustrating_stim/white_00340_940422_fa_edt.bmp","6","26","6"
"html-keyboard-response","155","263752","0.0-19.0-1.6","63615888b5606b24a845f73e","bdp_trlrn","Tue Mar 14 2023 19:46:45 GMT-0400 (Eastern Daylight Time)","508463","Untrustworthy,Trustworthy","","","","decision","","","214","","<div class='trialDiv'><img src='trustrating_stim/white_00761_941201_fb_edt.bmp'><br><font class='baseline'><strong>Benjamin</strong><p>Choose number of points to send.</font><div class='respPicDiv'><img src='img/responseButtonOffersNo0L.png' class='respPic'></div></div>","5","3","Benjamin","9","Shared","0.2,0.8","10","0.2","trustrating_stim/white_00761_941201_fb_edt.bmp","8.5","31","7"
"html-keyboard-response","156","264003","0.0-19.0-2.6","63615888b5606b24a845f73e","bdp_trlrn","Tue Mar 14 2023 19:46:45 GMT-0400 (Eastern Daylight Time)","508463","Untrustworthy,Trustworthy","","","","decisionFB","","","null","","<div class='trialDiv'><img src='trustrating_stim/white_00761_941201_fb_edt.bmp'><br><font class='baseline'><strong>Benjamin</strong><p>Choose number of points to send.</font><div class='respPicDiv'><img src='img/responseButtonOffersNo0L5.png' class='respPic'></div></div>","null","3","Benjamin","9","Shared","0.2,0.8","10","0.2","trustrating_stim/white_00761_941201_fb_edt.bmp","8.5","26","7"
"html-keyboard-response","157","265005","0.0-19.0-3.6","63615888b5606b24a845f73e","bdp_trlrn","Tue Mar 14 2023 19:46:45 GMT-0400 (Eastern Daylight Time)","508463","Untrustworthy,Trustworthy","","","","feedback","","","null","","<div class='trialDiv'><img src='trustrating_stim/white_00761_941201_fb_edt.bmp'><br><font class='baseline'><strong>Benjamin</strong><p>Received: <strong>20</strong></font> &nbsp; &nbsp; &nbsp; &nbsp; &nbsp; &nbsp;<font class='posOutcome'>Shared back: <strong>10</strong></font></font><div class='respPicDiv'><img src='img/responseButtonOffersNo0_wht.png' class='respPic'></div></div>","null","3","Benjamin","9","Shared","0.2,0.8","10","0.2","trustrating_stim/white_00761_941201_fb_edt.bmp","8.5","36","7"
"html-keyboard-response","158","266338","0.0-19.0-1.7","63615888b5606b24a845f73e","bdp_trlrn","Tue Mar 14 2023 19:46:45 GMT-0400 (Eastern Daylight Time)","508463","Untrustworthy,Trustworthy","","","","decision","","","1332","","<div class='trialDiv'><img src='trustrating_stim/white_00340_940422_fa_edt.bmp'><br><font class='baseline'><strong>Ryan</strong><p>Choose number of points to send.</font><div class='respPicDiv'><img src='img/responseButtonOffersNo0L.png' class='respPic'></div></div>","5","3","Ryan","7","Kept","0.2,0.65","12","0.2","trustrating_stim/white_00340_940422_fa_edt.bmp","6","41","8"
"html-keyboard-response","159","266594","0.0-19.0-2.7","63615888b5606b24a845f73e","bdp_trlrn","Tue Mar 14 2023 19:46:45 GMT-0400 (Eastern Daylight Time)","508463","Untrustworthy,Trustworthy","","","","decisionFB","","","null","","<div class='trialDiv'><img src='trustrating_stim/white_00340_940422_fa_edt.bmp'><br><font class='baseline'><strong>Ryan</strong><p>Choose number of points to send.</font><div class='respPicDiv'><img src='img/responseButtonOffersNo0L5.png' class='respPic'></div></div>","null","3","Ryan","7","Kept","0.2,0.65","12","0.2","trustrating_stim/white_00340_940422_fa_edt.bmp","6","36","8"
"html-keyboard-response","160","267596","0.0-19.0-3.7","63615888b5606b24a845f73e","bdp_trlrn","Tue Mar 14 2023 19:46:45 GMT-0400 (Eastern Daylight Time)","508463","Untrustworthy,Trustworthy","","","","feedback","","","null","","<div class='trialDiv'><img src='trustrating_stim/white_00340_940422_fa_edt.bmp'><br><font class='baseline'><strong>Ryan</strong><p>Received: <strong>20</strong></font> &nbsp; &nbsp; &nbsp; &nbsp; &nbsp; &nbsp;<font class='negOutcome'>Shared back: <strong>0</strong></font></font><div class='respPicDiv'><img src='img/responseButtonOffersNo0_wht.png' class='respPic'></div></div>","null","3","Ryan","7","Kept","0.2,0.65","12","0.2","trustrating_stim/white_00340_940422_fa_edt.bmp","6","36","8"
"html-keyboard-response","161","267730","0.0-19.0-1.8","63615888b5606b24a845f73e","bdp_trlrn","Tue Mar 14 2023 19:46:45 GMT-0400 (Eastern Daylight Time)","508463","Untrustworthy,Trustworthy","","","","decision","","","132","","<div class='trialDiv'><img src='trustrating_stim/white_mw063.bmp'><br><font class='baseline'><strong>Michael</strong><p>Choose number of points to send.</font><div class='respPicDiv'><img src='img/responseButtonOffersNo0L.png' class='respPic'></div></div>","5","3","Michael","3","Shared","0.8,0.35","13","0.8","trustrating_stim/white_mw063.bmp","3","41","9"
"html-keyboard-response","162","267992","0.0-19.0-2.8","63615888b5606b24a845f73e","bdp_trlrn","Tue Mar 14 2023 19:46:45 GMT-0400 (Eastern Daylight Time)","508463","Untrustworthy,Trustworthy","","","","decisionFB","","","null","","<div class='trialDiv'><img src='trustrating_stim/white_mw063.bmp'><br><font class='baseline'><strong>Michael</strong><p>Choose number of points to send.</font><div class='respPicDiv'><img src='img/responseButtonOffersNo0L5.png' class='respPic'></div></div>","null","3","Michael","3","Shared","0.8,0.35","13","0.8","trustrating_stim/white_mw063.bmp","3","36","9"
"html-keyboard-response","163","268994","0.0-19.0-3.8","63615888b5606b24a845f73e","bdp_trlrn","Tue Mar 14 2023 19:46:45 GMT-0400 (Eastern Daylight Time)","508463","Untrustworthy,Trustworthy","","","","feedback","","","null","","<div class='trialDiv'><img src='trustrating_stim/white_mw063.bmp'><br><font class='baseline'><strong>Michael</strong><p>Received: <strong>20</strong></font> &nbsp; &nbsp; &nbsp; &nbsp; &nbsp; &nbsp;<font class='posOutcome'>Shared back: <strong>10</strong></font></font><div class='respPicDiv'><img src='img/responseButtonOffersNo0_wht.png' class='respPic'></div></div>","null","3","Michael","3","Shared","0.8,0.35","13","0.8","trustrating_stim/white_mw063.bmp","3","46","9"
"html-keyboard-response","164","269432","0.0-19.0-1.9","63615888b5606b24a845f73e","bdp_trlrn","Tue Mar 14 2023 19:46:45 GMT-0400 (Eastern Daylight Time)","508463","Untrustworthy,Trustworthy","","","","decision","","","437","","<div class='trialDiv'><img src='trustrating_stim/white_00761_941201_fb_edt.bmp'><br><font class='baseline'><strong>Benjamin</strong><p>Choose number of points to send.</font><div class='respPicDiv'><img src='img/responseButtonOffersNo0L.png' class='respPic'></div></div>","5","4","Benjamin","9","Kept","0.2,0.8","10","0.2","trustrating_stim/white_00761_941201_fb_edt.bmp","8.5","51","10"
"html-keyboard-response","165","269693","0.0-19.0-2.9","63615888b5606b24a845f73e","bdp_trlrn","Tue Mar 14 2023 19:46:45 GMT-0400 (Eastern Daylight Time)","508463","Untrustworthy,Trustworthy","","","","decisionFB","","","null","","<div class='trialDiv'><img src='trustrating_stim/white_00761_941201_fb_edt.bmp'><br><font class='baseline'><strong>Benjamin</strong><p>Choose number of points to send.</font><div class='respPicDiv'><img src='img/responseButtonOffersNo0L5.png' class='respPic'></div></div>","null","4","Benjamin","9","Kept","0.2,0.8","10","0.2","trustrating_stim/white_00761_941201_fb_edt.bmp","8.5","46","10"
"html-keyboard-response","166","270695","0.0-19.0-3.9","63615888b5606b24a845f73e","bdp_trlrn","Tue Mar 14 2023 19:46:45 GMT-0400 (Eastern Daylight Time)","508463","Untrustworthy,Trustworthy","","","","feedback","","","null","","<div class='trialDiv'><img src='trustrating_stim/white_00761_941201_fb_edt.bmp'><br><font class='baseline'><strong>Benjamin</strong><p>Received: <strong>20</strong></font> &nbsp; &nbsp; &nbsp; &nbsp; &nbsp; &nbsp;<font class='negOutcome'>Shared back: <strong>0</strong></font></font><div class='respPicDiv'><img src='img/responseButtonOffersNo0_wht.png' class='respPic'></div></div>","null","4","Benjamin","9","Kept","0.2,0.8","10","0.2","trustrating_stim/white_00761_941201_fb_edt.bmp","8.5","46","10"
"html-keyboard-response","167","270813","0.0-19.0-1.10","63615888b5606b24a845f73e","bdp_trlrn","Tue Mar 14 2023 19:46:45 GMT-0400 (Eastern Daylight Time)","508463","Untrustworthy,Trustworthy","","","","decision","","","118","","<div class='trialDiv'><img src='trustrating_stim/white_00340_940422_fa_edt.bmp'><br><font class='baseline'><strong>Ryan</strong><p>Choose number of points to send.</font><div class='respPicDiv'><img src='img/responseButtonOffersNo0L.png' class='respPic'></div></div>","5","4","Ryan","7","Shared","0.2,0.65","12","0.2","trustrating_stim/white_00340_940422_fa_edt.bmp","6","51","11"
"html-keyboard-response","168","271064","0.0-19.0-2.10","63615888b5606b24a845f73e","bdp_trlrn","Tue Mar 14 2023 19:46:45 GMT-0400 (Eastern Daylight Time)","508463","Untrustworthy,Trustworthy","","","","decisionFB","","","null","","<div class='trialDiv'><img src='trustrating_stim/white_00340_940422_fa_edt.bmp'><br><font class='baseline'><strong>Ryan</strong><p>Choose number of points to send.</font><div class='respPicDiv'><img src='img/responseButtonOffersNo0L5.png' class='respPic'></div></div>","null","4","Ryan","7","Shared","0.2,0.65","12","0.2","trustrating_stim/white_00340_940422_fa_edt.bmp","6","46","11"
"html-keyboard-response","169","272066","0.0-19.0-3.10","63615888b5606b24a845f73e","bdp_trlrn","Tue Mar 14 2023 19:46:45 GMT-0400 (Eastern Daylight Time)","508463","Untrustworthy,Trustworthy","","","","feedback","","","null","","<div class='trialDiv'><img src='trustrating_stim/white_00340_940422_fa_edt.bmp'><br><font class='baseline'><strong>Ryan</strong><p>Received: <strong>20</strong></font> &nbsp; &nbsp; &nbsp; &nbsp; &nbsp; &nbsp;<font class='posOutcome'>Shared back: <strong>10</strong></font></font><div class='respPicDiv'><img src='img/responseButtonOffersNo0_wht.png' class='respPic'></div></div>","null","4","Ryan","7","Shared","0.2,0.65","12","0.2","trustrating_stim/white_00340_940422_fa_edt.bmp","6","56","11"
"html-keyboard-response","170","272248","0.0-19.0-1.11","63615888b5606b24a845f73e","bdp_trlrn","Tue Mar 14 2023 19:46:45 GMT-0400 (Eastern Daylight Time)","508463","Untrustworthy,Trustworthy","","","","decision","","","181","","<div class='trialDiv'><img src='trustrating_stim/white_mw063.bmp'><br><font class='baseline'><strong>Michael</strong><p>Choose number of points to send.</font><div class='respPicDiv'><img src='img/responseButtonOffersNo0L.png' class='respPic'></div></div>","5","4","Michael","3","Shared","0.8,0.35","13","0.8","trustrating_stim/white_mw063.bmp","3","61","12"
"html-keyboard-response","171","272499","0.0-19.0-2.11","63615888b5606b24a845f73e","bdp_trlrn","Tue Mar 14 2023 19:46:45 GMT-0400 (Eastern Daylight Time)","508463","Untrustworthy,Trustworthy","","","","decisionFB","","","null","","<div class='trialDiv'><img src='trustrating_stim/white_mw063.bmp'><br><font class='baseline'><strong>Michael</strong><p>Choose number of points to send.</font><div class='respPicDiv'><img src='img/responseButtonOffersNo0L5.png' class='respPic'></div></div>","null","4","Michael","3","Shared","0.8,0.35","13","0.8","trustrating_stim/white_mw063.bmp","3","56","12"
"html-keyboard-response","172","273501","0.0-19.0-3.11","63615888b5606b24a845f73e","bdp_trlrn","Tue Mar 14 2023 19:46:45 GMT-0400 (Eastern Daylight Time)","508463","Untrustworthy,Trustworthy","","","","feedback","","","null","","<div class='trialDiv'><img src='trustrating_stim/white_mw063.bmp'><br><font class='baseline'><strong>Michael</strong><p>Received: <strong>20</strong></font> &nbsp; &nbsp; &nbsp; &nbsp; &nbsp; &nbsp;<font class='posOutcome'>Shared back: <strong>10</strong></font></font><div class='respPicDiv'><img src='img/responseButtonOffersNo0_wht.png' class='respPic'></div></div>","null","4","Michael","3","Shared","0.8,0.35","13","0.8","trustrating_stim/white_mw063.bmp","3","66","12"
"html-keyboard-response","173","273685","0.0-19.0-1.12","63615888b5606b24a845f73e","bdp_trlrn","Tue Mar 14 2023 19:46:45 GMT-0400 (Eastern Daylight Time)","508463","Untrustworthy,Trustworthy","","","","decision","","","183","","<div class='trialDiv'><img src='trustrating_stim/white_00761_941201_fb_edt.bmp'><br><font class='baseline'><strong>Benjamin</strong><p>Choose number of points to send.</font><div class='respPicDiv'><img src='img/responseButtonOffersNo0L.png' class='respPic'></div></div>","5","5","Benjamin","9","Shared","0.2,0.8","10","0.2","trustrating_stim/white_00761_941201_fb_edt.bmp","8.5","71","13"
"html-keyboard-response","174","273937","0.0-19.0-2.12","63615888b5606b24a845f73e","bdp_trlrn","Tue Mar 14 2023 19:46:45 GMT-0400 (Eastern Daylight Time)","508463","Untrustworthy,Trustworthy","","","","decisionFB","","","null","","<div class='trialDiv'><img src='trustrating_stim/white_00761_941201_fb_edt.bmp'><br><font class='baseline'><strong>Benjamin</strong><p>Choose number of points to send.</font><div class='respPicDiv'><img src='img/responseButtonOffersNo0L5.png' class='respPic'></div></div>","null","5","Benjamin","9","Shared","0.2,0.8","10","0.2","trustrating_stim/white_00761_941201_fb_edt.bmp","8.5","66","13"
"html-keyboard-response","175","274940","0.0-19.0-3.12","63615888b5606b24a845f73e","bdp_trlrn","Tue Mar 14 2023 19:46:45 GMT-0400 (Eastern Daylight Time)","508463","Untrustworthy,Trustworthy","","","","feedback","","","null","","<div class='trialDiv'><img src='trustrating_stim/white_00761_941201_fb_edt.bmp'><br><font class='baseline'><strong>Benjamin</strong><p>Received: <strong>20</strong></font> &nbsp; &nbsp; &nbsp; &nbsp; &nbsp; &nbsp;<font class='posOutcome'>Shared back: <strong>10</strong></font></font><div class='respPicDiv'><img src='img/responseButtonOffersNo0_wht.png' class='respPic'></div></div>","null","5","Benjamin","9","Shared","0.2,0.8","10","0.2","trustrating_stim/white_00761_941201_fb_edt.bmp","8.5","76","13"
"html-keyboard-response","176","274957","0.0-19.0-1.13","63615888b5606b24a845f73e","bdp_trlrn","Tue Mar 14 2023 19:46:45 GMT-0400 (Eastern Daylight Time)","508463","Untrustworthy,Trustworthy","","","","decision","","","17","","<div class='trialDiv'><img src='trustrating_stim/white_mw063.bmp'><br><font class='baseline'><strong>Michael</strong><p>Choose number of points to send.</font><div class='respPicDiv'><img src='img/responseButtonOffersNo0L.png' class='respPic'></div></div>","5","5","Michael","3","Shared","0.8,0.35","13","0.8","trustrating_stim/white_mw063.bmp","3","81","14"
"html-keyboard-response","177","275208","0.0-19.0-2.13","63615888b5606b24a845f73e","bdp_trlrn","Tue Mar 14 2023 19:46:45 GMT-0400 (Eastern Daylight Time)","508463","Untrustworthy,Trustworthy","","","","decisionFB","","","null","","<div class='trialDiv'><img src='trustrating_stim/white_mw063.bmp'><br><font class='baseline'><strong>Michael</strong><p>Choose number of points to send.</font><div class='respPicDiv'><img src='img/responseButtonOffersNo0L5.png' class='respPic'></div></div>","null","5","Michael","3","Shared","0.8,0.35","13","0.8","trustrating_stim/white_mw063.bmp","3","76","14"
"html-keyboard-response","178","276210","0.0-19.0-3.13","63615888b5606b24a845f73e","bdp_trlrn","Tue Mar 14 2023 19:46:45 GMT-0400 (Eastern Daylight Time)","508463","Untrustworthy,Trustworthy","","","","feedback","","","null","","<div class='trialDiv'><img src='trustrating_stim/white_mw063.bmp'><br><font class='baseline'><strong>Michael</strong><p>Received: <strong>20</strong></font> &nbsp; &nbsp; &nbsp; &nbsp; &nbsp; &nbsp;<font class='posOutcome'>Shared back: <strong>10</strong></font></font><div class='respPicDiv'><img src='img/responseButtonOffersNo0_wht.png' class='respPic'></div></div>","null","5","Michael","3","Shared","0.8,0.35","13","0.8","trustrating_stim/white_mw063.bmp","3","86","14"
"html-keyboard-response","179","276327","0.0-19.0-1.14","63615888b5606b24a845f73e","bdp_trlrn","Tue Mar 14 2023 19:46:45 GMT-0400 (Eastern Daylight Time)","508463","Untrustworthy,Trustworthy","","","","decision","","","117","","<div class='trialDiv'><img src='trustrating_stim/white_00340_940422_fa_edt.bmp'><br><font class='baseline'><strong>Ryan</strong><p>Choose number of points to send.</font><div class='respPicDiv'><img src='img/responseButtonOffersNo0L.png' class='respPic'></div></div>","5","5","Ryan","7","Kept","0.2,0.65","12","0.2","trustrating_stim/white_00340_940422_fa_edt.bmp","6","91","15"
"html-keyboard-response","180","276579","0.0-19.0-2.14","63615888b5606b24a845f73e","bdp_trlrn","Tue Mar 14 2023 19:46:45 GMT-0400 (Eastern Daylight Time)","508463","Untrustworthy,Trustworthy","","","","decisionFB","","","null","","<div class='trialDiv'><img src='trustrating_stim/white_00340_940422_fa_edt.bmp'><br><font class='baseline'><strong>Ryan</strong><p>Choose number of points to send.</font><div class='respPicDiv'><img src='img/responseButtonOffersNo0L5.png' class='respPic'></div></div>","null","5","Ryan","7","Kept","0.2,0.65","12","0.2","trustrating_stim/white_00340_940422_fa_edt.bmp","6","86","15"
"html-keyboard-response","181","277581","0.0-19.0-3.14","63615888b5606b24a845f73e","bdp_trlrn","Tue Mar 14 2023 19:46:45 GMT-0400 (Eastern Daylight Time)","508463","Untrustworthy,Trustworthy","","","","feedback","","","null","","<div class='trialDiv'><img src='trustrating_stim/white_00340_940422_fa_edt.bmp'><br><font class='baseline'><strong>Ryan</strong><p>Received: <strong>20</strong></font> &nbsp; &nbsp; &nbsp; &nbsp; &nbsp; &nbsp;<font class='negOutcome'>Shared back: <strong>0</strong></font></font><div class='respPicDiv'><img src='img/responseButtonOffersNo0_wht.png' class='respPic'></div></div>","null","5","Ryan","7","Kept","0.2,0.65","12","0.2","trustrating_stim/white_00340_940422_fa_edt.bmp","6","86","15"
"html-keyboard-response","182","277686","0.0-19.0-1.15","63615888b5606b24a845f73e","bdp_trlrn","Tue Mar 14 2023 19:46:45 GMT-0400 (Eastern Daylight Time)","508463","Untrustworthy,Trustworthy","","","","decision","","","104","","<div class='trialDiv'><img src='trustrating_stim/white_mw063.bmp'><br><font class='baseline'><strong>Michael</strong><p>Choose number of points to send.</font><div class='respPicDiv'><img src='img/responseButtonOffersNo0L.png' class='respPic'></div></div>","5","6","Michael","3","Shared","0.8,0.35","13","0.8","trustrating_stim/white_mw063.bmp","3","91","16"
"html-keyboard-response","183","277950","0.0-19.0-2.15","63615888b5606b24a845f73e","bdp_trlrn","Tue Mar 14 2023 19:46:45 GMT-0400 (Eastern Daylight Time)","508463","Untrustworthy,Trustworthy","","","","decisionFB","","","null","","<div class='trialDiv'><img src='trustrating_stim/white_mw063.bmp'><br><font class='baseline'><strong>Michael</strong><p>Choose number of points to send.</font><div class='respPicDiv'><img src='img/responseButtonOffersNo0L5.png' class='respPic'></div></div>","null","6","Michael","3","Shared","0.8,0.35","13","0.8","trustrating_stim/white_mw063.bmp","3","86","16"
"html-keyboard-response","184","278951","0.0-19.0-3.15","63615888b5606b24a845f73e","bdp_trlrn","Tue Mar 14 2023 19:46:45 GMT-0400 (Eastern Daylight Time)","508463","Untrustworthy,Trustworthy","","","","feedback","","","null","","<div class='trialDiv'><img src='trustrating_stim/white_mw063.bmp'><br><font class='baseline'><strong>Michael</strong><p>Received: <strong>20</strong></font> &nbsp; &nbsp; &nbsp; &nbsp; &nbsp; &nbsp;<font class='posOutcome'>Shared back: <strong>10</strong></font></font><div class='respPicDiv'><img src='img/responseButtonOffersNo0_wht.png' class='respPic'></div></div>","null","6","Michael","3","Shared","0.8,0.35","13","0.8","trustrating_stim/white_mw063.bmp","3","96","16"
"html-keyboard-response","185","279067","0.0-19.0-1.16","63615888b5606b24a845f73e","bdp_trlrn","Tue Mar 14 2023 19:46:45 GMT-0400 (Eastern Daylight Time)","508463","Untrustworthy,Trustworthy","","","","decision","","","115","","<div class='trialDiv'><img src='trustrating_stim/white_00340_940422_fa_edt.bmp'><br><font class='baseline'><strong>Ryan</strong><p>Choose number of points to send.</font><div class='respPicDiv'><img src='img/responseButtonOffersNo0L.png' class='respPic'></div></div>","5","6","Ryan","7","Kept","0.2,0.65","12","0.2","trustrating_stim/white_00340_940422_fa_edt.bmp","6","101","17"
"html-keyboard-response","186","279319","0.0-19.0-2.16","63615888b5606b24a845f73e","bdp_trlrn","Tue Mar 14 2023 19:46:45 GMT-0400 (Eastern Daylight Time)","508463","Untrustworthy,Trustworthy","","","","decisionFB","","","null","","<div class='trialDiv'><img src='trustrating_stim/white_00340_940422_fa_edt.bmp'><br><font class='baseline'><strong>Ryan</strong><p>Choose number of points to send.</font><div class='respPicDiv'><img src='img/responseButtonOffersNo0L5.png' class='respPic'></div></div>","null","6","Ryan","7","Kept","0.2,0.65","12","0.2","trustrating_stim/white_00340_940422_fa_edt.bmp","6","96","17"
"html-keyboard-response","187","280320","0.0-19.0-3.16","63615888b5606b24a845f73e","bdp_trlrn","Tue Mar 14 2023 19:46:45 GMT-0400 (Eastern Daylight Time)","508463","Untrustworthy,Trustworthy","","","","feedback","","","null","","<div class='trialDiv'><img src='trustrating_stim/white_00340_940422_fa_edt.bmp'><br><font class='baseline'><strong>Ryan</strong><p>Received: <strong>20</strong></font> &nbsp; &nbsp; &nbsp; &nbsp; &nbsp; &nbsp;<font class='negOutcome'>Shared back: <strong>0</strong></font></font><div class='respPicDiv'><img src='img/responseButtonOffersNo0_wht.png' class='respPic'></div></div>","null","6","Ryan","7","Kept","0.2,0.65","12","0.2","trustrating_stim/white_00340_940422_fa_edt.bmp","6","96","17"
"html-keyboard-response","188","280826","0.0-19.0-1.17","63615888b5606b24a845f73e","bdp_trlrn","Tue Mar 14 2023 19:46:45 GMT-0400 (Eastern Daylight Time)","508463","Untrustworthy,Trustworthy","","","","decision","","","505","","<div class='trialDiv'><img src='trustrating_stim/white_00761_941201_fb_edt.bmp'><br><font class='baseline'><strong>Benjamin</strong><p>Choose number of points to send.</font><div class='respPicDiv'><img src='img/responseButtonOffersNo0L.png' class='respPic'></div></div>","5","6","Benjamin","9","Kept","0.2,0.8","10","0.2","trustrating_stim/white_00761_941201_fb_edt.bmp","8.5","101","18"
"html-keyboard-response","189","281077","0.0-19.0-2.17","63615888b5606b24a845f73e","bdp_trlrn","Tue Mar 14 2023 19:46:45 GMT-0400 (Eastern Daylight Time)","508463","Untrustworthy,Trustworthy","","","","decisionFB","","","null","","<div class='trialDiv'><img src='trustrating_stim/white_00761_941201_fb_edt.bmp'><br><font class='baseline'><strong>Benjamin</strong><p>Choose number of points to send.</font><div class='respPicDiv'><img src='img/responseButtonOffersNo0L5.png' class='respPic'></div></div>","null","6","Benjamin","9","Kept","0.2,0.8","10","0.2","trustrating_stim/white_00761_941201_fb_edt.bmp","8.5","96","18"
"html-keyboard-response","190","282080","0.0-19.0-3.17","63615888b5606b24a845f73e","bdp_trlrn","Tue Mar 14 2023 19:46:45 GMT-0400 (Eastern Daylight Time)","508463","Untrustworthy,Trustworthy","","","","feedback","","","null","","<div class='trialDiv'><img src='trustrating_stim/white_00761_941201_fb_edt.bmp'><br><font class='baseline'><strong>Benjamin</strong><p>Received: <strong>20</strong></font> &nbsp; &nbsp; &nbsp; &nbsp; &nbsp; &nbsp;<font class='negOutcome'>Shared back: <strong>0</strong></font></font><div class='respPicDiv'><img src='img/responseButtonOffersNo0_wht.png' class='respPic'></div></div>","null","6","Benjamin","9","Kept","0.2,0.8","10","0.2","trustrating_stim/white_00761_941201_fb_edt.bmp","8.5","96","18"
"html-keyboard-response","191","282425","0.0-19.0-1.18","63615888b5606b24a845f73e","bdp_trlrn","Tue Mar 14 2023 19:46:45 GMT-0400 (Eastern Daylight Time)","508463","Untrustworthy,Trustworthy","","","","decision","","","345","","<div class='trialDiv'><img src='trustrating_stim/white_00340_940422_fa_edt.bmp'><br><font class='baseline'><strong>Ryan</strong><p>Choose number of points to send.</font><div class='respPicDiv'><img src='img/responseButtonOffersNo0L.png' class='respPic'></div></div>","5","7","Ryan","7","Kept","0.2,0.65","12","0.2","trustrating_stim/white_00340_940422_fa_edt.bmp","6","101","19"
"html-keyboard-response","192","282690","0.0-19.0-2.18","63615888b5606b24a845f73e","bdp_trlrn","Tue Mar 14 2023 19:46:45 GMT-0400 (Eastern Daylight Time)","508463","Untrustworthy,Trustworthy","","","","decisionFB","","","null","","<div class='trialDiv'><img src='trustrating_stim/white_00340_940422_fa_edt.bmp'><br><font class='baseline'><strong>Ryan</strong><p>Choose number of points to send.</font><div class='respPicDiv'><img src='img/responseButtonOffersNo0L5.png' class='respPic'></div></div>","null","7","Ryan","7","Kept","0.2,0.65","12","0.2","trustrating_stim/white_00340_940422_fa_edt.bmp","6","96","19"
"html-keyboard-response","193","283692","0.0-19.0-3.18","63615888b5606b24a845f73e","bdp_trlrn","Tue Mar 14 2023 19:46:45 GMT-0400 (Eastern Daylight Time)","508463","Untrustworthy,Trustworthy","","","","feedback","","","null","","<div class='trialDiv'><img src='trustrating_stim/white_00340_940422_fa_edt.bmp'><br><font class='baseline'><strong>Ryan</strong><p>Received: <strong>20</strong></font> &nbsp; &nbsp; &nbsp; &nbsp; &nbsp; &nbsp;<font class='negOutcome'>Shared back: <strong>0</strong></font></font><div class='respPicDiv'><img src='img/responseButtonOffersNo0_wht.png' class='respPic'></div></div>","null","7","Ryan","7","Kept","0.2,0.65","12","0.2","trustrating_stim/white_00340_940422_fa_edt.bmp","6","96","19"
"html-keyboard-response","194","284228","0.0-19.0-1.19","63615888b5606b24a845f73e","bdp_trlrn","Tue Mar 14 2023 19:46:45 GMT-0400 (Eastern Daylight Time)","508463","Untrustworthy,Trustworthy","","","","decision","","","536","","<div class='trialDiv'><img src='trustrating_stim/white_00761_941201_fb_edt.bmp'><br><font class='baseline'><strong>Benjamin</strong><p>Choose number of points to send.</font><div class='respPicDiv'><img src='img/responseButtonOffersNo0L.png' class='respPic'></div></div>","5","7","Benjamin","9","Shared","0.2,0.8","10","0.2","trustrating_stim/white_00761_941201_fb_edt.bmp","8.5","101","20"
"html-keyboard-response","195","284480","0.0-19.0-2.19","63615888b5606b24a845f73e","bdp_trlrn","Tue Mar 14 2023 19:46:45 GMT-0400 (Eastern Daylight Time)","508463","Untrustworthy,Trustworthy","","","","decisionFB","","","null","","<div class='trialDiv'><img src='trustrating_stim/white_00761_941201_fb_edt.bmp'><br><font class='baseline'><strong>Benjamin</strong><p>Choose number of points to send.</font><div class='respPicDiv'><img src='img/responseButtonOffersNo0L5.png' class='respPic'></div></div>","null","7","Benjamin","9","Shared","0.2,0.8","10","0.2","trustrating_stim/white_00761_941201_fb_edt.bmp","8.5","96","20"
"html-keyboard-response","196","285495","0.0-19.0-3.19","63615888b5606b24a845f73e","bdp_trlrn","Tue Mar 14 2023 19:46:45 GMT-0400 (Eastern Daylight Time)","508463","Untrustworthy,Trustworthy","","","","feedback","","","null","","<div class='trialDiv'><img src='trustrating_stim/white_00761_941201_fb_edt.bmp'><br><font class='baseline'><strong>Benjamin</strong><p>Received: <strong>20</strong></font> &nbsp; &nbsp; &nbsp; &nbsp; &nbsp; &nbsp;<font class='posOutcome'>Shared back: <strong>10</strong></font></font><div class='respPicDiv'><img src='img/responseButtonOffersNo0_wht.png' class='respPic'></div></div>","null","7","Benjamin","9","Shared","0.2,0.8","10","0.2","trustrating_stim/white_00761_941201_fb_edt.bmp","8.5","106","20"
"html-keyboard-response","197","285971","0.0-19.0-1.20","63615888b5606b24a845f73e","bdp_trlrn","Tue Mar 14 2023 19:46:45 GMT-0400 (Eastern Daylight Time)","508463","Untrustworthy,Trustworthy","","","","decision","","","476","","<div class='trialDiv'><img src='trustrating_stim/white_mw063.bmp'><br><font class='baseline'><strong>Michael</strong><p>Choose number of points to send.</font><div class='respPicDiv'><img src='img/responseButtonOffersNo0L.png' class='respPic'></div></div>","5","7","Michael","3","Shared","0.8,0.35","13","0.8","trustrating_stim/white_mw063.bmp","3","111","21"
"html-keyboard-response","198","286227","0.0-19.0-2.20","63615888b5606b24a845f73e","bdp_trlrn","Tue Mar 14 2023 19:46:45 GMT-0400 (Eastern Daylight Time)","508463","Untrustworthy,Trustworthy","","","","decisionFB","","","null","","<div class='trialDiv'><img src='trustrating_stim/white_mw063.bmp'><br><font class='baseline'><strong>Michael</strong><p>Choose number of points to send.</font><div class='respPicDiv'><img src='img/responseButtonOffersNo0L5.png' class='respPic'></div></div>","null","7","Michael","3","Shared","0.8,0.35","13","0.8","trustrating_stim/white_mw063.bmp","3","106","21"
"html-keyboard-response","199","287229","0.0-19.0-3.20","63615888b5606b24a845f73e","bdp_trlrn","Tue Mar 14 2023 19:46:45 GMT-0400 (Eastern Daylight Time)","508463","Untrustworthy,Trustworthy","","","","feedback","","","null","","<div class='trialDiv'><img src='trustrating_stim/white_mw063.bmp'><br><font class='baseline'><strong>Michael</strong><p>Received: <strong>20</strong></font> &nbsp; &nbsp; &nbsp; &nbsp; &nbsp; &nbsp;<font class='posOutcome'>Shared back: <strong>10</strong></font></font><div class='respPicDiv'><img src='img/responseButtonOffersNo0_wht.png' class='respPic'></div></div>","null","7","Michael","3","Shared","0.8,0.35","13","0.8","trustrating_stim/white_mw063.bmp","3","116","21"
"html-keyboard-response","200","287918","0.0-19.0-1.21","63615888b5606b24a845f73e","bdp_trlrn","Tue Mar 14 2023 19:46:45 GMT-0400 (Eastern Daylight Time)","508463","Untrustworthy,Trustworthy","","","","decision","","","688","","<div class='trialDiv'><img src='trustrating_stim/white_00761_941201_fb_edt.bmp'><br><font class='baseline'><strong>Benjamin</strong><p>Choose number of points to send.</font><div class='respPicDiv'><img src='img/responseButtonOffersNo0L.png' class='respPic'></div></div>","5","8","Benjamin","9","Kept","0.2,0.8","10","0.2","trustrating_stim/white_00761_941201_fb_edt.bmp","8.5","121","22"
"html-keyboard-response","201","288169","0.0-19.0-2.21","63615888b5606b24a845f73e","bdp_trlrn","Tue Mar 14 2023 19:46:45 GMT-0400 (Eastern Daylight Time)","508463","Untrustworthy,Trustworthy","","","","decisionFB","","","null","","<div class='trialDiv'><img src='trustrating_stim/white_00761_941201_fb_edt.bmp'><br><font class='baseline'><strong>Benjamin</strong><p>Choose number of points to send.</font><div class='respPicDiv'><img src='img/responseButtonOffersNo0L5.png' class='respPic'></div></div>","null","8","Benjamin","9","Kept","0.2,0.8","10","0.2","trustrating_stim/white_00761_941201_fb_edt.bmp","8.5","116","22"
"html-keyboard-response","202","289171","0.0-19.0-3.21","63615888b5606b24a845f73e","bdp_trlrn","Tue Mar 14 2023 19:46:45 GMT-0400 (Eastern Daylight Time)","508463","Untrustworthy,Trustworthy","","","","feedback","","","null","","<div class='trialDiv'><img src='trustrating_stim/white_00761_941201_fb_edt.bmp'><br><font class='baseline'><strong>Benjamin</strong><p>Received: <strong>20</strong></font> &nbsp; &nbsp; &nbsp; &nbsp; &nbsp; &nbsp;<font class='negOutcome'>Shared back: <strong>0</strong></font></font><div class='respPicDiv'><img src='img/responseButtonOffersNo0_wht.png' class='respPic'></div></div>","null","8","Benjamin","9","Kept","0.2,0.8","10","0.2","trustrating_stim/white_00761_941201_fb_edt.bmp","8.5","116","22"
"html-keyboard-response","203","289548","0.0-19.0-1.22","63615888b5606b24a845f73e","bdp_trlrn","Tue Mar 14 2023 19:46:45 GMT-0400 (Eastern Daylight Time)","508463","Untrustworthy,Trustworthy","","","","decision","","","377","","<div class='trialDiv'><img src='trustrating_stim/white_mw063.bmp'><br><font class='baseline'><strong>Michael</strong><p>Choose number of points to send.</font><div class='respPicDiv'><img src='img/responseButtonOffersNo0L.png' class='respPic'></div></div>","5","8","Michael","3","Shared","0.8,0.35","13","0.8","trustrating_stim/white_mw063.bmp","3","121","23"
"html-keyboard-response","204","289799","0.0-19.0-2.22","63615888b5606b24a845f73e","bdp_trlrn","Tue Mar 14 2023 19:46:45 GMT-0400 (Eastern Daylight Time)","508463","Untrustworthy,Trustworthy","","","","decisionFB","","","null","","<div class='trialDiv'><img src='trustrating_stim/white_mw063.bmp'><br><font class='baseline'><strong>Michael</strong><p>Choose number of points to send.</font><div class='respPicDiv'><img src='img/responseButtonOffersNo0L5.png' class='respPic'></div></div>","null","8","Michael","3","Shared","0.8,0.35","13","0.8","trustrating_stim/white_mw063.bmp","3","116","23"
"html-keyboard-response","205","290802","0.0-19.0-3.22","63615888b5606b24a845f73e","bdp_trlrn","Tue Mar 14 2023 19:46:45 GMT-0400 (Eastern Daylight Time)","508463","Untrustworthy,Trustworthy","","","","feedback","","","null","","<div class='trialDiv'><img src='trustrating_stim/white_mw063.bmp'><br><font class='baseline'><strong>Michael</strong><p>Received: <strong>20</strong></font> &nbsp; &nbsp; &nbsp; &nbsp; &nbsp; &nbsp;<font class='posOutcome'>Shared back: <strong>10</strong></font></font><div class='respPicDiv'><img src='img/responseButtonOffersNo0_wht.png' class='respPic'></div></div>","null","8","Michael","3","Shared","0.8,0.35","13","0.8","trustrating_stim/white_mw063.bmp","3","126","23"
"html-keyboard-response","206","291472","0.0-19.0-1.23","63615888b5606b24a845f73e","bdp_trlrn","Tue Mar 14 2023 19:46:45 GMT-0400 (Eastern Daylight Time)","508463","Untrustworthy,Trustworthy","","","","decision","","","669","","<div class='trialDiv'><img src='trustrating_stim/white_00340_940422_fa_edt.bmp'><br><font class='baseline'><strong>Ryan</strong><p>Choose number of points to send.</font><div class='respPicDiv'><img src='img/responseButtonOffersNo0L.png' class='respPic'></div></div>","5","8","Ryan","7","Kept","0.2,0.65","12","0.2","trustrating_stim/white_00340_940422_fa_edt.bmp","6","131","24"
"html-keyboard-response","207","291738","0.0-19.0-2.23","63615888b5606b24a845f73e","bdp_trlrn","Tue Mar 14 2023 19:46:45 GMT-0400 (Eastern Daylight Time)","508463","Untrustworthy,Trustworthy","","","","decisionFB","","","null","","<div class='trialDiv'><img src='trustrating_stim/white_00340_940422_fa_edt.bmp'><br><font class='baseline'><strong>Ryan</strong><p>Choose number of points to send.</font><div class='respPicDiv'><img src='img/responseButtonOffersNo0L5.png' class='respPic'></div></div>","null","8","Ryan","7","Kept","0.2,0.65","12","0.2","trustrating_stim/white_00340_940422_fa_edt.bmp","6","126","24"
"html-keyboard-response","208","292740","0.0-19.0-3.23","63615888b5606b24a845f73e","bdp_trlrn","Tue Mar 14 2023 19:46:45 GMT-0400 (Eastern Daylight Time)","508463","Untrustworthy,Trustworthy","","","","feedback","","","null","","<div class='trialDiv'><img src='trustrating_stim/white_00340_940422_fa_edt.bmp'><br><font class='baseline'><strong>Ryan</strong><p>Received: <strong>20</strong></font> &nbsp; &nbsp; &nbsp; &nbsp; &nbsp; &nbsp;<font class='negOutcome'>Shared back: <strong>0</strong></font></font><div class='respPicDiv'><img src='img/responseButtonOffersNo0_wht.png' class='respPic'></div></div>","null","8","Ryan","7","Kept","0.2,0.65","12","0.2","trustrating_stim/white_00340_940422_fa_edt.bmp","6","126","24"
"html-keyboard-response","209","292907","0.0-19.0-1.24","63615888b5606b24a845f73e","bdp_trlrn","Tue Mar 14 2023 19:46:45 GMT-0400 (Eastern Daylight Time)","508463","Untrustworthy,Trustworthy","","","","decision","","","166","","<div class='trialDiv'><img src='trustrating_stim/white_00761_941201_fb_edt.bmp'><br><font class='baseline'><strong>Benjamin</strong><p>Choose number of points to send.</font><div class='respPicDiv'><img src='img/responseButtonOffersNo0L.png' class='respPic'></div></div>","5","9","Benjamin","9","Kept","0.2,0.8","10","0.2","trustrating_stim/white_00761_941201_fb_edt.bmp","8.5","131","25"
"html-keyboard-response","210","293159","0.0-19.0-2.24","63615888b5606b24a845f73e","bdp_trlrn","Tue Mar 14 2023 19:46:45 GMT-0400 (Eastern Daylight Time)","508463","Untrustworthy,Trustworthy","","","","decisionFB","","","null","","<div class='trialDiv'><img src='trustrating_stim/white_00761_941201_fb_edt.bmp'><br><font class='baseline'><strong>Benjamin</strong><p>Choose number of points to send.</font><div class='respPicDiv'><img src='img/responseButtonOffersNo0L5.png' class='respPic'></div></div>","null","9","Benjamin","9","Kept","0.2,0.8","10","0.2","trustrating_stim/white_00761_941201_fb_edt.bmp","8.5","126","25"
"html-keyboard-response","211","294160","0.0-19.0-3.24","63615888b5606b24a845f73e","bdp_trlrn","Tue Mar 14 2023 19:46:45 GMT-0400 (Eastern Daylight Time)","508463","Untrustworthy,Trustworthy","","","","feedback","","","null","","<div class='trialDiv'><img src='trustrating_stim/white_00761_941201_fb_edt.bmp'><br><font class='baseline'><strong>Benjamin</strong><p>Received: <strong>20</strong></font> &nbsp; &nbsp; &nbsp; &nbsp; &nbsp; &nbsp;<font class='negOutcome'>Shared back: <strong>0</strong></font></font><div class='respPicDiv'><img src='img/responseButtonOffersNo0_wht.png' class='respPic'></div></div>","null","9","Benjamin","9","Kept","0.2,0.8","10","0.2","trustrating_stim/white_00761_941201_fb_edt.bmp","8.5","126","25"
"html-keyboard-response","212","294314","0.0-19.0-1.25","63615888b5606b24a845f73e","bdp_trlrn","Tue Mar 14 2023 19:46:45 GMT-0400 (Eastern Daylight Time)","508463","Untrustworthy,Trustworthy","","","","decision","","","153","","<div class='trialDiv'><img src='trustrating_stim/white_00340_940422_fa_edt.bmp'><br><font class='baseline'><strong>Ryan</strong><p>Choose number of points to send.</font><div class='respPicDiv'><img src='img/responseButtonOffersNo0L.png' class='respPic'></div></div>","5","9","Ryan","7","Kept","0.2,0.65","12","0.2","trustrating_stim/white_00340_940422_fa_edt.bmp","6","131","26"
"html-keyboard-response","213","294566","0.0-19.0-2.25","63615888b5606b24a845f73e","bdp_trlrn","Tue Mar 14 2023 19:46:45 GMT-0400 (Eastern Daylight Time)","508463","Untrustworthy,Trustworthy","","","","decisionFB","","","null","","<div class='trialDiv'><img src='trustrating_stim/white_00340_940422_fa_edt.bmp'><br><font class='baseline'><strong>Ryan</strong><p>Choose number of points to send.</font><div class='respPicDiv'><img src='img/responseButtonOffersNo0L5.png' class='respPic'></div></div>","null","9","Ryan","7","Kept","0.2,0.65","12","0.2","trustrating_stim/white_00340_940422_fa_edt.bmp","6","126","26"
"html-keyboard-response","214","295567","0.0-19.0-3.25","63615888b5606b24a845f73e","bdp_trlrn","Tue Mar 14 2023 19:46:45 GMT-0400 (Eastern Daylight Time)","508463","Untrustworthy,Trustworthy","","","","feedback","","","null","","<div class='trialDiv'><img src='trustrating_stim/white_00340_940422_fa_edt.bmp'><br><font class='baseline'><strong>Ryan</strong><p>Received: <strong>20</strong></font> &nbsp; &nbsp; &nbsp; &nbsp; &nbsp; &nbsp;<font class='negOutcome'>Shared back: <strong>0</strong></font></font><div class='respPicDiv'><img src='img/responseButtonOffersNo0_wht.png' class='respPic'></div></div>","null","9","Ryan","7","Kept","0.2,0.65","12","0.2","trustrating_stim/white_00340_940422_fa_edt.bmp","6","126","26"
"html-keyboard-response","215","295611","0.0-19.0-1.26","63615888b5606b24a845f73e","bdp_trlrn","Tue Mar 14 2023 19:46:45 GMT-0400 (Eastern Daylight Time)","508463","Untrustworthy,Trustworthy","","","","decision","","","42","","<div class='trialDiv'><img src='trustrating_stim/white_mw063.bmp'><br><font class='baseline'><strong>Michael</strong><p>Choose number of points to send.</font><div class='respPicDiv'><img src='img/responseButtonOffersNo0L.png' class='respPic'></div></div>","5","9","Michael","3","Shared","0.8,0.35","13","0.8","trustrating_stim/white_mw063.bmp","3","131","27"
"html-keyboard-response","216","295861","0.0-19.0-2.26","63615888b5606b24a845f73e","bdp_trlrn","Tue Mar 14 2023 19:46:45 GMT-0400 (Eastern Daylight Time)","508463","Untrustworthy,Trustworthy","","","","decisionFB","","","null","","<div class='trialDiv'><img src='trustrating_stim/white_mw063.bmp'><br><font class='baseline'><strong>Michael</strong><p>Choose number of points to send.</font><div class='respPicDiv'><img src='img/responseButtonOffersNo0L5.png' class='respPic'></div></div>","null","9","Michael","3","Shared","0.8,0.35","13","0.8","trustrating_stim/white_mw063.bmp","3","126","27"
"html-keyboard-response","217","296863","0.0-19.0-3.26","63615888b5606b24a845f73e","bdp_trlrn","Tue Mar 14 2023 19:46:45 GMT-0400 (Eastern Daylight Time)","508463","Untrustworthy,Trustworthy","","","","feedback","","","null","","<div class='trialDiv'><img src='trustrating_stim/white_mw063.bmp'><br><font class='baseline'><strong>Michael</strong><p>Received: <strong>20</strong></font> &nbsp; &nbsp; &nbsp; &nbsp; &nbsp; &nbsp;<font class='posOutcome'>Shared back: <strong>10</strong></font></font><div class='respPicDiv'><img src='img/responseButtonOffersNo0_wht.png' class='respPic'></div></div>","null","9","Michael","3","Shared","0.8,0.35","13","0.8","trustrating_stim/white_mw063.bmp","3","136","27"
"html-keyboard-response","218","297127","0.0-19.0-1.27","63615888b5606b24a845f73e","bdp_trlrn","Tue Mar 14 2023 19:46:45 GMT-0400 (Eastern Daylight Time)","508463","Untrustworthy,Trustworthy","","","","decision","","","263","","<div class='trialDiv'><img src='trustrating_stim/white_00340_940422_fa_edt.bmp'><br><font class='baseline'><strong>Ryan</strong><p>Choose number of points to send.</font><div class='respPicDiv'><img src='img/responseButtonOffersNo0L.png' class='respPic'></div></div>","5","10","Ryan","7","Kept","0.2,0.65","12","0.2","trustrating_stim/white_00340_940422_fa_edt.bmp","6","141","28"
