"trial_type","trial_index","time_elapsed","internal_node_id","subject_id","task","startTime","totalTime","labels","view_history","rt","event","trial","time","trialtype","success","stimulus","key_press","aground","name","faceID","outcome","agenttype","agentswpt","agentcurrpshare","face","avgRating","point_total","round"
"pavlovia","0","2","0.0-0.0","63d7a9346e833b93500723d4","bdp_trlrn","Tue Mar 14 2023 20:46:45 GMT-0400 (Eastern Daylight Time)","577324","Untrustworthy,Trustworthy","","","","","","","","","","","","","","","","","","","",""
"instructions","1","2199","0.0-1.0","63d7a9346e833b93500723d4","bdp_trlrn","Tue Mar 14 2023 20:46:45 GMT-0400 (Eastern Daylight Time)","577324","Untrustworthy,Trustworthy","[{""page_index"":0,""viewing_time"":2197}]","2197","","","","","","","","","","","","","","","","","",""
"","","","","63d7a9346e833b93500723d4","bdp_trlrn","Tue Mar 14 2023 20:46:45 GMT-0400 (Eastern Daylight Time)","577324","Untrustworthy,Trustworthy","","","fullscreenenter","2","6335","fullscreenenter","","","","","","","","","","","","","",""
"fullscreen","2","7328","0.0-2.0","63d7a9346e833b93500723d4","bdp_trlrn","Tue Mar 14 2023 20:46:45 GMT-0400 (Eastern Daylight Time)","577324","Untrustworthy,Trustworthy","","","","","","","true","","","","","","","","","","","","",""
"instructions","3","16006","0.0-4.0","63d7a9346e833b93500723d4","bdp_trlrn","Tue Mar 14 2023 20:46:45 GMT-0400 (Eastern Daylight Time)","577324","Untrustworthy,Trustworthy","[{""page_index"":0,""viewing_time"":7253},{""page_index"":1,""viewing_time"":1424}]","8677","","","","","","","","","","","","","","","","","",""
"instructions","4","19294","0.0-5.0","63d7a9346e833b93500723d4","bdp_trlrn","Tue Mar 14 2023 20:46:45 GMT-0400 (Eastern Daylight Time)","577324","Untrustworthy,Trustworthy","[{""page_index"":0,""viewing_time"":3287}]","3287","","","","","","","","","","","","","","","","","",""
"image-keyboard-response","5","24462","0.0-6.0-1.0","63d7a9346e833b93500723d4","bdp_trlrn","Tue Mar 14 2023 20:46:45 GMT-0400 (Eastern Daylight Time)","577324","Untrustworthy,Trustworthy","","5062","","","","rating","","trustrating_stim/white_mw084.bmp","4","","","","","","","","","","",""
"image-keyboard-response","6","24676","0.0-6.0-2.0","63d7a9346e833b93500723d4","bdp_trlrn","Tue Mar 14 2023 20:46:45 GMT-0400 (Eastern Daylight Time)","577324","Untrustworthy,Trustworthy","","null","","","","ratingFB","","trustrating_stim/white_mw084.bmp","null","","","","","","","","","","",""
"image-keyboard-response","7","26478","0.0-6.0-1.1","63d7a9346e833b93500723d4","bdp_trlrn","Tue Mar 14 2023 20:46:45 GMT-0400 (Eastern Daylight Time)","577324","Untrustworthy,Trustworthy","","1691","","","","rating","","trustrating_stim/white_00659_941121_fa_edt.bmp","3","","","","","","","","","","",""
"image-keyboard-response","8","26686","0.0-6.0-2.1","63d7a9346e833b93500723d4","bdp_trlrn","Tue Mar 14 2023 20:46:45 GMT-0400 (Eastern Daylight Time)","577324","Untrustworthy,Trustworthy","","null","","","","ratingFB","","trustrating_stim/white_00659_941121_fa_edt.bmp","null","","","","","","","","","","",""
"image-keyboard-response","9","29326","0.0-6.0-1.2","63d7a9346e833b93500723d4","bdp_trlrn","Tue Mar 14 2023 20:46:45 GMT-0400 (Eastern Daylight Time)","577324","Untrustworthy,Trustworthy","","2539","","","","rating","","trustrating_stim/white_00761_941201_fb_edt.bmp","7","","","","","","","","","","",""
"image-keyboard-response","10","29527","0.0-6.0-2.2","63d7a9346e833b93500723d4","bdp_trlrn","Tue Mar 14 2023 20:46:45 GMT-0400 (Eastern Daylight Time)","577324","Untrustworthy,Trustworthy","","null","","","","ratingFB","","trustrating_stim/white_00761_941201_fb_edt.bmp","null","","","","","","","","","","",""
"image-keyboard-response","11","31510","0.0-6.0-1.3","63d7a9346e833b93500723d4","bdp_trlrn","Tue Mar 14 2023 20:46:45 GMT-0400 (Eastern Daylight Time)","577324","Untrustworthy,Trustworthy","","1881","","","","rating","","trustrating_stim/white_00602_940928_fb_edt.bmp","8","","","","","","","","","","",""
"image-keyboard-response","12","31712","0.0-6.0-2.3","63d7a9346e833b93500723d4","bdp_trlrn","Tue Mar 14 2023 20:46:45 GMT-0400 (Eastern Daylight Time)","577324","Untrustworthy,Trustworthy","","null","","","","ratingFB","","trustrating_stim/white_00602_940928_fb_edt.bmp","null","","","","","","","","","","",""
"image-keyboard-response","13","33806","0.0-6.0-1.4","63d7a9346e833b93500723d4","bdp_trlrn","Tue Mar 14 2023 20:46:45 GMT-0400 (Eastern Daylight Time)","577324","Untrustworthy,Trustworthy","","1993","","","","rating","","trustrating_stim/white_00120_931230_fa_edt.bmp","6","","","","","","","","","","",""
"image-keyboard-response","14","34007","0.0-6.0-2.4","63d7a9346e833b93500723d4","bdp_trlrn","Tue Mar 14 2023 20:46:45 GMT-0400 (Eastern Daylight Time)","577324","Untrustworthy,Trustworthy","","null","","","","ratingFB","","trustrating_stim/white_00120_931230_fa_edt.bmp","null","","","","","","","","","","",""
"image-keyboard-response","15","35671","0.0-6.0-1.5","63d7a9346e833b93500723d4","bdp_trlrn","Tue Mar 14 2023 20:46:45 GMT-0400 (Eastern Daylight Time)","577324","Untrustworthy,Trustworthy","","1562","","","","rating","","trustrating_stim/white_mw033.bmp","5","","","","","","","","","","",""
"image-keyboard-response","16","35872","0.0-6.0-2.5","63d7a9346e833b93500723d4","bdp_trlrn","Tue Mar 14 2023 20:46:45 GMT-0400 (Eastern Daylight Time)","577324","Untrustworthy,Trustworthy","","null","","","","ratingFB","","trustrating_stim/white_mw033.bmp","null","","","","","","","","","","",""
"image-keyboard-response","17","38238","0.0-6.0-1.6","63d7a9346e833b93500723d4","bdp_trlrn","Tue Mar 14 2023 20:46:45 GMT-0400 (Eastern Daylight Time)","577324","Untrustworthy,Trustworthy","","2265","","","","rating","","trustrating_stim/white_00898_960530_fa_edt.bmp","8","","","","","","","","","","",""
"image-keyboard-response","18","38439","0.0-6.0-2.6","63d7a9346e833b93500723d4","bdp_trlrn","Tue Mar 14 2023 20:46:45 GMT-0400 (Eastern Daylight Time)","577324","Untrustworthy,Trustworthy","","null","","","","ratingFB","","trustrating_stim/white_00898_960530_fa_edt.bmp","null","","","","","","","","","","",""
"image-keyboard-response","19","40654","0.0-6.0-1.7","63d7a9346e833b93500723d4","bdp_trlrn","Tue Mar 14 2023 20:46:45 GMT-0400 (Eastern Daylight Time)","577324","Untrustworthy,Trustworthy","","2114","","","","rating","","trustrating_stim/white_mw099.bmp","7","","","","","","","","","","",""
"image-keyboard-response","20","40856","0.0-6.0-2.7","63d7a9346e833b93500723d4","bdp_trlrn","Tue Mar 14 2023 20:46:45 GMT-0400 (Eastern Daylight Time)","577324","Untrustworthy,Trustworthy","","null","","","","ratingFB","","trustrating_stim/white_mw099.bmp","null","","","","","","","","","","",""
"image-keyboard-response","21","41935","0.0-6.0-1.8","63d7a9346e833b93500723d4","bdp_trlrn","Tue Mar 14 2023 20:46:45 GMT-0400 (Eastern Daylight Time)","577324","Untrustworthy,Trustworthy","","978","","","","rating","","trustrating_stim/white_00519_940519_fb_edt.bmp","9","","","","","","","","","","",""
"image-keyboard-response","22","42136","0.0-6.0-2.8","63d7a9346e833b93500723d4","bdp_trlrn","Tue Mar 14 2023 20:46:45 GMT-0400 (Eastern Daylight Time)","577324","Untrustworthy,Trustworthy","","null","","","","ratingFB","","trustrating_stim/white_00519_940519_fb_edt.bmp","null","","","","","","","","","","",""
"image-keyboard-response","23","46270","0.0-6.0-1.9","63d7a9346e833b93500723d4","bdp_trlrn","Tue Mar 14 2023 20:46:45 GMT-0400 (Eastern Daylight Time)","577324","Untrustworthy,Trustworthy","","4033","","","","rating","","trustrating_stim/white_mw035.bmp","5","","","","","","","","","","",""
"image-keyboard-response","24","46471","0.0-6.0-2.9","63d7a9346e833b93500723d4","bdp_trlrn","Tue Mar 14 2023 20:46:45 GMT-0400 (Eastern Daylight Time)","577324","Untrustworthy,Trustworthy","","null","","","","ratingFB","","trustrating_stim/white_mw035.bmp","null","","","","","","","","","","",""
"image-keyboard-response","25","48567","0.0-6.0-1.10","63d7a9346e833b93500723d4","bdp_trlrn","Tue Mar 14 2023 20:46:45 GMT-0400 (Eastern Daylight Time)","577324","Untrustworthy,Trustworthy","","1995","","","","rating","","trustrating_stim/white_mw053.bmp","7","","","","","","","","","","",""
"image-keyboard-response","26","48768","0.0-6.0-2.10","63d7a9346e833b93500723d4","bdp_trlrn","Tue Mar 14 2023 20:46:45 GMT-0400 (Eastern Daylight Time)","577324","Untrustworthy,Trustworthy","","null","","","","ratingFB","","trustrating_stim/white_mw053.bmp","null","","","","","","","","","","",""
"image-keyboard-response","27","50414","0.0-6.0-1.11","63d7a9346e833b93500723d4","bdp_trlrn","Tue Mar 14 2023 20:46:45 GMT-0400 (Eastern Daylight Time)","577324","Untrustworthy,Trustworthy","","1543","","","","rating","","trustrating_stim/white_mw066.bmp","8","","","","","","","","","","",""
"image-keyboard-response","28","50615","0.0-6.0-2.11","63d7a9346e833b93500723d4","bdp_trlrn","Tue Mar 14 2023 20:46:45 GMT-0400 (Eastern Daylight Time)","577324","Untrustworthy,Trustworthy","","null","","","","ratingFB","","trustrating_stim/white_mw066.bmp","null","","","","","","","","","","",""
"image-keyboard-response","29","52254","0.0-6.0-1.12","63d7a9346e833b93500723d4","bdp_trlrn","Tue Mar 14 2023 20:46:45 GMT-0400 (Eastern Daylight Time)","577324","Untrustworthy,Trustworthy","","1538","","","","rating","","trustrating_stim/white_mw097.bmp","3","","","","","","","","","","",""
"image-keyboard-response","30","52455","0.0-6.0-2.12","63d7a9346e833b93500723d4","bdp_trlrn","Tue Mar 14 2023 20:46:45 GMT-0400 (Eastern Daylight Time)","577324","Untrustworthy,Trustworthy","","null","","","","ratingFB","","trustrating_stim/white_mw097.bmp","null","","","","","","","","","","",""
"image-keyboard-response","31","54136","0.0-6.0-1.13","63d7a9346e833b93500723d4","bdp_trlrn","Tue Mar 14 2023 20:46:45 GMT-0400 (Eastern Daylight Time)","577324","Untrustworthy,Trustworthy","","1580","","","","rating","","trustrating_stim/white_mw089.bmp","1","","","","","","","","","","",""
"image-keyboard-response","32","54338","0.0-6.0-2.13","63d7a9346e833b93500723d4","bdp_trlrn","Tue Mar 14 2023 20:46:45 GMT-0400 (Eastern Daylight Time)","577324","Untrustworthy,Trustworthy","","null","","","","ratingFB","","trustrating_stim/white_mw089.bmp","null","","","","","","","","","","",""
"image-keyboard-response","33","55967","0.0-6.0-1.14","63d7a9346e833b93500723d4","bdp_trlrn","Tue Mar 14 2023 20:46:45 GMT-0400 (Eastern Daylight Time)","577324","Untrustworthy,Trustworthy","","1528","","","","rating","","trustrating_stim/white_mw056.bmp","1","","","","","","","","","","",""
"image-keyboard-response","34","56168","0.0-6.0-2.14","63d7a9346e833b93500723d4","bdp_trlrn","Tue Mar 14 2023 20:46:45 GMT-0400 (Eastern Daylight Time)","577324","Untrustworthy,Trustworthy","","null","","","","ratingFB","","trustrating_stim/white_mw056.bmp","null","","","","","","","","","","",""
"image-keyboard-response","35","58246","0.0-6.0-1.15","63d7a9346e833b93500723d4","bdp_trlrn","Tue Mar 14 2023 20:46:45 GMT-0400 (Eastern Daylight Time)","577324","Untrustworthy,Trustworthy","","1976","","","","rating","","trustrating_stim/white_00757_941201_fa_edt.bmp","3","","","","","","","","","","",""
"image-keyboard-response","36","58448","0.0-6.0-2.15","63d7a9346e833b93500723d4","bdp_trlrn","Tue Mar 14 2023 20:46:45 GMT-0400 (Eastern Daylight Time)","577324","Untrustworthy,Trustworthy","","null","","","","ratingFB","","trustrating_stim/white_00757_941201_fa_edt.bmp","null","","","","","","","","","","",""
"image-keyboard-response","37","59774","0.0-6.0-1.16","63d7a9346e833b93500723d4","bdp_trlrn","Tue Mar 14 2023 20:46:45 GMT-0400 (Eastern Daylight Time)","577324","Untrustworthy,Trustworthy","","1225","","","","rating","","trustrating_stim/white_00223_940128_fb_edt.bmp","2","","","","","","","","","","",""
"image-keyboard-response","38","59976","0.0-6.0-2.16","63d7a9346e833b93500723d4","bdp_trlrn","Tue Mar 14 2023 20:46:45 GMT-0400 (Eastern Daylight Time)","577324","Untrustworthy,Trustworthy","","null","","","","ratingFB","","trustrating_stim/white_00223_940128_fb_edt.bmp","null","","","","","","","","","","",""
"image-keyboard-response","39","61239","0.0-6.0-1.17","63d7a9346e833b93500723d4","bdp_trlrn","Tue Mar 14 2023 20:46:45 GMT-0400 (Eastern Daylight Time)","577324","Untrustworthy,Trustworthy","","1162","","","","rating","","trustrating_stim/white_00129_931230_fb_edt.bmp","2","","","","","","","","","","",""
"image-keyboard-response","40","61441","0.0-6.0-2.17","63d7a9346e833b93500723d4","bdp_trlrn","Tue Mar 14 2023 20:46:45 GMT-0400 (Eastern Daylight Time)","577324","Untrustworthy,Trustworthy","","null","","","","ratingFB","","trustrating_stim/white_00129_931230_fb_edt.bmp","null","","","","","","","","","","",""
"image-keyboard-response","41","63383","0.0-6.0-1.18","63d7a9346e833b93500723d4","bdp_trlrn","Tue Mar 14 2023 20:46:45 GMT-0400 (Eastern Daylight Time)","577324","Untrustworthy,Trustworthy","","1841","","","","rating","","trustrating_stim/white_mw060.bmp","8","","","","","","","","","","",""
"image-keyboard-response","42","63584","0.0-6.0-2.18","63d7a9346e833b93500723d4","bdp_trlrn","Tue Mar 14 2023 20:46:45 GMT-0400 (Eastern Daylight Time)","577324","Untrustworthy,Trustworthy","","null","","","","ratingFB","","trustrating_stim/white_mw060.bmp","null","","","","","","","","","","",""
"image-keyboard-response","43","66550","0.0-6.0-1.19","63d7a9346e833b93500723d4","bdp_trlrn","Tue Mar 14 2023 20:46:45 GMT-0400 (Eastern Daylight Time)","577324","Untrustworthy,Trustworthy","","2864","","","","rating","","trustrating_stim/white_00299_940422_fa_edt.bmp","5","","","","","","","","","","",""
"image-keyboard-response","44","66752","0.0-6.0-2.19","63d7a9346e833b93500723d4","bdp_trlrn","Tue Mar 14 2023 20:46:45 GMT-0400 (Eastern Daylight Time)","577324","Untrustworthy,Trustworthy","","null","","","","ratingFB","","trustrating_stim/white_00299_940422_fa_edt.bmp","null","","","","","","","","","","",""
"image-keyboard-response","45","69167","0.0-6.0-1.20","63d7a9346e833b93500723d4","bdp_trlrn","Tue Mar 14 2023 20:46:45 GMT-0400 (Eastern Daylight Time)","577324","Untrustworthy,Trustworthy","","2313","","","","rating","","trustrating_stim/white_00807_941205_fb_edt.bmp","7","","","","","","","","","","",""
"image-keyboard-response","46","69367","0.0-6.0-2.20","63d7a9346e833b93500723d4","bdp_trlrn","Tue Mar 14 2023 20:46:45 GMT-0400 (Eastern Daylight Time)","577324","Untrustworthy,Trustworthy","","null","","","","ratingFB","","trustrating_stim/white_00807_941205_fb_edt.bmp","null","","","","","","","","","","",""
"image-keyboard-response","47","71406","0.0-6.0-1.21","63d7a9346e833b93500723d4","bdp_trlrn","Tue Mar 14 2023 20:46:45 GMT-0400 (Eastern Daylight Time)","577324","Untrustworthy,Trustworthy","","1936","","","","rating","","trustrating_stim/white_mw046.bmp","5","","","","","","","","","","",""
"image-keyboard-response","48","71607","0.0-6.0-2.21","63d7a9346e833b93500723d4","bdp_trlrn","Tue Mar 14 2023 20:46:45 GMT-0400 (Eastern Daylight Time)","577324","Untrustworthy,Trustworthy","","null","","","","ratingFB","","trustrating_stim/white_mw046.bmp","null","","","","","","","","","","",""
"image-keyboard-response","49","74158","0.0-6.0-1.22","63d7a9346e833b93500723d4","bdp_trlrn","Tue Mar 14 2023 20:46:45 GMT-0400 (Eastern Daylight Time)","577324","Untrustworthy,Trustworthy","","2449","","","","rating","","trustrating_stim/white_00785_941205_fb_edt.bmp","5","","","","","","","","","","",""
"image-keyboard-response","50","74359","0.0-6.0-2.22","63d7a9346e833b93500723d4","bdp_trlrn","Tue Mar 14 2023 20:46:45 GMT-0400 (Eastern Daylight Time)","577324","Untrustworthy,Trustworthy","","null","","","","ratingFB","","trustrating_stim/white_00785_941205_fb_edt.bmp","null","","","","","","","","","","",""
"image-keyboard-response","51","75759","0.0-6.0-1.23","63d7a9346e833b93500723d4","bdp_trlrn","Tue Mar 14 2023 20:46:45 GMT-0400 (Eastern Daylight Time)","577324","Untrustworthy,Trustworthy","","1299","","","","rating","","trustrating_stim/white_00109_931230_fa_edt.bmp","6","","","","","","","","","","",""
"image-keyboard-response","52","75960","0.0-6.0-2.23","63d7a9346e833b93500723d4","bdp_trlrn","Tue Mar 14 2023 20:46:45 GMT-0400 (Eastern Daylight Time)","577324","Untrustworthy,Trustworthy","","null","","","","ratingFB","","trustrating_stim/white_00109_931230_fa_edt.bmp","null","","","","","","","","","","",""
"image-keyboard-response","53","79366","0.0-6.0-1.24","63d7a9346e833b93500723d4","bdp_trlrn","Tue Mar 14 2023 20:46:45 GMT-0400 (Eastern Daylight Time)","577324","Untrustworthy,Trustworthy","","3304","","","","rating","","trustrating_stim/white_00340_940422_fa_edt.bmp","5","","","","","","","","","","",""
"image-keyboard-response","54","79568","0.0-6.0-2.24","63d7a9346e833b93500723d4","bdp_trlrn","Tue Mar 14 2023 20:46:45 GMT-0400 (Eastern Daylight Time)","577324","Untrustworthy,Trustworthy","","null","","","","ratingFB","","trustrating_stim/white_00340_940422_fa_edt.bmp","null","","","","","","","","","","",""
"image-keyboard-response","55","81006","0.0-6.0-1.25","63d7a9346e833b93500723d4","bdp_trlrn","Tue Mar 14 2023 20:46:45 GMT-0400 (Eastern Daylight Time)","577324","Untrustworthy,Trustworthy","","1337","","","","rating","","trustrating_stim/white_mw048.bmp","5","","","","","","","","","","",""
"image-keyboard-response","56","81210","0.0-6.0-2.25","63d7a9346e833b93500723d4","bdp_trlrn","Tue Mar 14 2023 20:46:45 GMT-0400 (Eastern Daylight Time)","577324","Untrustworthy,Trustworthy","","null","","","","ratingFB","","trustrating_stim/white_mw048.bmp","null","","","","","","","","","","",""
"image-keyboard-response","57","82670","0.0-6.0-1.26","63d7a9346e833b93500723d4","bdp_trlrn","Tue Mar 14 2023 20:46:45 GMT-0400 (Eastern Daylight Time)","577324","Untrustworthy,Trustworthy","","1359","","","","rating","","trustrating_stim/white_mw063.bmp","2","","","","","","","","","","",""
"image-keyboard-response","58","82872","0.0-6.0-2.26","63d7a9346e833b93500723d4","bdp_trlrn","Tue Mar 14 2023 20:46:45 GMT-0400 (Eastern Daylight Time)","577324","Untrustworthy,Trustworthy","","null","","","","ratingFB","","trustrating_stim/white_mw063.bmp","null","","","","","","","","","","",""
"image-keyboard-response","59","84566","0.0-6.0-1.27","63d7a9346e833b93500723d4","bdp_trlrn","Tue Mar 14 2023 20:46:45 GMT-0400 (Eastern Daylight Time)","577324","Untrustworthy,Trustworthy","","1582","","","","rating","","trustrating_stim/white_mw071.bmp","1","","","","","","","","","","",""
"image-keyboard-response","60","84768","0.0-6.0-2.27","63d7a9346e833b93500723d4","bdp_trlrn","Tue Mar 14 2023 20:46:45 GMT-0400 (Eastern Daylight Time)","577324","Untrustworthy,Trustworthy","","null","","","","ratingFB","","trustrating_stim/white_mw071.bmp","null","","","","","","","","","","",""
"image-keyboard-response","61","86070","0.0-6.0-1.28","63d7a9346e833b93500723d4","bdp_trlrn","Tue Mar 14 2023 20:46:45 GMT-0400 (Eastern Daylight Time)","577324","Untrustworthy,Trustworthy","","1201","","","","rating","","trustrating_stim/white_00577_940928_fa_edt.bmp","5","","","","","","","","","","",""
"image-keyboard-response","62","86271","0.0-6.0-2.28","63d7a9346e833b93500723d4","bdp_trlrn","Tue Mar 14 2023 20:46:45 GMT-0400 (Eastern Daylight Time)","577324","Untrustworthy,Trustworthy","","null","","","","ratingFB","","trustrating_stim/white_00577_940928_fa_edt.bmp","null","","","","","","","","","","",""
"image-keyboard-response","63","87766","0.0-6.0-1.29","63d7a9346e833b93500723d4","bdp_trlrn","Tue Mar 14 2023 20:46:45 GMT-0400 (Eastern Daylight Time)","577324","Untrustworthy,Trustworthy","","1393","","","","rating","","trustrating_stim/white_mw049.bmp","6","","","","","","","","","","",""
"image-keyboard-response","64","87968","0.0-6.0-2.29","63d7a9346e833b93500723d4","bdp_trlrn","Tue Mar 14 2023 20:46:45 GMT-0400 (Eastern Daylight Time)","577324","Untrustworthy,Trustworthy","","null","","","","ratingFB","","trustrating_stim/white_mw049.bmp","null","","","","","","","","","","",""
"image-keyboard-response","65","90142","0.0-6.0-1.30","63d7a9346e833b93500723d4","bdp_trlrn","Tue Mar 14 2023 20:46:45 GMT-0400 (Eastern Daylight Time)","577324","Untrustworthy,Trustworthy","","2073","","","","rating","","trustrating_stim/white_00602_940928_fb_edt.bmp","6","","","","","","","","","","",""
"image-keyboard-response","66","90343","0.0-6.0-2.30","63d7a9346e833b93500723d4","bdp_trlrn","Tue Mar 14 2023 20:46:45 GMT-0400 (Eastern Daylight Time)","577324","Untrustworthy,Trustworthy","","null","","","","ratingFB","","trustrating_stim/white_00602_940928_fb_edt.bmp","null","","","","","","","","","","",""
"image-keyboard-response","67","93278","0.0-6.0-1.31","63d7a9346e833b93500723d4","bdp_trlrn","Tue Mar 14 2023 20:46:45 GMT-0400 (Eastern Daylight Time)","577324","Untrustworthy,Trustworthy","","2833","","","","rating","","trustrating_stim/white_00807_941205_fb_edt.bmp","5","","","","","","","","","","",""
"image-keyboard-response","68","93480","0.0-6.0-2.31","63d7a9346e833b93500723d4","bdp_trlrn","Tue Mar 14 2023 20:46:45 GMT-0400 (Eastern Daylight Time)","577324","Untrustworthy,Trustworthy","","null","","","","ratingFB","","trustrating_stim/white_00807_941205_fb_edt.bmp","null","","","","","","","","","","",""
"image-keyboard-response","69","94942","0.0-6.0-1.32","63d7a9346e833b93500723d4","bdp_trlrn","Tue Mar 14 2023 20:46:45 GMT-0400 (Eastern Daylight Time)","577324","Untrustworthy,Trustworthy","","1361","","","","rating","","trustrating_stim/white_00223_940128_fb_edt.bmp","5","","","","","","","","","","",""
"image-keyboard-response","70","95143","0.0-6.0-2.32","63d7a9346e833b93500723d4","bdp_trlrn","Tue Mar 14 2023 20:46:45 GMT-0400 (Eastern Daylight Time)","577324","Untrustworthy,Trustworthy","","null","","","","ratingFB","","trustrating_stim/white_00223_940128_fb_edt.bmp","null","","","","","","","","","","",""
"image-keyboard-response","71","97254","0.0-6.0-1.33","63d7a9346e833b93500723d4","bdp_trlrn","Tue Mar 14 2023 20:46:45 GMT-0400 (Eastern Daylight Time)","577324","Untrustworthy,Trustworthy","","2009","","","","rating","","trustrating_stim/white_00129_931230_fb_edt.bmp","5","","","","","","","","","","",""
"image-keyboard-response","72","97455","0.0-6.0-2.33","63d7a9346e833b93500723d4","bdp_trlrn","Tue Mar 14 2023 20:46:45 GMT-0400 (Eastern Daylight Time)","577324","Untrustworthy,Trustworthy","","null","","","","ratingFB","","trustrating_stim/white_00129_931230_fb_edt.bmp","null","","","","","","","","","","",""
"image-keyboard-response","73","99118","0.0-6.0-1.34","63d7a9346e833b93500723d4","bdp_trlrn","Tue Mar 14 2023 20:46:45 GMT-0400 (Eastern Daylight Time)","577324","Untrustworthy,Trustworthy","","1562","","","","rating","","trustrating_stim/white_mw071.bmp","2","","","","","","","","","","",""
"image-keyboard-response","74","99319","0.0-6.0-2.34","63d7a9346e833b93500723d4","bdp_trlrn","Tue Mar 14 2023 20:46:45 GMT-0400 (Eastern Daylight Time)","577324","Untrustworthy,Trustworthy","","null","","","","ratingFB","","trustrating_stim/white_mw071.bmp","null","","","","","","","","","","",""
"image-keyboard-response","75","100926","0.0-6.0-1.35","63d7a9346e833b93500723d4","bdp_trlrn","Tue Mar 14 2023 20:46:45 GMT-0400 (Eastern Daylight Time)","577324","Untrustworthy,Trustworthy","","1504","","","","rating","","trustrating_stim/white_mw089.bmp","1","","","","","","","","","","",""
"image-keyboard-response","76","101127","0.0-6.0-2.35","63d7a9346e833b93500723d4","bdp_trlrn","Tue Mar 14 2023 20:46:45 GMT-0400 (Eastern Daylight Time)","577324","Untrustworthy,Trustworthy","","null","","","","ratingFB","","trustrating_stim/white_mw089.bmp","null","","","","","","","","","","",""
"image-keyboard-response","77","102806","0.0-6.0-1.36","63d7a9346e833b93500723d4","bdp_trlrn","Tue Mar 14 2023 20:46:45 GMT-0400 (Eastern Daylight Time)","577324","Untrustworthy,Trustworthy","","1577","","","","rating","","trustrating_stim/white_mw084.bmp","2","","","","","","","","","","",""
"image-keyboard-response","78","103008","0.0-6.0-2.36","63d7a9346e833b93500723d4","bdp_trlrn","Tue Mar 14 2023 20:46:45 GMT-0400 (Eastern Daylight Time)","577324","Untrustworthy,Trustworthy","","null","","","","ratingFB","","trustrating_stim/white_mw084.bmp","null","","","","","","","","","","",""
"image-keyboard-response","79","104199","0.0-6.0-1.37","63d7a9346e833b93500723d4","bdp_trlrn","Tue Mar 14 2023 20:46:45 GMT-0400 (Eastern Daylight Time)","577324","Untrustworthy,Trustworthy","","1089","","","","rating","","trustrating_stim/white_mw097.bmp","1","","","","","","","","","","",""
"image-keyboard-response","80","104401","0.0-6.0-2.37","63d7a9346e833b93500723d4","bdp_trlrn","Tue Mar 14 2023 20:46:45 GMT-0400 (Eastern Daylight Time)","577324","Untrustworthy,Trustworthy","","null","","","","ratingFB","","trustrating_stim/white_mw097.bmp","null","","","","","","","","","","",""
"image-keyboard-response","81","105830","0.0-6.0-1.38","63d7a9346e833b93500723d4","bdp_trlrn","Tue Mar 14 2023 20:46:45 GMT-0400 (Eastern Daylight Time)","577324","Untrustworthy,Trustworthy","","1327","","","","rating","","trustrating_stim/white_mw053.bmp","5","","","","","","","","","","",""
"image-keyboard-response","82","106031","0.0-6.0-2.38","63d7a9346e833b93500723d4","bdp_trlrn","Tue Mar 14 2023 20:46:45 GMT-0400 (Eastern Daylight Time)","577324","Untrustworthy,Trustworthy","","null","","","","ratingFB","","trustrating_stim/white_mw053.bmp","null","","","","","","","","","","",""
"image-keyboard-response","83","107798","0.0-6.0-1.39","63d7a9346e833b93500723d4","bdp_trlrn","Tue Mar 14 2023 20:46:45 GMT-0400 (Eastern Daylight Time)","577324","Untrustworthy,Trustworthy","","1666","","","","rating","","trustrating_stim/white_mw099.bmp","5","","","","","","","","","","",""
"image-keyboard-response","84","107999","0.0-6.0-2.39","63d7a9346e833b93500723d4","bdp_trlrn","Tue Mar 14 2023 20:46:45 GMT-0400 (Eastern Daylight Time)","577324","Untrustworthy,Trustworthy","","null","","","","ratingFB","","trustrating_stim/white_mw099.bmp","null","","","","","","","","","","",""
"image-keyboard-response","85","109902","0.0-6.0-1.40","63d7a9346e833b93500723d4","bdp_trlrn","Tue Mar 14 2023 20:46:45 GMT-0400 (Eastern Daylight Time)","577324","Untrustworthy,Trustworthy","","1802","","","","rating","","trustrating_stim/white_mw056.bmp","2","","","","","","","","","","",""
"image-keyboard-response","86","110103","0.0-6.0-2.40","63d7a9346e833b93500723d4","bdp_trlrn","Tue Mar 14 2023 20:46:45 GMT-0400 (Eastern Daylight Time)","577324","Untrustworthy,Trustworthy","","null","","","","ratingFB","","trustrating_stim/white_mw056.bmp","null","","","","","","","","","","",""
"image-keyboard-response","87","111782","0.0-6.0-1.41","63d7a9346e833b93500723d4","bdp_trlrn","Tue Mar 14 2023 20:46:45 GMT-0400 (Eastern Daylight Time)","577324","Untrustworthy,Trustworthy","","1577","","","","rating","","trustrating_stim/white_mw066.bmp","2","","","","","","","","","","",""
"image-keyboard-response","88","111983","0.0-6.0-2.41","63d7a9346e833b93500723d4","bdp_trlrn","Tue Mar 14 2023 20:46:45 GMT-0400 (Eastern Daylight Time)","577324","Untrustworthy,Trustworthy","","null","","","","ratingFB","","trustrating_stim/white_mw066.bmp","null","","","","","","","","","","",""
"image-keyboard-response","89","112982","0.0-6.0-1.42","63d7a9346e833b93500723d4","bdp_trlrn","Tue Mar 14 2023 20:46:45 GMT-0400 (Eastern Daylight Time)","577324","Untrustworthy,Trustworthy","","885","","","","rating","","trustrating_stim/white_mw046.bmp","5","","","","","","","","","","",""
"image-keyboard-response","90","113184","0.0-6.0-2.42","63d7a9346e833b93500723d4","bdp_trlrn","Tue Mar 14 2023 20:46:45 GMT-0400 (Eastern Daylight Time)","577324","Untrustworthy,Trustworthy","","null","","","","ratingFB","","trustrating_stim/white_mw046.bmp","null","","","","","","","","","","",""
"image-keyboard-response","91","114525","0.0-6.0-1.43","63d7a9346e833b93500723d4","bdp_trlrn","Tue Mar 14 2023 20:46:45 GMT-0400 (Eastern Daylight Time)","577324","Untrustworthy,Trustworthy","","1237","","","","rating","","trustrating_stim/white_00761_941201_fb_edt.bmp","6","","","","","","","","","","",""
"image-keyboard-response","92","114726","0.0-6.0-2.43","63d7a9346e833b93500723d4","bdp_trlrn","Tue Mar 14 2023 20:46:45 GMT-0400 (Eastern Daylight Time)","577324","Untrustworthy,Trustworthy","","null","","","","ratingFB","","trustrating_stim/white_00761_941201_fb_edt.bmp","null","","","","","","","","","","",""
"image-keyboard-response","93","116149","0.0-6.0-1.44","63d7a9346e833b93500723d4","bdp_trlrn","Tue Mar 14 2023 20:46:45 GMT-0400 (Eastern Daylight Time)","577324","Untrustworthy,Trustworthy","","1321","","","","rating","","trustrating_stim/white_00898_960530_fa_edt.bmp","7","","","","","","","","","","",""
"image-keyboard-response","94","116350","0.0-6.0-2.44","63d7a9346e833b93500723d4","bdp_trlrn","Tue Mar 14 2023 20:46:45 GMT-0400 (Eastern Daylight Time)","577324","Untrustworthy,Trustworthy","","null","","","","ratingFB","","trustrating_stim/white_00898_960530_fa_edt.bmp","null","","","","","","","","","","",""
"image-keyboard-response","95","117997","0.0-6.0-1.45","63d7a9346e833b93500723d4","bdp_trlrn","Tue Mar 14 2023 20:46:45 GMT-0400 (Eastern Daylight Time)","577324","Untrustworthy,Trustworthy","","1545","","","","rating","","trustrating_stim/white_mw035.bmp","3","","","","","","","","","","",""
"image-keyboard-response","96","118198","0.0-6.0-2.45","63d7a9346e833b93500723d4","bdp_trlrn","Tue Mar 14 2023 20:46:45 GMT-0400 (Eastern Daylight Time)","577324","Untrustworthy,Trustworthy","","null","","","","ratingFB","","trustrating_stim/white_mw035.bmp","null","","","","","","","","","","",""
"image-keyboard-response","97","120085","0.0-6.0-1.46","63d7a9346e833b93500723d4","bdp_trlrn","Tue Mar 14 2023 20:46:45 GMT-0400 (Eastern Daylight Time)","577324","Untrustworthy,Trustworthy","","1784","","","","rating","","trustrating_stim/white_mw033.bmp","5","","","","","","","","","","",""
"image-keyboard-response","98","120287","0.0-6.0-2.46","63d7a9346e833b93500723d4","bdp_trlrn","Tue Mar 14 2023 20:46:45 GMT-0400 (Eastern Daylight Time)","577324","Untrustworthy,Trustworthy","","null","","","","ratingFB","","trustrating_stim/white_mw033.bmp","null","","","","","","","","","","",""
"image-keyboard-response","99","121677","0.0-6.0-1.47","63d7a9346e833b93500723d4","bdp_trlrn","Tue Mar 14 2023 20:46:45 GMT-0400 (Eastern Daylight Time)","577324","Untrustworthy,Trustworthy","","1288","","","","rating","","trustrating_stim/white_00659_941121_fa_edt.bmp","4","","","","","","","","","","",""
"image-keyboard-response","100","121879","0.0-6.0-2.47","63d7a9346e833b93500723d4","bdp_trlrn","Tue Mar 14 2023 20:46:45 GMT-0400 (Eastern Daylight Time)","577324","Untrustworthy,Trustworthy","","null","","","","ratingFB","","trustrating_stim/white_00659_941121_fa_edt.bmp","null","","","","","","","","","","",""
"image-keyboard-response","101","123853","0.0-6.0-1.48","63d7a9346e833b93500723d4","bdp_trlrn","Tue Mar 14 2023 20:46:45 GMT-0400 (Eastern Daylight Time)","577324","Untrustworthy,Trustworthy","","1873","","","","rating","","trustrating_stim/white_mw048.bmp","5","","","","","","","","","","",""
"image-keyboard-response","102","124054","0.0-6.0-2.48","63d7a9346e833b93500723d4","bdp_trlrn","Tue Mar 14 2023 20:46:45 GMT-0400 (Eastern Daylight Time)","577324","Untrustworthy,Trustworthy","","null","","","","ratingFB","","trustrating_stim/white_mw048.bmp","null","","","","","","","","","","",""
"image-keyboard-response","103","125157","0.0-6.0-1.49","63d7a9346e833b93500723d4","bdp_trlrn","Tue Mar 14 2023 20:46:45 GMT-0400 (Eastern Daylight Time)","577324","Untrustworthy,Trustworthy","","1002","","","","rating","","trustrating_stim/white_00109_931230_fa_edt.bmp","4","","","","","","","","","","",""
"image-keyboard-response","104","125359","0.0-6.0-2.49","63d7a9346e833b93500723d4","bdp_trlrn","Tue Mar 14 2023 20:46:45 GMT-0400 (Eastern Daylight Time)","577324","Untrustworthy,Trustworthy","","null","","","","ratingFB","","trustrating_stim/white_00109_931230_fa_edt.bmp","null","","","","","","","","","","",""
"image-keyboard-response","105","126741","0.0-6.0-1.50","63d7a9346e833b93500723d4","bdp_trlrn","Tue Mar 14 2023 20:46:45 GMT-0400 (Eastern Daylight Time)","577324","Untrustworthy,Trustworthy","","1280","","","","rating","","trustrating_stim/white_00340_940422_fa_edt.bmp","5","","","","","","","","","","",""
"image-keyboard-response","106","126942","0.0-6.0-2.50","63d7a9346e833b93500723d4","bdp_trlrn","Tue Mar 14 2023 20:46:45 GMT-0400 (Eastern Daylight Time)","577324","Untrustworthy,Trustworthy","","null","","","","ratingFB","","trustrating_stim/white_00340_940422_fa_edt.bmp","null","","","","","","","","","","",""
"image-keyboard-response","107","127861","0.0-6.0-1.51","63d7a9346e833b93500723d4","bdp_trlrn","Tue Mar 14 2023 20:46:45 GMT-0400 (Eastern Daylight Time)","577324","Untrustworthy,Trustworthy","","817","","","","rating","","trustrating_stim/white_mw060.bmp","3","","","","","","","","","","",""
"image-keyboard-response","108","128062","0.0-6.0-2.51","63d7a9346e833b93500723d4","bdp_trlrn","Tue Mar 14 2023 20:46:45 GMT-0400 (Eastern Daylight Time)","577324","Untrustworthy,Trustworthy","","null","","","","ratingFB","","trustrating_stim/white_mw060.bmp","null","","","","","","","","","","",""
"image-keyboard-response","109","129646","0.0-6.0-1.52","63d7a9346e833b93500723d4","bdp_trlrn","Tue Mar 14 2023 20:46:45 GMT-0400 (Eastern Daylight Time)","577324","Untrustworthy,Trustworthy","","1482","","","","rating","","trustrating_stim/white_00757_941201_fa_edt.bmp","5","","","","","","","","","","",""
"image-keyboard-response","110","129848","0.0-6.0-2.52","63d7a9346e833b93500723d4","bdp_trlrn","Tue Mar 14 2023 20:46:45 GMT-0400 (Eastern Daylight Time)","577324","Untrustworthy,Trustworthy","","null","","","","ratingFB","","trustrating_stim/white_00757_941201_fa_edt.bmp","null","","","","","","","","","","",""
"image-keyboard-response","111","130837","0.0-6.0-1.53","63d7a9346e833b93500723d4","bdp_trlrn","Tue Mar 14 2023 20:46:45 GMT-0400 (Eastern Daylight Time)","577324","Untrustworthy,Trustworthy","","886","","","","rating","","trustrating_stim/white_mw063.bmp","5","","","","","","","","","","",""
"image-keyboard-response","112","131038","0.0-6.0-2.53","63d7a9346e833b93500723d4","bdp_trlrn","Tue Mar 14 2023 20:46:45 GMT-0400 (Eastern Daylight Time)","577324","Untrustworthy,Trustworthy","","null","","","","ratingFB","","trustrating_stim/white_mw063.bmp","null","","","","","","","","","","",""
"image-keyboard-response","113","132445","0.0-6.0-1.54","63d7a9346e833b93500723d4","bdp_trlrn","Tue Mar 14 2023 20:46:45 GMT-0400 (Eastern Daylight Time)","577324","Untrustworthy,Trustworthy","","1305","","","","rating","","trustrating_stim/white_00577_940928_fa_edt.bmp","4","","","","","","","","","","",""
"image-keyboard-response","114","132660","0.0-6.0-2.54","63d7a9346e833b93500723d4","bdp_trlrn","Tue Mar 14 2023 20:46:45 GMT-0400 (Eastern Daylight Time)","577324","Untrustworthy,Trustworthy","","null","","","","ratingFB","","trustrating_stim/white_00577_940928_fa_edt.bmp","null","","","","","","","","","","",""
"image-keyboard-response","115","134877","0.0-6.0-1.55","63d7a9346e833b93500723d4","bdp_trlrn","Tue Mar 14 2023 20:46:45 GMT-0400 (Eastern Daylight Time)","577324","Untrustworthy,Trustworthy","","2115","","","","rating","","trustrating_stim/white_00519_940519_fb_edt.bmp","9","","","","","","","","","","",""
"image-keyboard-response","116","135079","0.0-6.0-2.55","63d7a9346e833b93500723d4","bdp_trlrn","Tue Mar 14 2023 20:46:45 GMT-0400 (Eastern Daylight Time)","577324","Untrustworthy,Trustworthy","","null","","","","ratingFB","","trustrating_stim/white_00519_940519_fb_edt.bmp","null","","","","","","","","","","",""
"image-keyboard-response","117","136662","0.0-6.0-1.56","63d7a9346e833b93500723d4","bdp_trlrn","Tue Mar 14 2023 20:46:45 GMT-0400 (Eastern Daylight Time)","577324","Untrustworthy,Trustworthy","","1481","","","","rating","","trustrating_stim/white_mw049.bmp","7","","","","","","","","","","",""
"image-keyboard-response","118","136864","0.0-6.0-2.56","63d7a9346e833b93500723d4","bdp_trlrn","Tue Mar 14 2023 20:46:45 GMT-0400 (Eastern Daylight Time)","577324","Untrustworthy,Trustworthy","","null","","","","ratingFB","","trustrating_stim/white_mw049.bmp","null","","","","","","","","","","",""
"image-keyboard-response","119","138645","0.0-6.0-1.57","63d7a9346e833b93500723d4","bdp_trlrn","Tue Mar 14 2023 20:46:45 GMT-0400 (Eastern Daylight Time)","577324","Untrustworthy,Trustworthy","","1680","","","","rating","","trustrating_stim/white_00120_931230_fa_edt.bmp","7","","","","","","","","","","",""
"image-keyboard-response","120","138848","0.0-6.0-2.57","63d7a9346e833b93500723d4","bdp_trlrn","Tue Mar 14 2023 20:46:45 GMT-0400 (Eastern Daylight Time)","577324","Untrustworthy,Trustworthy","","null","","","","ratingFB","","trustrating_stim/white_00120_931230_fa_edt.bmp","null","","","","","","","","","","",""
"image-keyboard-response","121","140085","0.0-6.0-1.58","63d7a9346e833b93500723d4","bdp_trlrn","Tue Mar 14 2023 20:46:45 GMT-0400 (Eastern Daylight Time)","577324","Untrustworthy,Trustworthy","","1136","","","","rating","","trustrating_stim/white_00299_940422_fa_edt.bmp","7","","","","","","","","","","",""
"image-keyboard-response","122","140286","0.0-6.0-2.58","63d7a9346e833b93500723d4","bdp_trlrn","Tue Mar 14 2023 20:46:45 GMT-0400 (Eastern Daylight Time)","577324","Untrustworthy,Trustworthy","","null","","","","ratingFB","","trustrating_stim/white_00299_940422_fa_edt.bmp","null","","","","","","","","","","",""
"image-keyboard-response","123","142189","0.0-6.0-1.59","63d7a9346e833b93500723d4","bdp_trlrn","Tue Mar 14 2023 20:46:45 GMT-0400 (Eastern Daylight Time)","577324","Untrustworthy,Trustworthy","","1801","","","","rating","","trustrating_stim/white_00785_941205_fb_edt.bmp","6","","","","","","","","","","",""
"image-keyboard-response","124","142391","0.0-6.0-2.59","63d7a9346e833b93500723d4","bdp_trlrn","Tue Mar 14 2023 20:46:45 GMT-0400 (Eastern Daylight Time)","577324","Untrustworthy,Trustworthy","","null","","","","ratingFB","","trustrating_stim/white_00785_941205_fb_edt.bmp","null","","","","","","","","","","",""
"instructions","125","143829","0.0-7.0","63d7a9346e833b93500723d4","bdp_trlrn","Tue Mar 14 2023 20:46:45 GMT-0400 (Eastern Daylight Time)","577324","Untrustworthy,Trustworthy","[{""page_index"":0,""viewing_time"":1337}]","1337","","","","","","","","","","","","","","","","","",""
"instructions","126","225583","0.0-8.0","63d7a9346e833b93500723d4","bdp_trlrn","Tue Mar 14 2023 20:46:45 GMT-0400 (Eastern Daylight Time)","577324","Untrustworthy,Trustworthy","[{""page_index"":0,""viewing_time"":21337},{""page_index"":1,""viewing_time"":22089},{""page_index"":2,""viewing_time"":9896},{""page_index"":3,""viewing_time"":7952},{""page_index"":4,""viewing_time"":6392},{""page_index"":5,""viewing_time"":5864},{""page_index"":6,""viewing_time"":6736},{""page_index"":7,""viewing_time"":1385}]","81651","","","","","","","","","","","","","","","","","",""
"html-keyboard-response","127","230438","0.0-9.0","63d7a9346e833b93500723d4","bdp_trlrn","Tue Mar 14 2023 20:46:45 GMT-0400 (Eastern Daylight Time)","577324","Untrustworthy,Trustworthy","","4854","","","","","","<div class='header' style='text-align:left; position: absolute; top: 5%; left: 5%;'><small>Task 3 of 5</small></div><div class='instruxDiv'><p><strong>1) What is the minimum number of points you can choose to send to your partner?</strong></p><p>a) 0</p><p>b) 1</p><p>c) 5</p>","C","","","","","","","","","","",""
"html-keyboard-response","128","237286","0.0-10.0","63d7a9346e833b93500723d4","bdp_trlrn","Tue Mar 14 2023 20:46:45 GMT-0400 (Eastern Daylight Time)","577324","Untrustworthy,Trustworthy","","6745","","","","","","<div class='header' style='text-align:left; position: absolute; top: 5%; left: 5%;'><small>Task 3 of 5</small></div><div class='instruxDiv'><p><strong>1) What is the minimum number of points you can choose to send to your partner?</strong></p><p>a) 1</p><p>b) 1</p><p style='color:#FF0000'>c) 5</p><h3 style='color:#FF0000'>Incorrect!</h3><h3 class='center-content'>The correct response is b).</h3><h3 class='center-content'>The minimum number of points you can choose to send to your partner is 1 point.</h3><p><em>Press SPACEBAR to continue</em></p></div>"," ","","","","","","","","","","",""
"html-keyboard-response","129","244222","0.0-11.0","63d7a9346e833b93500723d4","bdp_trlrn","Tue Mar 14 2023 20:46:45 GMT-0400 (Eastern Daylight Time)","577324","Untrustworthy,Trustworthy","","6835","","","","","","<div class='header' style='text-align:left; position: absolute; top: 5%; left: 5%;'><small>Task 3 of 5</small></div><div class='instruxDiv'><p><strong>2) What is the maximum number of points you can choose to send to your partner?</strong></p><p>a) 8</p><p>b) 5</p><p>c) 3</p>","B","","","","","","","","","","",""
"html-keyboard-response","130","247326","0.0-12.0","63d7a9346e833b93500723d4","bdp_trlrn","Tue Mar 14 2023 20:46:45 GMT-0400 (Eastern Daylight Time)","577324","Untrustworthy,Trustworthy","","3003","","","","","","<div class='header' style='text-align:left; position: absolute; top: 5%; left: 5%;'><small>Task 3 of 5</small></div><div class='instruxDiv'><p><strong>2) What is the maximum number of points you can choose to send to your partner?</strong></p><p>a) 8</p><p style='color:#00FF00'>b) 5</p><p>c) 3</p><h3 style='color:#00FF00'>Correct!</h3><h3 class='center-content'>The correct response is b).</h3><h3 class='center-content'>The maximum number of points you can choose to send to your partner is 5 points.</h3><p><em>Press SPACEBAR to continue</em></p></div>"," ","","","","","","","","","","",""
"html-keyboard-response","131","252445","0.0-13.0","63d7a9346e833b93500723d4","bdp_trlrn","Tue Mar 14 2023 20:46:45 GMT-0400 (Eastern Daylight Time)","577324","Untrustworthy,Trustworthy","","5019","","","","","","<div class='header' style='text-align:left; position: absolute; top: 5%; left: 5%;'><small>Task 3 of 5</small></div><div class='instruxDiv'><p><strong>3) What happens to the amount of points you send to your partner?</strong></p><p>a) Nothing</p><p>b) It doubles</p><p>c) It quadruples</p>","C","","","","","","","","","","",""
"html-keyboard-response","132","253781","0.0-14.0","63d7a9346e833b93500723d4","bdp_trlrn","Tue Mar 14 2023 20:46:45 GMT-0400 (Eastern Daylight Time)","577324","Untrustworthy,Trustworthy","","1226","","","","","","<div class='header' style='text-align:left; position: absolute; top: 5%; left: 5%;'><small>Task 3 of 5</small></div><div class='instruxDiv'><p><strong>3) What happens to the amount of points you send to your partner?</strong></p><p>a) Nothing</p><p>b) It doubles</p><p style='color:#00FF00'>c) It quadruples</p><h3 style='color:#00FF00'>Correct!</h3><h3 class='center-content'>The correct response is c).</h3><h3 class='center-content'>The amount of points you send to your partner quadruples.</h3><p><em>Press SPACEBAR to continue</em></p></div>"," ","","","","","","","","","","",""
"html-keyboard-response","133","266958","0.0-15.0","63d7a9346e833b93500723d4","bdp_trlrn","Tue Mar 14 2023 20:46:45 GMT-0400 (Eastern Daylight Time)","577324","Untrustworthy,Trustworthy","","13075","","","","","","<div class='header' style='text-align:left; position: absolute; top: 5%; left: 5%;'><small>Task 3 of 5</small></div><div class='instruxDiv'><p><strong>4) If you decided to share 4 out of 5 points with your partner, and they decided to share half of the amount they received with you, how many points would you receive back from them on this round?</strong></p><p>a) 16</p><p>b) 0</p><p>c) 8</p>","C","","","","","","","","","","",""
"html-keyboard-response","134","268069","0.0-16.0","63d7a9346e833b93500723d4","bdp_trlrn","Tue Mar 14 2023 20:46:45 GMT-0400 (Eastern Daylight Time)","577324","Untrustworthy,Trustworthy","","1010","","","","","","<div class='header' style='text-align:left; position: absolute; top: 5%; left: 5%;'><small>Task 3 of 5</small></div><div class='instruxDiv'><p><strong>4) If you decided to share 4 out of 5 points with your partner, and they decided to share half of the amount they received with you, how many points would you receive back from them on this round?</strong></p><p>a) 16</p><p>b) 0</p><p style='color:#00FF00'>c) 8</p><h3 style='color:#00FF00'>Correct!</h3><h3 class='center-content'>The correct response is c).</h3><h3 class='center-content'>If you shared 4 out of 5 points with your partner and they decided to share half of the amount they received with you, you would receive 8 points back (i.e. (4 x 4)/2 = 8).</h3><p><em>Press SPACEBAR to continue</em></p></div>"," ","","","","","","","","","","",""
"html-keyboard-response","135","273172","0.0-17.0","63d7a9346e833b93500723d4","bdp_trlrn","Tue Mar 14 2023 20:46:45 GMT-0400 (Eastern Daylight Time)","577324","Untrustworthy,Trustworthy","","null","","","","","","<div class='header' style='text-align:left; position: absolute; top: 5%; left: 5%;'><small>Task 3 of 5</small></div><div class='instruxDiv'><p>Thank you for completing the quiz<p>These are the actual partners you will be interacting with in the next block:<p><div class='tc' align='center'><img class='introPic' src='trustrating_stim/white_mw097.bmp'><br><strong>Sebastian</strong></div><div class='bl' align='center'><img class='introPic' src='trustrating_stim/white_mw046.bmp'><br><strong>Benjamin</strong></div><div class='br' align='center'><img class='introPic' src='trustrating_stim/white_00898_960530_fa_edt.bmp'><br><strong>Joseph</strong></div></div><p>Across <strong>66 rounds</strong> you will interact with each partner <strong>22 times</strong> (in random order).<p style='align:center; color:white'><font <em>Press SPACEBAR to continue</em></p>","null","","","","","","","","","","",""
"instructions","136","277774","0.0-18.0","63d7a9346e833b93500723d4","bdp_trlrn","Tue Mar 14 2023 20:46:45 GMT-0400 (Eastern Daylight Time)","577324","Untrustworthy,Trustworthy","[{""page_index"":0,""viewing_time"":1480},{""page_index"":1,""viewing_time"":3120}]","4601","","","","","","","","","","","","","","","","","",""
"html-keyboard-response","137","278941","0.0-19.0-1.0","63d7a9346e833b93500723d4","bdp_trlrn","Tue Mar 14 2023 20:46:45 GMT-0400 (Eastern Daylight Time)","577324","Untrustworthy,Trustworthy","","1066","","","","decision","","<div class='trialDiv'><img src='trustrating_stim/white_00898_960530_fa_edt.bmp'><br><font class='baseline'><strong>Joseph</strong><p>Choose number of points to send.</font><div class='respPicDiv'><img src='img/responseButtonOffersNo0L.png' class='respPic'></div></div>","5","1","Joseph","10","Kept","0.65,0.2","9","0.65","trustrating_stim/white_00898_960530_fa_edt.bmp","7.5","5","1"
"html-keyboard-response","138","279193","0.0-19.0-2.0","63d7a9346e833b93500723d4","bdp_trlrn","Tue Mar 14 2023 20:46:45 GMT-0400 (Eastern Daylight Time)","577324","Untrustworthy,Trustworthy","","null","","","","decisionFB","","<div class='trialDiv'><img src='trustrating_stim/white_00898_960530_fa_edt.bmp'><br><font class='baseline'><strong>Joseph</strong><p>Choose number of points to send.</font><div class='respPicDiv'><img src='img/responseButtonOffersNo0L5.png' class='respPic'></div></div>","null","1","Joseph","10","Kept","0.65,0.2","9","0.65","trustrating_stim/white_00898_960530_fa_edt.bmp","7.5","0","1"
"html-keyboard-response","139","280195","0.0-19.0-3.0","63d7a9346e833b93500723d4","bdp_trlrn","Tue Mar 14 2023 20:46:45 GMT-0400 (Eastern Daylight Time)","577324","Untrustworthy,Trustworthy","","null","","","","feedback","","<div class='trialDiv'><img src='trustrating_stim/white_00898_960530_fa_edt.bmp'><br><font class='baseline'><strong>Joseph</strong><p>Received: <strong>20</strong></font> &nbsp; &nbsp; &nbsp; &nbsp; &nbsp; &nbsp;<font class='negOutcome'>Shared back: <strong>0</strong></font></font><div class='respPicDiv'><img src='img/responseButtonOffersNo0_wht.png' class='respPic'></div></div>","null","1","Joseph","10","Kept","0.65,0.2","9","0.65","trustrating_stim/white_00898_960530_fa_edt.bmp","7.5","0","1"
"html-keyboard-response","140","280974","0.0-19.0-1.1","63d7a9346e833b93500723d4","bdp_trlrn","Tue Mar 14 2023 20:46:45 GMT-0400 (Eastern Daylight Time)","577324","Untrustworthy,Trustworthy","","778","","","","decision","","<div class='trialDiv'><img src='trustrating_stim/white_mw097.bmp'><br><font class='baseline'><strong>Sebastian</strong><p>Choose number of points to send.</font><div class='respPicDiv'><img src='img/responseButtonOffersNo0L.png' class='respPic'></div></div>","5","1","Sebastian","3","Kept","0.2,0.65","12","0.2","trustrating_stim/white_mw097.bmp","2","5","2"
"html-keyboard-response","141","281227","0.0-19.0-2.1","63d7a9346e833b93500723d4","bdp_trlrn","Tue Mar 14 2023 20:46:45 GMT-0400 (Eastern Daylight Time)","577324","Untrustworthy,Trustworthy","","null","","","","decisionFB","","<div class='trialDiv'><img src='trustrating_stim/white_mw097.bmp'><br><font class='baseline'><strong>Sebastian</strong><p>Choose number of points to send.</font><div class='respPicDiv'><img src='img/responseButtonOffersNo0L5.png' class='respPic'></div></div>","null","1","Sebastian","3","Kept","0.2,0.65","12","0.2","trustrating_stim/white_mw097.bmp","2","0","2"
"html-keyboard-response","142","282228","0.0-19.0-3.1","63d7a9346e833b93500723d4","bdp_trlrn","Tue Mar 14 2023 20:46:45 GMT-0400 (Eastern Daylight Time)","577324","Untrustworthy,Trustworthy","","null","","","","feedback","","<div class='trialDiv'><img src='trustrating_stim/white_mw097.bmp'><br><font class='baseline'><strong>Sebastian</strong><p>Received: <strong>20</strong></font> &nbsp; &nbsp; &nbsp; &nbsp; &nbsp; &nbsp;<font class='negOutcome'>Shared back: <strong>0</strong></font></font><div class='respPicDiv'><img src='img/responseButtonOffersNo0_wht.png' class='respPic'></div></div>","null","1","Sebastian","3","Kept","0.2,0.65","12","0.2","trustrating_stim/white_mw097.bmp","2","0","2"
"html-keyboard-response","143","283045","0.0-19.0-1.2","63d7a9346e833b93500723d4","bdp_trlrn","Tue Mar 14 2023 20:46:45 GMT-0400 (Eastern Daylight Time)","577324","Untrustworthy,Trustworthy","","816","","","","decision","","<div class='trialDiv'><img src='trustrating_stim/white_mw046.bmp'><br><font class='baseline'><strong>Benjamin</strong><p>Choose number of points to send.</font><div class='respPicDiv'><img src='img/responseButtonOffersNo0L.png' class='respPic'></div></div>","5","1","Benjamin","6","Kept","0.2,0.8","12","0.2","trustrating_stim/white_mw046.bmp","5","5","3"
"html-keyboard-response","144","283297","0.0-19.0-2.2","63d7a9346e833b93500723d4","bdp_trlrn","Tue Mar 14 2023 20:46:45 GMT-0400 (Eastern Daylight Time)","577324","Untrustworthy,Trustworthy","","null","","","","decisionFB","","<div class='trialDiv'><img src='trustrating_stim/white_mw046.bmp'><br><font class='baseline'><strong>Benjamin</strong><p>Choose number of points to send.</font><div class='respPicDiv'><img src='img/responseButtonOffersNo0L5.png' class='respPic'></div></div>","null","1","Benjamin","6","Kept","0.2,0.8","12","0.2","trustrating_stim/white_mw046.bmp","5","0","3"
"html-keyboard-response","145","284299","0.0-19.0-3.2","63d7a9346e833b93500723d4","bdp_trlrn","Tue Mar 14 2023 20:46:45 GMT-0400 (Eastern Daylight Time)","577324","Untrustworthy,Trustworthy","","null","","","","feedback","","<div class='trialDiv'><img src='trustrating_stim/white_mw046.bmp'><br><font class='baseline'><strong>Benjamin</strong><p>Received: <strong>20</strong></font> &nbsp; &nbsp; &nbsp; &nbsp; &nbsp; &nbsp;<font class='negOutcome'>Shared back: <strong>0</strong></font></font><div class='respPicDiv'><img src='img/responseButtonOffersNo0_wht.png' class='respPic'></div></div>","null","1","Benjamin","6","Kept","0.2,0.8","12","0.2","trustrating_stim/white_mw046.bmp","5","0","3"
"html-keyboard-response","146","285493","0.0-19.0-1.3","63d7a9346e833b93500723d4","bdp_trlrn","Tue Mar 14 2023 20:46:45 GMT-0400 (Eastern Daylight Time)","577324","Untrustworthy,Trustworthy","","1194","","","","decision","","<div class='trialDiv'><img src='trustrating_stim/white_mw097.bmp'><br><font class='baseline'><strong>Sebastian</strong><p>Choose number of points to send.</font><div class='respPicDiv'><img src='img/responseButtonOffersNo0L.png' class='respPic'></div></div>","5","2","Sebastian","3","Shared","0.2,0.65","12","0.2","trustrating_stim/white_mw097.bmp","2","5","4"
"html-keyboard-response","147","285745","0.0-19.0-2.3","63d7a9346e833b93500723d4","bdp_trlrn","Tue Mar 14 2023 20:46:45 GMT-0400 (Eastern Daylight Time)","577324","Untrustworthy,Trustworthy","","null","","","","decisionFB","","<div class='trialDiv'><img src='trustrating_stim/white_mw097.bmp'><br><font class='baseline'><strong>Sebastian</strong><p>Choose number of points to send.</font><div class='respPicDiv'><img src='img/responseButtonOffersNo0L5.png' class='respPic'></div></div>","null","2","Sebastian","3","Shared","0.2,0.65","12","0.2","trustrating_stim/white_mw097.bmp","2","0","4"
"html-keyboard-response","148","286746","0.0-19.0-3.3","63d7a9346e833b93500723d4","bdp_trlrn","Tue Mar 14 2023 20:46:45 GMT-0400 (Eastern Daylight Time)","577324","Untrustworthy,Trustworthy","","null","","","","feedback","","<div class='trialDiv'><img src='trustrating_stim/white_mw097.bmp'><br><font class='baseline'><strong>Sebastian</strong><p>Received: <strong>20</strong></font> &nbsp; &nbsp; &nbsp; &nbsp; &nbsp; &nbsp;<font class='posOutcome'>Shared back: <strong>10</strong></font></font><div class='respPicDiv'><img src='img/responseButtonOffersNo0_wht.png' class='respPic'></div></div>","null","2","Sebastian","3","Shared","0.2,0.65","12","0.2","trustrating_stim/white_mw097.bmp","2","10","4"
"html-keyboard-response","149","287798","0.0-19.0-1.4","63d7a9346e833b93500723d4","bdp_trlrn","Tue Mar 14 2023 20:46:45 GMT-0400 (Eastern Daylight Time)","577324","Untrustworthy,Trustworthy","","1050","","","","decision","","<div class='trialDiv'><img src='trustrating_stim/white_mw046.bmp'><br><font class='baseline'><strong>Benjamin</strong><p>Choose number of points to send.</font><div class='respPicDiv'><img src='img/responseButtonOffersNo0L.png' class='respPic'></div></div>","5","2","Benjamin","6","Kept","0.2,0.8","12","0.2","trustrating_stim/white_mw046.bmp","5","15","5"
"html-keyboard-response","150","288049","0.0-19.0-2.4","63d7a9346e833b93500723d4","bdp_trlrn","Tue Mar 14 2023 20:46:45 GMT-0400 (Eastern Daylight Time)","577324","Untrustworthy,Trustworthy","","null","","","","decisionFB","","<div class='trialDiv'><img src='trustrating_stim/white_mw046.bmp'><br><font class='baseline'><strong>Benjamin</strong><p>Choose number of points to send.</font><div class='respPicDiv'><img src='img/responseButtonOffersNo0L5.png' class='respPic'></div></div>","null","2","Benjamin","6","Kept","0.2,0.8","12","0.2","trustrating_stim/white_mw046.bmp","5","10","5"
"html-keyboard-response","151","289050","0.0-19.0-3.4","63d7a9346e833b93500723d4","bdp_trlrn","Tue Mar 14 2023 20:46:45 GMT-0400 (Eastern Daylight Time)","577324","Untrustworthy,Trustworthy","","null","","","","feedback","","<div class='trialDiv'><img src='trustrating_stim/white_mw046.bmp'><br><font class='baseline'><strong>Benjamin</strong><p>Received: <strong>20</strong></font> &nbsp; &nbsp; &nbsp; &nbsp; &nbsp; &nbsp;<font class='negOutcome'>Shared back: <strong>0</strong></font></font><div class='respPicDiv'><img src='img/responseButtonOffersNo0_wht.png' class='respPic'></div></div>","null","2","Benjamin","6","Kept","0.2,0.8","12","0.2","trustrating_stim/white_mw046.bmp","5","10","5"
"html-keyboard-response","152","289589","0.0-19.0-1.5","63d7a9346e833b93500723d4","bdp_trlrn","Tue Mar 14 2023 20:46:45 GMT-0400 (Eastern Daylight Time)","577324","Untrustworthy,Trustworthy","","538","","","","decision","","<div class='trialDiv'><img src='trustrating_stim/white_00898_960530_fa_edt.bmp'><br><font class='baseline'><strong>Joseph</strong><p>Choose number of points to send.</font><div class='respPicDiv'><img src='img/responseButtonOffersNo0L.png' class='respPic'></div></div>","4","2","Joseph","10","Shared","0.65,0.2","9","0.65","trustrating_stim/white_00898_960530_fa_edt.bmp","7.5","15","6"
"html-keyboard-response","153","289840","0.0-19.0-2.5","63d7a9346e833b93500723d4","bdp_trlrn","Tue Mar 14 2023 20:46:45 GMT-0400 (Eastern Daylight Time)","577324","Untrustworthy,Trustworthy","","null","","","","decisionFB","","<div class='trialDiv'><img src='trustrating_stim/white_00898_960530_fa_edt.bmp'><br><font class='baseline'><strong>Joseph</strong><p>Choose number of points to send.</font><div class='respPicDiv'><img src='img/responseButtonOffersNo0L4.png' class='respPic'></div></div>","null","2","Joseph","10","Shared","0.65,0.2","9","0.65","trustrating_stim/white_00898_960530_fa_edt.bmp","7.5","11","6"
"html-keyboard-response","154","290842","0.0-19.0-3.5","63d7a9346e833b93500723d4","bdp_trlrn","Tue Mar 14 2023 20:46:45 GMT-0400 (Eastern Daylight Time)","577324","Untrustworthy,Trustworthy","","null","","","","feedback","","<div class='trialDiv'><img src='trustrating_stim/white_00898_960530_fa_edt.bmp'><br><font class='baseline'><strong>Joseph</strong><p>Received: <strong>16</strong></font> &nbsp; &nbsp; &nbsp; &nbsp; &nbsp; &nbsp;<font class='posOutcome'>Shared back: <strong>8</strong></font></font><div class='respPicDiv'><img src='img/responseButtonOffersNo0_wht.png' class='respPic'></div></div>","null","2","Joseph","10","Shared","0.65,0.2","9","0.65","trustrating_stim/white_00898_960530_fa_edt.bmp","7.5","19","6"
"html-keyboard-response","155","291765","0.0-19.0-1.6","63d7a9346e833b93500723d4","bdp_trlrn","Tue Mar 14 2023 20:46:45 GMT-0400 (Eastern Daylight Time)","577324","Untrustworthy,Trustworthy","","922","","","","decision","","<div class='trialDiv'><img src='trustrating_stim/white_mw097.bmp'><br><font class='baseline'><strong>Sebastian</strong><p>Choose number of points to send.</font><div class='respPicDiv'><img src='img/responseButtonOffersNo0L.png' class='respPic'></div></div>","5","3","Sebastian","3","Kept","0.2,0.65","12","0.2","trustrating_stim/white_mw097.bmp","2","24","7"
"html-keyboard-response","156","292019","0.0-19.0-2.6","63d7a9346e833b93500723d4","bdp_trlrn","Tue Mar 14 2023 20:46:45 GMT-0400 (Eastern Daylight Time)","577324","Untrustworthy,Trustworthy","","null","","","","decisionFB","","<div class='trialDiv'><img src='trustrating_stim/white_mw097.bmp'><br><font class='baseline'><strong>Sebastian</strong><p>Choose number of points to send.</font><div class='respPicDiv'><img src='img/responseButtonOffersNo0L5.png' class='respPic'></div></div>","null","3","Sebastian","3","Kept","0.2,0.65","12","0.2","trustrating_stim/white_mw097.bmp","2","19","7"
"html-keyboard-response","157","293021","0.0-19.0-3.6","63d7a9346e833b93500723d4","bdp_trlrn","Tue Mar 14 2023 20:46:45 GMT-0400 (Eastern Daylight Time)","577324","Untrustworthy,Trustworthy","","null","","","","feedback","","<div class='trialDiv'><img src='trustrating_stim/white_mw097.bmp'><br><font class='baseline'><strong>Sebastian</strong><p>Received: <strong>20</strong></font> &nbsp; &nbsp; &nbsp; &nbsp; &nbsp; &nbsp;<font class='negOutcome'>Shared back: <strong>0</strong></font></font><div class='respPicDiv'><img src='img/responseButtonOffersNo0_wht.png' class='respPic'></div></div>","null","3","Sebastian","3","Kept","0.2,0.65","12","0.2","trustrating_stim/white_mw097.bmp","2","19","7"
"html-keyboard-response","158","293493","0.0-19.0-1.7","63d7a9346e833b93500723d4","bdp_trlrn","Tue Mar 14 2023 20:46:45 GMT-0400 (Eastern Daylight Time)","577324","Untrustworthy,Trustworthy","","471","","","","decision","","<div class='trialDiv'><img src='trustrating_stim/white_mw046.bmp'><br><font class='baseline'><strong>Benjamin</strong><p>Choose number of points to send.</font><div class='respPicDiv'><img src='img/responseButtonOffersNo0L.png' class='respPic'></div></div>","4","3","Benjamin","6","Kept","0.2,0.8","12","0.2","trustrating_stim/white_mw046.bmp","5","24","8"
"html-keyboard-response","159","293744","0.0-19.0-2.7","63d7a9346e833b93500723d4","bdp_trlrn","Tue Mar 14 2023 20:46:45 GMT-0400 (Eastern Daylight Time)","577324","Untrustworthy,Trustworthy","","null","","","","decisionFB","","<div class='trialDiv'><img src='trustrating_stim/white_mw046.bmp'><br><font class='baseline'><strong>Benjamin</strong><p>Choose number of points to send.</font><div class='respPicDiv'><img src='img/responseButtonOffersNo0L4.png' class='respPic'></div></div>","null","3","Benjamin","6","Kept","0.2,0.8","12","0.2","trustrating_stim/white_mw046.bmp","5","20","8"
"html-keyboard-response","160","294746","0.0-19.0-3.7","63d7a9346e833b93500723d4","bdp_trlrn","Tue Mar 14 2023 20:46:45 GMT-0400 (Eastern Daylight Time)","577324","Untrustworthy,Trustworthy","","null","","","","feedback","","<div class='trialDiv'><img src='trustrating_stim/white_mw046.bmp'><br><font class='baseline'><strong>Benjamin</strong><p>Received: <strong>16</strong></font> &nbsp; &nbsp; &nbsp; &nbsp; &nbsp; &nbsp;<font class='negOutcome'>Shared back: <strong>0</strong></font></font><div class='respPicDiv'><img src='img/responseButtonOffersNo0_wht.png' class='respPic'></div></div>","null","3","Benjamin","6","Kept","0.2,0.8","12","0.2","trustrating_stim/white_mw046.bmp","5","20","8"
"html-keyboard-response","161","295869","0.0-19.0-1.8","63d7a9346e833b93500723d4","bdp_trlrn","Tue Mar 14 2023 20:46:45 GMT-0400 (Eastern Daylight Time)","577324","Untrustworthy,Trustworthy","","1122","","","","decision","","<div class='trialDiv'><img src='trustrating_stim/white_00898_960530_fa_edt.bmp'><br><font class='baseline'><strong>Joseph</strong><p>Choose number of points to send.</font><div class='respPicDiv'><img src='img/responseButtonOffersNo0L.png' class='respPic'></div></div>","4","3","Joseph","10","Shared","0.65,0.2","9","0.65","trustrating_stim/white_00898_960530_fa_edt.bmp","7.5","25","9"
"html-keyboard-response","162","296121","0.0-19.0-2.8","63d7a9346e833b93500723d4","bdp_trlrn","Tue Mar 14 2023 20:46:45 GMT-0400 (Eastern Daylight Time)","577324","Untrustworthy,Trustworthy","","null","","","","decisionFB","","<div class='trialDiv'><img src='trustrating_stim/white_00898_960530_fa_edt.bmp'><br><font class='baseline'><strong>Joseph</strong><p>Choose number of points to send.</font><div class='respPicDiv'><img src='img/responseButtonOffersNo0L4.png' class='respPic'></div></div>","null","3","Joseph","10","Shared","0.65,0.2","9","0.65","trustrating_stim/white_00898_960530_fa_edt.bmp","7.5","21","9"
"html-keyboard-response","163","297123","0.0-19.0-3.8","63d7a9346e833b93500723d4","bdp_trlrn","Tue Mar 14 2023 20:46:45 GMT-0400 (Eastern Daylight Time)","577324","Untrustworthy,Trustworthy","","null","","","","feedback","","<div class='trialDiv'><img src='trustrating_stim/white_00898_960530_fa_edt.bmp'><br><font class='baseline'><strong>Joseph</strong><p>Received: <strong>16</strong></font> &nbsp; &nbsp; &nbsp; &nbsp; &nbsp; &nbsp;<font class='posOutcome'>Shared back: <strong>8</strong></font></font><div class='respPicDiv'><img src='img/responseButtonOffersNo0_wht.png' class='respPic'></div></div>","null","3","Joseph","10","Shared","0.65,0.2","9","0.65","trustrating_stim/white_00898_960530_fa_edt.bmp","7.5","29","9"
"html-keyboard-response","164","298790","0.0-19.0-1.9","63d7a9346e833b93500723d4","bdp_trlrn","Tue Mar 14 2023 20:46:45 GMT-0400 (Eastern Daylight Time)","577324","Untrustworthy,Trustworthy","","1666","","","","decision","","<div class='trialDiv'><img src='trustrating_stim/white_mw046.bmp'><br><font class='baseline'><strong>Benjamin</strong><p>Choose number of points to send.</font><div class='respPicDiv'><img src='img/responseButtonOffersNo0L.png' class='respPic'></div></div>","1","4","Benjamin","6","Shared","0.2,0.8","12","0.2","trustrating_stim/white_mw046.bmp","5","34","10"
"html-keyboard-response","165","299041","0.0-19.0-2.9","63d7a9346e833b93500723d4","bdp_trlrn","Tue Mar 14 2023 20:46:45 GMT-0400 (Eastern Daylight Time)","577324","Untrustworthy,Trustworthy","","null","","","","decisionFB","","<div class='trialDiv'><img src='trustrating_stim/white_mw046.bmp'><br><font class='baseline'><strong>Benjamin</strong><p>Choose number of points to send.</font><div class='respPicDiv'><img src='img/responseButtonOffersNo0L1.png' class='respPic'></div></div>","null","4","Benjamin","6","Shared","0.2,0.8","12","0.2","trustrating_stim/white_mw046.bmp","5","33","10"
"html-keyboard-response","166","300048","0.0-19.0-3.9","63d7a9346e833b93500723d4","bdp_trlrn","Tue Mar 14 2023 20:46:45 GMT-0400 (Eastern Daylight Time)","577324","Untrustworthy,Trustworthy","","null","","","","feedback","","<div class='trialDiv'><img src='trustrating_stim/white_mw046.bmp'><br><font class='baseline'><strong>Benjamin</strong><p>Received: <strong>4</strong></font> &nbsp; &nbsp; &nbsp; &nbsp; &nbsp; &nbsp;<font class='posOutcome'>Shared back: <strong>2</strong></font></font><div class='respPicDiv'><img src='img/responseButtonOffersNo0_wht.png' class='respPic'></div></div>","null","4","Benjamin","6","Shared","0.2,0.8","12","0.2","trustrating_stim/white_mw046.bmp","5","35","10"
"html-keyboard-response","167","300685","0.0-19.0-1.10","63d7a9346e833b93500723d4","bdp_trlrn","Tue Mar 14 2023 20:46:45 GMT-0400 (Eastern Daylight Time)","577324","Untrustworthy,Trustworthy","","636","","","","decision","","<div class='trialDiv'><img src='trustrating_stim/white_mw097.bmp'><br><font class='baseline'><strong>Sebastian</strong><p>Choose number of points to send.</font><div class='respPicDiv'><img src='img/responseButtonOffersNo0L.png' class='respPic'></div></div>","1","4","Sebastian","3","Kept","0.2,0.65","12","0.2","trustrating_stim/white_mw097.bmp","2","40","11"
"html-keyboard-response","168","300937","0.0-19.0-2.10","63d7a9346e833b93500723d4","bdp_trlrn","Tue Mar 14 2023 20:46:45 GMT-0400 (Eastern Daylight Time)","577324","Untrustworthy,Trustworthy","","null","","","","decisionFB","","<div class='trialDiv'><img src='trustrating_stim/white_mw097.bmp'><br><font class='baseline'><strong>Sebastian</strong><p>Choose number of points to send.</font><div class='respPicDiv'><img src='img/responseButtonOffersNo0L1.png' class='respPic'></div></div>","null","4","Sebastian","3","Kept","0.2,0.65","12","0.2","trustrating_stim/white_mw097.bmp","2","39","11"
"html-keyboard-response","169","301947","0.0-19.0-3.10","63d7a9346e833b93500723d4","bdp_trlrn","Tue Mar 14 2023 20:46:45 GMT-0400 (Eastern Daylight Time)","577324","Untrustworthy,Trustworthy","","null","","","","feedback","","<div class='trialDiv'><img src='trustrating_stim/white_mw097.bmp'><br><font class='baseline'><strong>Sebastian</strong><p>Received: <strong>4</strong></font> &nbsp; &nbsp; &nbsp; &nbsp; &nbsp; &nbsp;<font class='negOutcome'>Shared back: <strong>0</strong></font></font><div class='respPicDiv'><img src='img/responseButtonOffersNo0_wht.png' class='respPic'></div></div>","null","4","Sebastian","3","Kept","0.2,0.65","12","0.2","trustrating_stim/white_mw097.bmp","2","39","11"
"html-keyboard-response","170","302629","0.0-19.0-1.11","63d7a9346e833b93500723d4","bdp_trlrn","Tue Mar 14 2023 20:46:45 GMT-0400 (Eastern Daylight Time)","577324","Untrustworthy,Trustworthy","","681","","","","decision","","<div class='trialDiv'><img src='trustrating_stim/white_00898_960530_fa_edt.bmp'><br><font class='baseline'><strong>Joseph</strong><p>Choose number of points to send.</font><div class='respPicDiv'><img src='img/responseButtonOffersNo0L.png' class='respPic'></div></div>","1","4","Joseph","10","Shared","0.65,0.2","9","0.65","trustrating_stim/white_00898_960530_fa_edt.bmp","7.5","44","12"
"html-keyboard-response","171","302880","0.0-19.0-2.11","63d7a9346e833b93500723d4","bdp_trlrn","Tue Mar 14 2023 20:46:45 GMT-0400 (Eastern Daylight Time)","577324","Untrustworthy,Trustworthy","","null","","","","decisionFB","","<div class='trialDiv'><img src='trustrating_stim/white_00898_960530_fa_edt.bmp'><br><font class='baseline'><strong>Joseph</strong><p>Choose number of points to send.</font><div class='respPicDiv'><img src='img/responseButtonOffersNo0L1.png' class='respPic'></div></div>","null","4","Joseph","10","Shared","0.65,0.2","9","0.65","trustrating_stim/white_00898_960530_fa_edt.bmp","7.5","43","12"
"html-keyboard-response","172","303881","0.0-19.0-3.11","63d7a9346e833b93500723d4","bdp_trlrn","Tue Mar 14 2023 20:46:45 GMT-0400 (Eastern Daylight Time)","577324","Untrustworthy,Trustworthy","","null","","","","feedback","","<div class='trialDiv'><img src='trustrating_stim/white_00898_960530_fa_edt.bmp'><br><font class='baseline'><strong>Joseph</strong><p>Received: <strong>4</strong></font> &nbsp; &nbsp; &nbsp; &nbsp; &nbsp; &nbsp;<font class='posOutcome'>Shared back: <strong>2</strong></font></font><div class='respPicDiv'><img src='img/responseButtonOffersNo0_wht.png' class='respPic'></div></div>","null","4","Joseph","10","Shared","0.65,0.2","9","0.65","trustrating_stim/white_00898_960530_fa_edt.bmp","7.5","45","12"
"html-keyboard-response","173","305613","0.0-19.0-1.12","63d7a9346e833b93500723d4","bdp_trlrn","Tue Mar 14 2023 20:46:45 GMT-0400 (Eastern Daylight Time)","577324","Untrustworthy,Trustworthy","","1731","","","","decision","","<div class='trialDiv'><img src='trustrating_stim/white_mw046.bmp'><br><font class='baseline'><strong>Benjamin</strong><p>Choose number of points to send.</font><div class='respPicDiv'><img src='img/responseButtonOffersNo0L.png' class='respPic'></div></div>","5","5","Benjamin","6","Kept","0.2,0.8","12","0.2","trustrating_stim/white_mw046.bmp","5","50","13"
"html-keyboard-response","174","305864","0.0-19.0-2.12","63d7a9346e833b93500723d4","bdp_trlrn","Tue Mar 14 2023 20:46:45 GMT-0400 (Eastern Daylight Time)","577324","Untrustworthy,Trustworthy","","null","","","","decisionFB","","<div class='trialDiv'><img src='trustrating_stim/white_mw046.bmp'><br><font class='baseline'><strong>Benjamin</strong><p>Choose number of points to send.</font><div class='respPicDiv'><img src='img/responseButtonOffersNo0L5.png' class='respPic'></div></div>","null","5","Benjamin","6","Kept","0.2,0.8","12","0.2","trustrating_stim/white_mw046.bmp","5","45","13"
"html-keyboard-response","175","306865","0.0-19.0-3.12","63d7a9346e833b93500723d4","bdp_trlrn","Tue Mar 14 2023 20:46:45 GMT-0400 (Eastern Daylight Time)","577324","Untrustworthy,Trustworthy","","null","","","","feedback","","<div class='trialDiv'><img src='trustrating_stim/white_mw046.bmp'><br><font class='baseline'><strong>Benjamin</strong><p>Received: <strong>20</strong></font> &nbsp; &nbsp; &nbsp; &nbsp; &nbsp; &nbsp;<font class='negOutcome'>Shared back: <strong>0</strong></font></font><div class='respPicDiv'><img src='img/responseButtonOffersNo0_wht.png' class='respPic'></div></div>","null","5","Benjamin","6","Kept","0.2,0.8","12","0.2","trustrating_stim/white_mw046.bmp","5","45","13"
"html-keyboard-response","176","307357","0.0-19.0-1.13","63d7a9346e833b93500723d4","bdp_trlrn","Tue Mar 14 2023 20:46:45 GMT-0400 (Eastern Daylight Time)","577324","Untrustworthy,Trustworthy","","491","","","","decision","","<div class='trialDiv'><img src='trustrating_stim/white_mw097.bmp'><br><font class='baseline'><strong>Sebastian</strong><p>Choose number of points to send.</font><div class='respPicDiv'><img src='img/responseButtonOffersNo0L.png' class='respPic'></div></div>","5","5","Sebastian","3","Kept","0.2,0.65","12","0.2","trustrating_stim/white_mw097.bmp","2","50","14"
"html-keyboard-response","177","307608","0.0-19.0-2.13","63d7a9346e833b93500723d4","bdp_trlrn","Tue Mar 14 2023 20:46:45 GMT-0400 (Eastern Daylight Time)","577324","Untrustworthy,Trustworthy","","null","","","","decisionFB","","<div class='trialDiv'><img src='trustrating_stim/white_mw097.bmp'><br><font class='baseline'><strong>Sebastian</strong><p>Choose number of points to send.</font><div class='respPicDiv'><img src='img/responseButtonOffersNo0L5.png' class='respPic'></div></div>","null","5","Sebastian","3","Kept","0.2,0.65","12","0.2","trustrating_stim/white_mw097.bmp","2","45","14"
"html-keyboard-response","178","308610","0.0-19.0-3.13","63d7a9346e833b93500723d4","bdp_trlrn","Tue Mar 14 2023 20:46:45 GMT-0400 (Eastern Daylight Time)","577324","Untrustworthy,Trustworthy","","null","","","","feedback","","<div class='trialDiv'><img src='trustrating_stim/white_mw097.bmp'><br><font class='baseline'><strong>Sebastian</strong><p>Received: <strong>20</strong></font> &nbsp; &nbsp; &nbsp; &nbsp; &nbsp; &nbsp;<font class='negOutcome'>Shared back: <strong>0</strong></font></font><div class='respPicDiv'><img src='img/responseButtonOffersNo0_wht.png' class='respPic'></div></div>","null","5","Sebastian","3","Kept","0.2,0.65","12","0.2","trustrating_stim/white_mw097.bmp","2","45","14"
"html-keyboard-response","179","309518","0.0-19.0-1.14","63d7a9346e833b93500723d4","bdp_trlrn","Tue Mar 14 2023 20:46:45 GMT-0400 (Eastern Daylight Time)","577324","Untrustworthy,Trustworthy","","908","","","","decision","","<div class='trialDiv'><img src='trustrating_stim/white_00898_960530_fa_edt.bmp'><br><font class='baseline'><strong>Joseph</strong><p>Choose number of points to send.</font><div class='respPicDiv'><img src='img/responseButtonOffersNo0L.png' class='respPic'></div></div>","1","5","Joseph","10","Shared","0.65,0.2","9","0.65","trustrating_stim/white_00898_960530_fa_edt.bmp","7.5","50","15"
"html-keyboard-response","180","309770","0.0-19.0-2.14","63d7a9346e833b93500723d4","bdp_trlrn","Tue Mar 14 2023 20:46:45 GMT-0400 (Eastern Daylight Time)","577324","Untrustworthy,Trustworthy","","null","","","","decisionFB","","<div class='trialDiv'><img src='trustrating_stim/white_00898_960530_fa_edt.bmp'><br><font class='baseline'><strong>Joseph</strong><p>Choose number of points to send.</font><div class='respPicDiv'><img src='img/responseButtonOffersNo0L1.png' class='respPic'></div></div>","null","5","Joseph","10","Shared","0.65,0.2","9","0.65","trustrating_stim/white_00898_960530_fa_edt.bmp","7.5","49","15"
"html-keyboard-response","181","310772","0.0-19.0-3.14","63d7a9346e833b93500723d4","bdp_trlrn","Tue Mar 14 2023 20:46:45 GMT-0400 (Eastern Daylight Time)","577324","Untrustworthy,Trustworthy","","null","","","","feedback","","<div class='trialDiv'><img src='trustrating_stim/white_00898_960530_fa_edt.bmp'><br><font class='baseline'><strong>Joseph</strong><p>Received: <strong>4</strong></font> &nbsp; &nbsp; &nbsp; &nbsp; &nbsp; &nbsp;<font class='posOutcome'>Shared back: <strong>2</strong></font></font><div class='respPicDiv'><img src='img/responseButtonOffersNo0_wht.png' class='respPic'></div></div>","null","5","Joseph","10","Shared","0.65,0.2","9","0.65","trustrating_stim/white_00898_960530_fa_edt.bmp","7.5","51","15"
"html-keyboard-response","182","311710","0.0-19.0-1.15","63d7a9346e833b93500723d4","bdp_trlrn","Tue Mar 14 2023 20:46:45 GMT-0400 (Eastern Daylight Time)","577324","Untrustworthy,Trustworthy","","938","","","","decision","","<div class='trialDiv'><img src='trustrating_stim/white_mw097.bmp'><br><font class='baseline'><strong>Sebastian</strong><p>Choose number of points to send.</font><div class='respPicDiv'><img src='img/responseButtonOffersNo0L.png' class='respPic'></div></div>","1","6","Sebastian","3","Kept","0.2,0.65","12","0.2","trustrating_stim/white_mw097.bmp","2","56","16"
"html-keyboard-response","183","311961","0.0-19.0-2.15","63d7a9346e833b93500723d4","bdp_trlrn","Tue Mar 14 2023 20:46:45 GMT-0400 (Eastern Daylight Time)","577324","Untrustworthy,Trustworthy","","null","","","","decisionFB","","<div class='trialDiv'><img src='trustrating_stim/white_mw097.bmp'><br><font class='baseline'><strong>Sebastian</strong><p>Choose number of points to send.</font><div class='respPicDiv'><img src='img/responseButtonOffersNo0L1.png' class='respPic'></div></div>","null","6","Sebastian","3","Kept","0.2,0.65","12","0.2","trustrating_stim/white_mw097.bmp","2","55","16"
"html-keyboard-response","184","312963","0.0-19.0-3.15","63d7a9346e833b93500723d4","bdp_trlrn","Tue Mar 14 2023 20:46:45 GMT-0400 (Eastern Daylight Time)","577324","Untrustworthy,Trustworthy","","null","","","","feedback","","<div class='trialDiv'><img src='trustrating_stim/white_mw097.bmp'><br><font class='baseline'><strong>Sebastian</strong><p>Received: <strong>4</strong></font> &nbsp; &nbsp; &nbsp; &nbsp; &nbsp; &nbsp;<font class='negOutcome'>Shared back: <strong>0</strong></font></font><div class='respPicDiv'><img src='img/responseButtonOffersNo0_wht.png' class='respPic'></div></div>","null","6","Sebastian","3","Kept","0.2,0.65","12","0.2","trustrating_stim/white_mw097.bmp","2","55","16"
"html-keyboard-response","185","314510","0.0-19.0-1.16","63d7a9346e833b93500723d4","bdp_trlrn","Tue Mar 14 2023 20:46:45 GMT-0400 (Eastern Daylight Time)","577324","Untrustworthy,Trustworthy","","1547","","","","decision","","<div class='trialDiv'><img src='trustrating_stim/white_mw046.bmp'><br><font class='baseline'><strong>Benjamin</strong><p>Choose number of points to send.</font><div class='respPicDiv'><img src='img/responseButtonOffersNo0L.png' class='respPic'></div></div>","2","6","Benjamin","6","Shared","0.2,0.8","12","0.2","trustrating_stim/white_mw046.bmp","5","60","17"
"html-keyboard-response","186","314762","0.0-19.0-2.16","63d7a9346e833b93500723d4","bdp_trlrn","Tue Mar 14 2023 20:46:45 GMT-0400 (Eastern Daylight Time)","577324","Untrustworthy,Trustworthy","","null","","","","decisionFB","","<div class='trialDiv'><img src='trustrating_stim/white_mw046.bmp'><br><font class='baseline'><strong>Benjamin</strong><p>Choose number of points to send.</font><div class='respPicDiv'><img src='img/responseButtonOffersNo0L2.png' class='respPic'></div></div>","null","6","Benjamin","6","Shared","0.2,0.8","12","0.2","trustrating_stim/white_mw046.bmp","5","58","17"
"html-keyboard-response","187","315763","0.0-19.0-3.16","63d7a9346e833b93500723d4","bdp_trlrn","Tue Mar 14 2023 20:46:45 GMT-0400 (Eastern Daylight Time)","577324","Untrustworthy,Trustworthy","","null","","","","feedback","","<div class='trialDiv'><img src='trustrating_stim/white_mw046.bmp'><br><font class='baseline'><strong>Benjamin</strong><p>Received: <strong>8</strong></font> &nbsp; &nbsp; &nbsp; &nbsp; &nbsp; &nbsp;<font class='posOutcome'>Shared back: <strong>4</strong></font></font><div class='respPicDiv'><img src='img/responseButtonOffersNo0_wht.png' class='respPic'></div></div>","null","6","Benjamin","6","Shared","0.2,0.8","12","0.2","trustrating_stim/white_mw046.bmp","5","62","17"
"html-keyboard-response","188","316206","0.0-19.0-1.17","63d7a9346e833b93500723d4","bdp_trlrn","Tue Mar 14 2023 20:46:45 GMT-0400 (Eastern Daylight Time)","577324","Untrustworthy,Trustworthy","","443","","","","decision","","<div class='trialDiv'><img src='trustrating_stim/white_00898_960530_fa_edt.bmp'><br><font class='baseline'><strong>Joseph</strong><p>Choose number of points to send.</font><div class='respPicDiv'><img src='img/responseButtonOffersNo0L.png' class='respPic'></div></div>","5","6","Joseph","10","Shared","0.65,0.2","9","0.65","trustrating_stim/white_00898_960530_fa_edt.bmp","7.5","67","18"
"html-keyboard-response","189","316457","0.0-19.0-2.17","63d7a9346e833b93500723d4","bdp_trlrn","Tue Mar 14 2023 20:46:45 GMT-0400 (Eastern Daylight Time)","577324","Untrustworthy,Trustworthy","","null","","","","decisionFB","","<div class='trialDiv'><img src='trustrating_stim/white_00898_960530_fa_edt.bmp'><br><font class='baseline'><strong>Joseph</strong><p>Choose number of points to send.</font><div class='respPicDiv'><img src='img/responseButtonOffersNo0L5.png' class='respPic'></div></div>","null","6","Joseph","10","Shared","0.65,0.2","9","0.65","trustrating_stim/white_00898_960530_fa_edt.bmp","7.5","62","18"
"html-keyboard-response","190","317458","0.0-19.0-3.17","63d7a9346e833b93500723d4","bdp_trlrn","Tue Mar 14 2023 20:46:45 GMT-0400 (Eastern Daylight Time)","577324","Untrustworthy,Trustworthy","","null","","","","feedback","","<div class='trialDiv'><img src='trustrating_stim/white_00898_960530_fa_edt.bmp'><br><font class='baseline'><strong>Joseph</strong><p>Received: <strong>20</strong></font> &nbsp; &nbsp; &nbsp; &nbsp; &nbsp; &nbsp;<font class='posOutcome'>Shared back: <strong>10</strong></font></font><div class='respPicDiv'><img src='img/responseButtonOffersNo0_wht.png' class='respPic'></div></div>","null","6","Joseph","10","Shared","0.65,0.2","9","0.65","trustrating_stim/white_00898_960530_fa_edt.bmp","7.5","72","18"
"html-keyboard-response","191","318590","0.0-19.0-1.18","63d7a9346e833b93500723d4","bdp_trlrn","Tue Mar 14 2023 20:46:45 GMT-0400 (Eastern Daylight Time)","577324","Untrustworthy,Trustworthy","","1131","","","","decision","","<div class='trialDiv'><img src='trustrating_stim/white_mw097.bmp'><br><font class='baseline'><strong>Sebastian</strong><p>Choose number of points to send.</font><div class='respPicDiv'><img src='img/responseButtonOffersNo0L.png' class='respPic'></div></div>","1","7","Sebastian","3","Kept","0.2,0.65","12","0.2","trustrating_stim/white_mw097.bmp","2","77","19"
"html-keyboard-response","192","318841","0.0-19.0-2.18","63d7a9346e833b93500723d4","bdp_trlrn","Tue Mar 14 2023 20:46:45 GMT-0400 (Eastern Daylight Time)","577324","Untrustworthy,Trustworthy","","null","","","","decisionFB","","<div class='trialDiv'><img src='trustrating_stim/white_mw097.bmp'><br><font class='baseline'><strong>Sebastian</strong><p>Choose number of points to send.</font><div class='respPicDiv'><img src='img/responseButtonOffersNo0L1.png' class='respPic'></div></div>","null","7","Sebastian","3","Kept","0.2,0.65","12","0.2","trustrating_stim/white_mw097.bmp","2","76","19"
"html-keyboard-response","193","319843","0.0-19.0-3.18","63d7a9346e833b93500723d4","bdp_trlrn","Tue Mar 14 2023 20:46:45 GMT-0400 (Eastern Daylight Time)","577324","Untrustworthy,Trustworthy","","null","","","","feedback","","<div class='trialDiv'><img src='trustrating_stim/white_mw097.bmp'><br><font class='baseline'><strong>Sebastian</strong><p>Received: <strong>4</strong></font> &nbsp; &nbsp; &nbsp; &nbsp; &nbsp; &nbsp;<font class='negOutcome'>Shared back: <strong>0</strong></font></font><div class='respPicDiv'><img src='img/responseButtonOffersNo0_wht.png' class='respPic'></div></div>","null","7","Sebastian","3","Kept","0.2,0.65","12","0.2","trustrating_stim/white_mw097.bmp","2","76","19"
"html-keyboard-response","194","321022","0.0-19.0-1.19","63d7a9346e833b93500723d4","bdp_trlrn","Tue Mar 14 2023 20:46:45 GMT-0400 (Eastern Daylight Time)","577324","Untrustworthy,Trustworthy","","1178","","","","decision","","<div class='trialDiv'><img src='trustrating_stim/white_mw046.bmp'><br><font class='baseline'><strong>Benjamin</strong><p>Choose number of points to send.</font><div class='respPicDiv'><img src='img/responseButtonOffersNo0L.png' class='respPic'></div></div>","2","7","Benjamin","6","Kept","0.2,0.8","12","0.2","trustrating_stim/white_mw046.bmp","5","81","20"
"html-keyboard-response","195","321273","0.0-19.0-2.19","63d7a9346e833b93500723d4","bdp_trlrn","Tue Mar 14 2023 20:46:45 GMT-0400 (Eastern Daylight Time)","577324","Untrustworthy,Trustworthy","","null","","","","decisionFB","","<div class='trialDiv'><img src='trustrating_stim/white_mw046.bmp'><br><font class='baseline'><strong>Benjamin</strong><p>Choose number of points to send.</font><div class='respPicDiv'><img src='img/responseButtonOffersNo0L2.png' class='respPic'></div></div>","null","7","Benjamin","6","Kept","0.2,0.8","12","0.2","trustrating_stim/white_mw046.bmp","5","79","20"
"html-keyboard-response","196","322275","0.0-19.0-3.19","63d7a9346e833b93500723d4","bdp_trlrn","Tue Mar 14 2023 20:46:45 GMT-0400 (Eastern Daylight Time)","577324","Untrustworthy,Trustworthy","","null","","","","feedback","","<div class='trialDiv'><img src='trustrating_stim/white_mw046.bmp'><br><font class='baseline'><strong>Benjamin</strong><p>Received: <strong>8</strong></font> &nbsp; &nbsp; &nbsp; &nbsp; &nbsp; &nbsp;<font class='negOutcome'>Shared back: <strong>0</strong></font></font><div class='respPicDiv'><img src='img/responseButtonOffersNo0_wht.png' class='respPic'></div></div>","null","7","Benjamin","6","Kept","0.2,0.8","12","0.2","trustrating_stim/white_mw046.bmp","5","79","20"
"html-keyboard-response","197","322926","0.0-19.0-1.20","63d7a9346e833b93500723d4","bdp_trlrn","Tue Mar 14 2023 20:46:45 GMT-0400 (Eastern Daylight Time)","577324","Untrustworthy,Trustworthy","","651","","","","decision","","<div class='trialDiv'><img src='trustrating_stim/white_00898_960530_fa_edt.bmp'><br><font class='baseline'><strong>Joseph</strong><p>Choose number of points to send.</font><div class='respPicDiv'><img src='img/responseButtonOffersNo0L.png' class='respPic'></div></div>","5","7","Joseph","10","Shared","0.65,0.2","9","0.65","trustrating_stim/white_00898_960530_fa_edt.bmp","7.5","84","21"
"html-keyboard-response","198","323178","0.0-19.0-2.20","63d7a9346e833b93500723d4","bdp_trlrn","Tue Mar 14 2023 20:46:45 GMT-0400 (Eastern Daylight Time)","577324","Untrustworthy,Trustworthy","","null","","","","decisionFB","","<div class='trialDiv'><img src='trustrating_stim/white_00898_960530_fa_edt.bmp'><br><font class='baseline'><strong>Joseph</strong><p>Choose number of points to send.</font><div class='respPicDiv'><img src='img/responseButtonOffersNo0L5.png' class='respPic'></div></div>","null","7","Joseph","10","Shared","0.65,0.2","9","0.65","trustrating_stim/white_00898_960530_fa_edt.bmp","7.5","79","21"
"html-keyboard-response","199","324180","0.0-19.0-3.20","63d7a9346e833b93500723d4","bdp_trlrn","Tue Mar 14 2023 20:46:45 GMT-0400 (Eastern Daylight Time)","577324","Untrustworthy,Trustworthy","","null","","","","feedback","","<div class='trialDiv'><img src='trustrating_stim/white_00898_960530_fa_edt.bmp'><br><font class='baseline'><strong>Joseph</strong><p>Received: <strong>20</strong></font> &nbsp; &nbsp; &nbsp; &nbsp; &nbsp; &nbsp;<font class='posOutcome'>Shared back: <strong>10</strong></font></font><div class='respPicDiv'><img src='img/responseButtonOffersNo0_wht.png' class='respPic'></div></div>","null","7","Joseph","10","Shared","0.65,0.2","9","0.65","trustrating_stim/white_00898_960530_fa_edt.bmp","7.5","89","21"
"html-keyboard-response","200","325694","0.0-19.0-1.21","63d7a9346e833b93500723d4","bdp_trlrn","Tue Mar 14 2023 20:46:45 GMT-0400 (Eastern Daylight Time)","577324","Untrustworthy,Trustworthy","","1512","","","","decision","","<div class='trialDiv'><img src='trustrating_stim/white_mw046.bmp'><br><font class='baseline'><strong>Benjamin</strong><p>Choose number of points to send.</font><div class='respPicDiv'><img src='img/responseButtonOffersNo0L.png' class='respPic'></div></div>","1","8","Benjamin","6","Kept","0.2,0.8","12","0.2","trustrating_stim/white_mw046.bmp","5","94","22"
"html-keyboard-response","201","325946","0.0-19.0-2.21","63d7a9346e833b93500723d4","bdp_trlrn","Tue Mar 14 2023 20:46:45 GMT-0400 (Eastern Daylight Time)","577324","Untrustworthy,Trustworthy","","null","","","","decisionFB","","<div class='trialDiv'><img src='trustrating_stim/white_mw046.bmp'><br><font class='baseline'><strong>Benjamin</strong><p>Choose number of points to send.</font><div class='respPicDiv'><img src='img/responseButtonOffersNo0L1.png' class='respPic'></div></div>","null","8","Benjamin","6","Kept","0.2,0.8","12","0.2","trustrating_stim/white_mw046.bmp","5","93","22"
"html-keyboard-response","202","326948","0.0-19.0-3.21","63d7a9346e833b93500723d4","bdp_trlrn","Tue Mar 14 2023 20:46:45 GMT-0400 (Eastern Daylight Time)","577324","Untrustworthy,Trustworthy","","null","","","","feedback","","<div class='trialDiv'><img src='trustrating_stim/white_mw046.bmp'><br><font class='baseline'><strong>Benjamin</strong><p>Received: <strong>4</strong></font> &nbsp; &nbsp; &nbsp; &nbsp; &nbsp; &nbsp;<font class='negOutcome'>Shared back: <strong>0</strong></font></font><div class='respPicDiv'><img src='img/responseButtonOffersNo0_wht.png' class='respPic'></div></div>","null","8","Benjamin","6","Kept","0.2,0.8","12","0.2","trustrating_stim/white_mw046.bmp","5","93","22"
"html-keyboard-response","203","327510","0.0-19.0-1.22","63d7a9346e833b93500723d4","bdp_trlrn","Tue Mar 14 2023 20:46:45 GMT-0400 (Eastern Daylight Time)","577324","Untrustworthy,Trustworthy","","562","","","","decision","","<div class='trialDiv'><img src='trustrating_stim/white_mw097.bmp'><br><font class='baseline'><strong>Sebastian</strong><p>Choose number of points to send.</font><div class='respPicDiv'><img src='img/responseButtonOffersNo0L.png' class='respPic'></div></div>","1","8","Sebastian","3","Kept","0.2,0.65","12","0.2","trustrating_stim/white_mw097.bmp","2","98","23"
"html-keyboard-response","204","327761","0.0-19.0-2.22","63d7a9346e833b93500723d4","bdp_trlrn","Tue Mar 14 2023 20:46:45 GMT-0400 (Eastern Daylight Time)","577324","Untrustworthy,Trustworthy","","null","","","","decisionFB","","<div class='trialDiv'><img src='trustrating_stim/white_mw097.bmp'><br><font class='baseline'><strong>Sebastian</strong><p>Choose number of points to send.</font><div class='respPicDiv'><img src='img/responseButtonOffersNo0L1.png' class='respPic'></div></div>","null","8","Sebastian","3","Kept","0.2,0.65","12","0.2","trustrating_stim/white_mw097.bmp","2","97","23"
"html-keyboard-response","205","328762","0.0-19.0-3.22","63d7a9346e833b93500723d4","bdp_trlrn","Tue Mar 14 2023 20:46:45 GMT-0400 (Eastern Daylight Time)","577324","Untrustworthy,Trustworthy","","null","","","","feedback","","<div class='trialDiv'><img src='trustrating_stim/white_mw097.bmp'><br><font class='baseline'><strong>Sebastian</strong><p>Received: <strong>4</strong></font> &nbsp; &nbsp; &nbsp; &nbsp; &nbsp; &nbsp;<font class='negOutcome'>Shared back: <strong>0</strong></font></font><div class='respPicDiv'><img src='img/responseButtonOffersNo0_wht.png' class='respPic'></div></div>","null","8","Sebastian","3","Kept","0.2,0.65","12","0.2","trustrating_stim/white_mw097.bmp","2","97","23"
"html-keyboard-response","206","329270","0.0-19.0-1.23","63d7a9346e833b93500723d4","bdp_trlrn","Tue Mar 14 2023 20:46:45 GMT-0400 (Eastern Daylight Time)","577324","Untrustworthy,Trustworthy","","506","","","","decision","","<div class='trialDiv'><img src='trustrating_stim/white_00898_960530_fa_edt.bmp'><br><font class='baseline'><strong>Joseph</strong><p>Choose number of points to send.</font><div class='respPicDiv'><img src='img/responseButtonOffersNo0L.png' class='respPic'></div></div>","5","8","Joseph","10","Shared","0.65,0.2","9","0.65","trustrating_stim/white_00898_960530_fa_edt.bmp","7.5","102","24"
"html-keyboard-response","207","329521","0.0-19.0-2.23","63d7a9346e833b93500723d4","bdp_trlrn","Tue Mar 14 2023 20:46:45 GMT-0400 (Eastern Daylight Time)","577324","Untrustworthy,Trustworthy","","null","","","","decisionFB","","<div class='trialDiv'><img src='trustrating_stim/white_00898_960530_fa_edt.bmp'><br><font class='baseline'><strong>Joseph</strong><p>Choose number of points to send.</font><div class='respPicDiv'><img src='img/responseButtonOffersNo0L5.png' class='respPic'></div></div>","null","8","Joseph","10","Shared","0.65,0.2","9","0.65","trustrating_stim/white_00898_960530_fa_edt.bmp","7.5","97","24"
"html-keyboard-response","208","330522","0.0-19.0-3.23","63d7a9346e833b93500723d4","bdp_trlrn","Tue Mar 14 2023 20:46:45 GMT-0400 (Eastern Daylight Time)","577324","Untrustworthy,Trustworthy","","null","","","","feedback","","<div class='trialDiv'><img src='trustrating_stim/white_00898_960530_fa_edt.bmp'><br><font class='baseline'><strong>Joseph</strong><p>Received: <strong>20</strong></font> &nbsp; &nbsp; &nbsp; &nbsp; &nbsp; &nbsp;<font class='posOutcome'>Shared back: <strong>10</strong></font></font><div class='respPicDiv'><img src='img/responseButtonOffersNo0_wht.png' class='respPic'></div></div>","null","8","Joseph","10","Shared","0.65,0.2","9","0.65","trustrating_stim/white_00898_960530_fa_edt.bmp","7.5","107","24"
"html-keyboard-response","209","332014","0.0-19.0-1.24","63d7a9346e833b93500723d4","bdp_trlrn","Tue Mar 14 2023 20:46:45 GMT-0400 (Eastern Daylight Time)","577324","Untrustworthy,Trustworthy","","1492","","","","decision","","<div class='trialDiv'><img src='trustrating_stim/white_mw046.bmp'><br><font class='baseline'><strong>Benjamin</strong><p>Choose number of points to send.</font><div class='respPicDiv'><img src='img/responseButtonOffersNo0L.png' class='respPic'></div></div>","1","9","Benjamin","6","Kept","0.2,0.8","12","0.2","trustrating_stim/white_mw046.bmp","5","112","25"
"html-keyboard-response","210","332265","0.0-19.0-2.24","63d7a9346e833b93500723d4","bdp_trlrn","Tue Mar 14 2023 20:46:45 GMT-0400 (Eastern Daylight Time)","577324","Untrustworthy,Trustworthy","","null","","","","decisionFB","","<div class='trialDiv'><img src='trustrating_stim/white_mw046.bmp'><br><font class='baseline'><strong>Benjamin</strong><p>Choose number of points to send.</font><div class='respPicDiv'><img src='img/responseButtonOffersNo0L1.png' class='respPic'></div></div>","null","9","Benjamin","6","Kept","0.2,0.8","12","0.2","trustrating_stim/white_mw046.bmp","5","111","25"
"html-keyboard-response","211","333266","0.0-19.0-3.24","63d7a9346e833b93500723d4","bdp_trlrn","Tue Mar 14 2023 20:46:45 GMT-0400 (Eastern Daylight Time)","577324","Untrustworthy,Trustworthy","","null","","","","feedback","","<div class='trialDiv'><img src='trustrating_stim/white_mw046.bmp'><br><font class='baseline'><strong>Benjamin</strong><p>Received: <strong>4</strong></font> &nbsp; &nbsp; &nbsp; &nbsp; &nbsp; &nbsp;<font class='negOutcome'>Shared back: <strong>0</strong></font></font><div class='respPicDiv'><img src='img/responseButtonOffersNo0_wht.png' class='respPic'></div></div>","null","9","Benjamin","6","Kept","0.2,0.8","12","0.2","trustrating_stim/white_mw046.bmp","5","111","25"
"html-keyboard-response","212","333590","0.0-19.0-1.25","63d7a9346e833b93500723d4","bdp_trlrn","Tue Mar 14 2023 20:46:45 GMT-0400 (Eastern Daylight Time)","577324","Untrustworthy,Trustworthy","","323","","","","decision","","<div class='trialDiv'><img src='trustrating_stim/white_00898_960530_fa_edt.bmp'><br><font class='baseline'><strong>Joseph</strong><p>Choose number of points to send.</font><div class='respPicDiv'><img src='img/responseButtonOffersNo0L.png' class='respPic'></div></div>","1","9","Joseph","10","Kept","0.65,0.2","9","0.65","trustrating_stim/white_00898_960530_fa_edt.bmp","7.5","116","26"
"html-keyboard-response","213","333842","0.0-19.0-2.25","63d7a9346e833b93500723d4","bdp_trlrn","Tue Mar 14 2023 20:46:45 GMT-0400 (Eastern Daylight Time)","577324","Untrustworthy,Trustworthy","","null","","","","decisionFB","","<div class='trialDiv'><img src='trustrating_stim/white_00898_960530_fa_edt.bmp'><br><font class='baseline'><strong>Joseph</strong><p>Choose number of points to send.</font><div class='respPicDiv'><img src='img/responseButtonOffersNo0L1.png' class='respPic'></div></div>","null","9","Joseph","10","Kept","0.65,0.2","9","0.65","trustrating_stim/white_00898_960530_fa_edt.bmp","7.5","115","26"
"html-keyboard-response","214","334843","0.0-19.0-3.25","63d7a9346e833b93500723d4","bdp_trlrn","Tue Mar 14 2023 20:46:45 GMT-0400 (Eastern Daylight Time)","577324","Untrustworthy,Trustworthy","","null","","","","feedback","","<div class='trialDiv'><img src='trustrating_stim/white_00898_960530_fa_edt.bmp'><br><font class='baseline'><strong>Joseph</strong><p>Received: <strong>4</strong></font> &nbsp; &nbsp; &nbsp; &nbsp; &nbsp; &nbsp;<font class='negOutcome'>Shared back: <strong>0</strong></font></font><div class='respPicDiv'><img src='img/responseButtonOffersNo0_wht.png' class='respPic'></div></div>","null","9","Joseph","10","Kept","0.65,0.2","9","0.65","trustrating_stim/white_00898_960530_fa_edt.bmp","7.5","115","26"
"html-keyboard-response","215","335541","0.0-19.0-1.26","63d7a9346e833b93500723d4","bdp_trlrn","Tue Mar 14 2023 20:46:45 GMT-0400 (Eastern Daylight Time)","577324","Untrustworthy,Trustworthy","","696","","","","decision","","<div class='trialDiv'><img src='trustrating_stim/white_mw097.bmp'><br><font class='baseline'><strong>Sebastian</strong><p>Choose number of points to send.</font><div class='respPicDiv'><img src='img/responseButtonOffersNo0L.png' class='respPic'></div></div>","1","9","Sebastian","3","Kept","0.2,0.65","12","0.2","trustrating_stim/white_mw097.bmp","2","120","27"
"html-keyboard-response","216","335793","0.0-19.0-2.26","63d7a9346e833b93500723d4","bdp_trlrn","Tue Mar 14 2023 20:46:45 GMT-0400 (Eastern Daylight Time)","577324","Untrustworthy,Trustworthy","","null","","","","decisionFB","","<div class='trialDiv'><img src='trustrating_stim/white_mw097.bmp'><br><font class='baseline'><strong>Sebastian</strong><p>Choose number of points to send.</font><div class='respPicDiv'><img src='img/responseButtonOffersNo0L1.png' class='respPic'></div></div>","null","9","Sebastian","3","Kept","0.2,0.65","12","0.2","trustrating_stim/white_mw097.bmp","2","119","27"
"html-keyboard-response","217","336795","0.0-19.0-3.26","63d7a9346e833b93500723d4","bdp_trlrn","Tue Mar 14 2023 20:46:45 GMT-0400 (Eastern Daylight Time)","577324","Untrustworthy,Trustworthy","","null","","","","feedback","","<div class='trialDiv'><img src='trustrating_stim/white_mw097.bmp'><br><font class='baseline'><strong>Sebastian</strong><p>Received: <strong>4</strong></font> &nbsp; &nbsp; &nbsp; &nbsp; &nbsp; &nbsp;<font class='negOutcome'>Shared back: <strong>0</strong></font></font><div class='respPicDiv'><img src='img/responseButtonOffersNo0_wht.png' class='respPic'></div></div>","null","9","Sebastian","3","Kept","0.2,0.65","12","0.2","trustrating_stim/white_mw097.bmp","2","119","27"
"html-keyboard-response","218","338142","0.0-19.0-1.27","63d7a9346e833b93500723d4","bdp_trlrn","Tue Mar 14 2023 20:46:45 GMT-0400 (Eastern Daylight Time)","577324","Untrustworthy,Trustworthy","","1347","","","","decision","","<div class='trialDiv'><img src='trustrating_stim/white_00898_960530_fa_edt.bmp'><br><font class='baseline'><strong>Joseph</strong><p>Choose number of points to send.</font><div class='respPicDiv'><img src='img/responseButtonOffersNo0L.png' class='respPic'></div></div>","5","10","Joseph","10","Kept","0.65,0.2","9","0.65","trustrating_stim/white_00898_960530_fa_edt.bmp","7.5","124","28"
"html-keyboard-response","219","338393","0.0-19.0-2.27","63d7a9346e833b93500723d4","bdp_trlrn","Tue Mar 14 2023 20:46:45 GMT-0400 (Eastern Daylight Time)","577324","Untrustworthy,Trustworthy","","null","","","","decisionFB","","<div class='trialDiv'><img src='trustrating_stim/white_00898_960530_fa_edt.bmp'><br><font class='baseline'><strong>Joseph</strong><p>Choose number of points to send.</font><div class='respPicDiv'><img src='img/responseButtonOffersNo0L5.png' class='respPic'></div></div>","null","10","Joseph","10","Kept","0.65,0.2","9","0.65","trustrating_stim/white_00898_960530_fa_edt.bmp","7.5","119","28"
"html-keyboard-response","220","339394","0.0-19.0-3.27","63d7a9346e833b93500723d4","bdp_trlrn","Tue Mar 14 2023 20:46:45 GMT-0400 (Eastern Daylight Time)","577324","Untrustworthy,Trustworthy","","null","","","","feedback","","<div class='trialDiv'><img src='trustrating_stim/white_00898_960530_fa_edt.bmp'><br><font class='baseline'><strong>Joseph</strong><p>Received: <strong>20</strong></font> &nbsp; &nbsp; &nbsp; &nbsp; &nbsp; &nbsp;<font class='negOutcome'>Shared back: <strong>0</strong></font></font><div class='respPicDiv'><img src='img/responseButtonOffersNo0_wht.png' class='respPic'></div></div>","null","10","Joseph","10","Kept","0.65,0.2","9","0.65","trustrating_stim/white_00898_960530_fa_edt.bmp","7.5","119","28"
