"trial_type","trial_index","time_elapsed","internal_node_id","subject_id","task","startTime","totalTime","labels","event","trial","time","trialtype","view_history","rt","success","stimulus","key_press","aground","name","faceID","outcome","agenttype","agentswpt","agentcurrpshare","face","avgRating","point_total","round"
"pavlovia","0","3","0.0-0.0","63f78c9346da47f7f8f3aef9","bdp_trlrn","Sat Apr 08 2023 09:27:08 GMT-0600 (Mountain Daylight Time)","449504","Trustworthy,Untrustworthy","","","","","","","","","","","","","","","","","","","",""
"","","","","63f78c9346da47f7f8f3aef9","bdp_trlrn","Sat Apr 08 2023 09:27:08 GMT-0600 (Mountain Daylight Time)","449504","Trustworthy,Untrustworthy","focus","1","326","focusevent","","","","","","","","","","","","","","","",""
"instructions","1","3250","0.0-1.0","63f78c9346da47f7f8f3aef9","bdp_trlrn","Sat Apr 08 2023 09:27:08 GMT-0600 (Mountain Daylight Time)","449504","Trustworthy,Untrustworthy","","","","","[{""page_index"":0,""viewing_time"":3246}]","3246","","","","","","","","","","","","","",""
"","","","","63f78c9346da47f7f8f3aef9","bdp_trlrn","Sat Apr 08 2023 09:27:08 GMT-0600 (Mountain Daylight Time)","449504","Trustworthy,Untrustworthy","fullscreenexit","2","5576","fullscreenexit","","","","","","","","","","","","","","","",""
"fullscreen","2","6377","0.0-2.0","63f78c9346da47f7f8f3aef9","bdp_trlrn","Sat Apr 08 2023 09:27:08 GMT-0600 (Mountain Daylight Time)","449504","Trustworthy,Untrustworthy","","","","","","","true","","","","","","","","","","","","",""
"image-keyboard-response","3","10275","0.0-3.0-0.0","63f78c9346da47f7f8f3aef9","bdp_trlrn","Sat Apr 08 2023 09:27:08 GMT-0600 (Mountain Daylight Time)","449504","Trustworthy,Untrustworthy","","","","fullscreenfail","","3890","","","32","","","","","","","","","","",""
"instructions","4","18986","0.0-4.0","63f78c9346da47f7f8f3aef9","bdp_trlrn","Sat Apr 08 2023 09:27:08 GMT-0600 (Mountain Daylight Time)","449504","Trustworthy,Untrustworthy","","","","","[{""page_index"":0,""viewing_time"":4737},{""page_index"":1,""viewing_time"":3710}]","8447","","","","","","","","","","","","","",""
"instructions","5","19754","0.0-5.0","63f78c9346da47f7f8f3aef9","bdp_trlrn","Sat Apr 08 2023 09:27:08 GMT-0600 (Mountain Daylight Time)","449504","Trustworthy,Untrustworthy","","","","","[{""page_index"":0,""viewing_time"":765}]","765","","","","","","","","","","","","","",""
"image-keyboard-response","6","22305","0.0-6.0-1.0","63f78c9346da47f7f8f3aef9","bdp_trlrn","Sat Apr 08 2023 09:27:08 GMT-0600 (Mountain Daylight Time)","449504","Trustworthy,Untrustworthy","","","","rating","","2448","","trustrating_stim/white_00807_941205_fb_edt.bmp","5","","","","","","","","","","",""
"image-keyboard-response","7","22514","0.0-6.0-2.0","63f78c9346da47f7f8f3aef9","bdp_trlrn","Sat Apr 08 2023 09:27:08 GMT-0600 (Mountain Daylight Time)","449504","Trustworthy,Untrustworthy","","","","ratingFB","","null","","trustrating_stim/white_00807_941205_fb_edt.bmp","null","","","","","","","","","","",""
"image-keyboard-response","8","24794","0.0-6.0-1.1","63f78c9346da47f7f8f3aef9","bdp_trlrn","Sat Apr 08 2023 09:27:08 GMT-0600 (Mountain Daylight Time)","449504","Trustworthy,Untrustworthy","","","","rating","","2171","","trustrating_stim/white_00340_940422_fa_edt.bmp","4","","","","","","","","","","",""
"image-keyboard-response","9","25001","0.0-6.0-2.1","63f78c9346da47f7f8f3aef9","bdp_trlrn","Sat Apr 08 2023 09:27:08 GMT-0600 (Mountain Daylight Time)","449504","Trustworthy,Untrustworthy","","","","ratingFB","","null","","trustrating_stim/white_00340_940422_fa_edt.bmp","null","","","","","","","","","","",""
"image-keyboard-response","10","26138","0.0-6.0-1.2","63f78c9346da47f7f8f3aef9","bdp_trlrn","Sat Apr 08 2023 09:27:08 GMT-0600 (Mountain Daylight Time)","449504","Trustworthy,Untrustworthy","","","","rating","","1028","","trustrating_stim/white_mw097.bmp","5","","","","","","","","","","",""
"image-keyboard-response","11","26350","0.0-6.0-2.2","63f78c9346da47f7f8f3aef9","bdp_trlrn","Sat Apr 08 2023 09:27:08 GMT-0600 (Mountain Daylight Time)","449504","Trustworthy,Untrustworthy","","","","ratingFB","","null","","trustrating_stim/white_mw097.bmp","null","","","","","","","","","","",""
"image-keyboard-response","12","27969","0.0-6.0-1.3","63f78c9346da47f7f8f3aef9","bdp_trlrn","Sat Apr 08 2023 09:27:08 GMT-0600 (Mountain Daylight Time)","449504","Trustworthy,Untrustworthy","","","","rating","","1508","","trustrating_stim/white_mw053.bmp","4","","","","","","","","","","",""
"image-keyboard-response","13","28182","0.0-6.0-2.3","63f78c9346da47f7f8f3aef9","bdp_trlrn","Sat Apr 08 2023 09:27:08 GMT-0600 (Mountain Daylight Time)","449504","Trustworthy,Untrustworthy","","","","ratingFB","","null","","trustrating_stim/white_mw053.bmp","null","","","","","","","","","","",""
"image-keyboard-response","14","29362","0.0-6.0-1.4","63f78c9346da47f7f8f3aef9","bdp_trlrn","Sat Apr 08 2023 09:27:08 GMT-0600 (Mountain Daylight Time)","449504","Trustworthy,Untrustworthy","","","","rating","","1071","","trustrating_stim/white_mw060.bmp","5","","","","","","","","","","",""
"image-keyboard-response","15","29575","0.0-6.0-2.4","63f78c9346da47f7f8f3aef9","bdp_trlrn","Sat Apr 08 2023 09:27:08 GMT-0600 (Mountain Daylight Time)","449504","Trustworthy,Untrustworthy","","","","ratingFB","","null","","trustrating_stim/white_mw060.bmp","null","","","","","","","","","","",""
"image-keyboard-response","16","30810","0.0-6.0-1.5","63f78c9346da47f7f8f3aef9","bdp_trlrn","Sat Apr 08 2023 09:27:08 GMT-0600 (Mountain Daylight Time)","449504","Trustworthy,Untrustworthy","","","","rating","","1125","","trustrating_stim/white_00898_960530_fa_edt.bmp","5","","","","","","","","","","",""
"image-keyboard-response","17","31017","0.0-6.0-2.5","63f78c9346da47f7f8f3aef9","bdp_trlrn","Sat Apr 08 2023 09:27:08 GMT-0600 (Mountain Daylight Time)","449504","Trustworthy,Untrustworthy","","","","ratingFB","","null","","trustrating_stim/white_00898_960530_fa_edt.bmp","null","","","","","","","","","","",""
"image-keyboard-response","18","33290","0.0-6.0-1.6","63f78c9346da47f7f8f3aef9","bdp_trlrn","Sat Apr 08 2023 09:27:08 GMT-0600 (Mountain Daylight Time)","449504","Trustworthy,Untrustworthy","","","","rating","","2163","","trustrating_stim/white_mw033.bmp","3","","","","","","","","","","",""
"image-keyboard-response","19","33502","0.0-6.0-2.6","63f78c9346da47f7f8f3aef9","bdp_trlrn","Sat Apr 08 2023 09:27:08 GMT-0600 (Mountain Daylight Time)","449504","Trustworthy,Untrustworthy","","","","ratingFB","","null","","trustrating_stim/white_mw033.bmp","null","","","","","","","","","","",""
"image-keyboard-response","20","34514","0.0-6.0-1.7","63f78c9346da47f7f8f3aef9","bdp_trlrn","Sat Apr 08 2023 09:27:08 GMT-0600 (Mountain Daylight Time)","449504","Trustworthy,Untrustworthy","","","","rating","","903","","trustrating_stim/white_00223_940128_fb_edt.bmp","5","","","","","","","","","","",""
"image-keyboard-response","21","34726","0.0-6.0-2.7","63f78c9346da47f7f8f3aef9","bdp_trlrn","Sat Apr 08 2023 09:27:08 GMT-0600 (Mountain Daylight Time)","449504","Trustworthy,Untrustworthy","","","","ratingFB","","null","","trustrating_stim/white_00223_940128_fb_edt.bmp","null","","","","","","","","","","",""
"image-keyboard-response","22","36066","0.0-6.0-1.8","63f78c9346da47f7f8f3aef9","bdp_trlrn","Sat Apr 08 2023 09:27:08 GMT-0600 (Mountain Daylight Time)","449504","Trustworthy,Untrustworthy","","","","rating","","1228","","trustrating_stim/white_mw046.bmp","5","","","","","","","","","","",""
"image-keyboard-response","23","36278","0.0-6.0-2.8","63f78c9346da47f7f8f3aef9","bdp_trlrn","Sat Apr 08 2023 09:27:08 GMT-0600 (Mountain Daylight Time)","449504","Trustworthy,Untrustworthy","","","","ratingFB","","null","","trustrating_stim/white_mw046.bmp","null","","","","","","","","","","",""
"image-keyboard-response","24","38522","0.0-6.0-1.9","63f78c9346da47f7f8f3aef9","bdp_trlrn","Sat Apr 08 2023 09:27:08 GMT-0600 (Mountain Daylight Time)","449504","Trustworthy,Untrustworthy","","","","rating","","2133","","trustrating_stim/white_00299_940422_fa_edt.bmp","4","","","","","","","","","","",""
"image-keyboard-response","25","38733","0.0-6.0-2.9","63f78c9346da47f7f8f3aef9","bdp_trlrn","Sat Apr 08 2023 09:27:08 GMT-0600 (Mountain Daylight Time)","449504","Trustworthy,Untrustworthy","","","","ratingFB","","null","","trustrating_stim/white_00299_940422_fa_edt.bmp","null","","","","","","","","","","",""
"image-keyboard-response","26","40497","0.0-6.0-1.10","63f78c9346da47f7f8f3aef9","bdp_trlrn","Sat Apr 08 2023 09:27:08 GMT-0600 (Mountain Daylight Time)","449504","Trustworthy,Untrustworthy","","","","rating","","1654","","trustrating_stim/white_mw089.bmp","5","","","","","","","","","","",""
"image-keyboard-response","27","40712","0.0-6.0-2.10","63f78c9346da47f7f8f3aef9","bdp_trlrn","Sat Apr 08 2023 09:27:08 GMT-0600 (Mountain Daylight Time)","449504","Trustworthy,Untrustworthy","","","","ratingFB","","null","","trustrating_stim/white_mw089.bmp","null","","","","","","","","","","",""
"image-keyboard-response","28","42841","0.0-6.0-1.11","63f78c9346da47f7f8f3aef9","bdp_trlrn","Sat Apr 08 2023 09:27:08 GMT-0600 (Mountain Daylight Time)","449504","Trustworthy,Untrustworthy","","","","rating","","2019","","trustrating_stim/white_00761_941201_fb_edt.bmp","5","","","","","","","","","","",""
"image-keyboard-response","29","43043","0.0-6.0-2.11","63f78c9346da47f7f8f3aef9","bdp_trlrn","Sat Apr 08 2023 09:27:08 GMT-0600 (Mountain Daylight Time)","449504","Trustworthy,Untrustworthy","","","","ratingFB","","null","","trustrating_stim/white_00761_941201_fb_edt.bmp","null","","","","","","","","","","",""
"image-keyboard-response","30","44425","0.0-6.0-1.12","63f78c9346da47f7f8f3aef9","bdp_trlrn","Sat Apr 08 2023 09:27:08 GMT-0600 (Mountain Daylight Time)","449504","Trustworthy,Untrustworthy","","","","rating","","1272","","trustrating_stim/white_00659_941121_fa_edt.bmp","5","","","","","","","","","","",""
"image-keyboard-response","31","44629","0.0-6.0-2.12","63f78c9346da47f7f8f3aef9","bdp_trlrn","Sat Apr 08 2023 09:27:08 GMT-0600 (Mountain Daylight Time)","449504","Trustworthy,Untrustworthy","","","","ratingFB","","null","","trustrating_stim/white_00659_941121_fa_edt.bmp","null","","","","","","","","","","",""
"image-keyboard-response","32","45802","0.0-6.0-1.13","63f78c9346da47f7f8f3aef9","bdp_trlrn","Sat Apr 08 2023 09:27:08 GMT-0600 (Mountain Daylight Time)","449504","Trustworthy,Untrustworthy","","","","rating","","1063","","trustrating_stim/white_mw049.bmp","5","","","","","","","","","","",""
"image-keyboard-response","33","46011","0.0-6.0-2.13","63f78c9346da47f7f8f3aef9","bdp_trlrn","Sat Apr 08 2023 09:27:08 GMT-0600 (Mountain Daylight Time)","449504","Trustworthy,Untrustworthy","","","","ratingFB","","null","","trustrating_stim/white_mw049.bmp","null","","","","","","","","","","",""
"image-keyboard-response","34","47153","0.0-6.0-1.14","63f78c9346da47f7f8f3aef9","bdp_trlrn","Sat Apr 08 2023 09:27:08 GMT-0600 (Mountain Daylight Time)","449504","Trustworthy,Untrustworthy","","","","rating","","1033","","trustrating_stim/white_mw035.bmp","5","","","","","","","","","","",""
"image-keyboard-response","35","47362","0.0-6.0-2.14","63f78c9346da47f7f8f3aef9","bdp_trlrn","Sat Apr 08 2023 09:27:08 GMT-0600 (Mountain Daylight Time)","449504","Trustworthy,Untrustworthy","","","","ratingFB","","null","","trustrating_stim/white_mw035.bmp","null","","","","","","","","","","",""
"image-keyboard-response","36","48865","0.0-6.0-1.15","63f78c9346da47f7f8f3aef9","bdp_trlrn","Sat Apr 08 2023 09:27:08 GMT-0600 (Mountain Daylight Time)","449504","Trustworthy,Untrustworthy","","","","rating","","1393","","trustrating_stim/white_mw056.bmp","5","","","","","","","","","","",""
"image-keyboard-response","37","49070","0.0-6.0-2.15","63f78c9346da47f7f8f3aef9","bdp_trlrn","Sat Apr 08 2023 09:27:08 GMT-0600 (Mountain Daylight Time)","449504","Trustworthy,Untrustworthy","","","","ratingFB","","null","","trustrating_stim/white_mw056.bmp","null","","","","","","","","","","",""
"image-keyboard-response","38","50762","0.0-6.0-1.16","63f78c9346da47f7f8f3aef9","bdp_trlrn","Sat Apr 08 2023 09:27:08 GMT-0600 (Mountain Daylight Time)","449504","Trustworthy,Untrustworthy","","","","rating","","1581","","trustrating_stim/white_00519_940519_fb_edt.bmp","4","","","","","","","","","","",""
"image-keyboard-response","39","50963","0.0-6.0-2.16","63f78c9346da47f7f8f3aef9","bdp_trlrn","Sat Apr 08 2023 09:27:08 GMT-0600 (Mountain Daylight Time)","449504","Trustworthy,Untrustworthy","","","","ratingFB","","null","","trustrating_stim/white_00519_940519_fb_edt.bmp","null","","","","","","","","","","",""
"image-keyboard-response","40","52089","0.0-6.0-1.17","63f78c9346da47f7f8f3aef9","bdp_trlrn","Sat Apr 08 2023 09:27:08 GMT-0600 (Mountain Daylight Time)","449504","Trustworthy,Untrustworthy","","","","rating","","1016","","trustrating_stim/white_00129_931230_fb_edt.bmp","5","","","","","","","","","","",""
"image-keyboard-response","41","52298","0.0-6.0-2.17","63f78c9346da47f7f8f3aef9","bdp_trlrn","Sat Apr 08 2023 09:27:08 GMT-0600 (Mountain Daylight Time)","449504","Trustworthy,Untrustworthy","","","","ratingFB","","null","","trustrating_stim/white_00129_931230_fb_edt.bmp","null","","","","","","","","","","",""
"image-keyboard-response","42","53482","0.0-6.0-1.18","63f78c9346da47f7f8f3aef9","bdp_trlrn","Sat Apr 08 2023 09:27:08 GMT-0600 (Mountain Daylight Time)","449504","Trustworthy,Untrustworthy","","","","rating","","1075","","trustrating_stim/white_mw084.bmp","5","","","","","","","","","","",""
"image-keyboard-response","43","53698","0.0-6.0-2.18","63f78c9346da47f7f8f3aef9","bdp_trlrn","Sat Apr 08 2023 09:27:08 GMT-0600 (Mountain Daylight Time)","449504","Trustworthy,Untrustworthy","","","","ratingFB","","null","","trustrating_stim/white_mw084.bmp","null","","","","","","","","","","",""
"image-keyboard-response","44","55435","0.0-6.0-1.19","63f78c9346da47f7f8f3aef9","bdp_trlrn","Sat Apr 08 2023 09:27:08 GMT-0600 (Mountain Daylight Time)","449504","Trustworthy,Untrustworthy","","","","rating","","1627","","trustrating_stim/white_00602_940928_fb_edt.bmp","6","","","","","","","","","","",""
"image-keyboard-response","45","55642","0.0-6.0-2.19","63f78c9346da47f7f8f3aef9","bdp_trlrn","Sat Apr 08 2023 09:27:08 GMT-0600 (Mountain Daylight Time)","449504","Trustworthy,Untrustworthy","","","","ratingFB","","null","","trustrating_stim/white_00602_940928_fb_edt.bmp","null","","","","","","","","","","",""
"image-keyboard-response","46","56651","0.0-6.0-1.20","63f78c9346da47f7f8f3aef9","bdp_trlrn","Sat Apr 08 2023 09:27:08 GMT-0600 (Mountain Daylight Time)","449504","Trustworthy,Untrustworthy","","","","rating","","898","","trustrating_stim/white_mw063.bmp","5","","","","","","","","","","",""
"image-keyboard-response","47","56854","0.0-6.0-2.20","63f78c9346da47f7f8f3aef9","bdp_trlrn","Sat Apr 08 2023 09:27:08 GMT-0600 (Mountain Daylight Time)","449504","Trustworthy,Untrustworthy","","","","ratingFB","","null","","trustrating_stim/white_mw063.bmp","null","","","","","","","","","","",""
"image-keyboard-response","48","59801","0.0-6.0-1.21","63f78c9346da47f7f8f3aef9","bdp_trlrn","Sat Apr 08 2023 09:27:08 GMT-0600 (Mountain Daylight Time)","449504","Trustworthy,Untrustworthy","","","","rating","","2838","","trustrating_stim/white_00109_931230_fa_edt.bmp","5","","","","","","","","","","",""
"image-keyboard-response","49","60007","0.0-6.0-2.21","63f78c9346da47f7f8f3aef9","bdp_trlrn","Sat Apr 08 2023 09:27:08 GMT-0600 (Mountain Daylight Time)","449504","Trustworthy,Untrustworthy","","","","ratingFB","","null","","trustrating_stim/white_00109_931230_fa_edt.bmp","null","","","","","","","","","","",""
"image-keyboard-response","50","61433","0.0-6.0-1.22","63f78c9346da47f7f8f3aef9","bdp_trlrn","Sat Apr 08 2023 09:27:08 GMT-0600 (Mountain Daylight Time)","449504","Trustworthy,Untrustworthy","","","","rating","","1316","","trustrating_stim/white_mw071.bmp","5","","","","","","","","","","",""
"image-keyboard-response","51","61636","0.0-6.0-2.22","63f78c9346da47f7f8f3aef9","bdp_trlrn","Sat Apr 08 2023 09:27:08 GMT-0600 (Mountain Daylight Time)","449504","Trustworthy,Untrustworthy","","","","ratingFB","","null","","trustrating_stim/white_mw071.bmp","null","","","","","","","","","","",""
"image-keyboard-response","52","62456","0.0-6.0-1.23","63f78c9346da47f7f8f3aef9","bdp_trlrn","Sat Apr 08 2023 09:27:08 GMT-0600 (Mountain Daylight Time)","449504","Trustworthy,Untrustworthy","","","","rating","","712","","trustrating_stim/white_mw066.bmp","5","","","","","","","","","","",""
"image-keyboard-response","53","62662","0.0-6.0-2.23","63f78c9346da47f7f8f3aef9","bdp_trlrn","Sat Apr 08 2023 09:27:08 GMT-0600 (Mountain Daylight Time)","449504","Trustworthy,Untrustworthy","","","","ratingFB","","null","","trustrating_stim/white_mw066.bmp","null","","","","","","","","","","",""
"image-keyboard-response","54","64002","0.0-6.0-1.24","63f78c9346da47f7f8f3aef9","bdp_trlrn","Sat Apr 08 2023 09:27:08 GMT-0600 (Mountain Daylight Time)","449504","Trustworthy,Untrustworthy","","","","rating","","1230","","trustrating_stim/white_00757_941201_fa_edt.bmp","5","","","","","","","","","","",""
"image-keyboard-response","55","64209","0.0-6.0-2.24","63f78c9346da47f7f8f3aef9","bdp_trlrn","Sat Apr 08 2023 09:27:08 GMT-0600 (Mountain Daylight Time)","449504","Trustworthy,Untrustworthy","","","","ratingFB","","null","","trustrating_stim/white_00757_941201_fa_edt.bmp","null","","","","","","","","","","",""
"image-keyboard-response","56","66457","0.0-6.0-1.25","63f78c9346da47f7f8f3aef9","bdp_trlrn","Sat Apr 08 2023 09:27:08 GMT-0600 (Mountain Daylight Time)","449504","Trustworthy,Untrustworthy","","","","rating","","2139","","trustrating_stim/white_mw048.bmp","4","","","","","","","","","","",""
"image-keyboard-response","57","66659","0.0-6.0-2.25","63f78c9346da47f7f8f3aef9","bdp_trlrn","Sat Apr 08 2023 09:27:08 GMT-0600 (Mountain Daylight Time)","449504","Trustworthy,Untrustworthy","","","","ratingFB","","null","","trustrating_stim/white_mw048.bmp","null","","","","","","","","","","",""
"image-keyboard-response","58","67529","0.0-6.0-1.26","63f78c9346da47f7f8f3aef9","bdp_trlrn","Sat Apr 08 2023 09:27:08 GMT-0600 (Mountain Daylight Time)","449504","Trustworthy,Untrustworthy","","","","rating","","762","","trustrating_stim/white_00577_940928_fa_edt.bmp","5","","","","","","","","","","",""
"image-keyboard-response","59","67733","0.0-6.0-2.26","63f78c9346da47f7f8f3aef9","bdp_trlrn","Sat Apr 08 2023 09:27:08 GMT-0600 (Mountain Daylight Time)","449504","Trustworthy,Untrustworthy","","","","ratingFB","","null","","trustrating_stim/white_00577_940928_fa_edt.bmp","null","","","","","","","","","","",""
"image-keyboard-response","60","68994","0.0-6.0-1.27","63f78c9346da47f7f8f3aef9","bdp_trlrn","Sat Apr 08 2023 09:27:08 GMT-0600 (Mountain Daylight Time)","449504","Trustworthy,Untrustworthy","","","","rating","","1152","","trustrating_stim/white_mw099.bmp","5","","","","","","","","","","",""
"image-keyboard-response","61","69206","0.0-6.0-2.27","63f78c9346da47f7f8f3aef9","bdp_trlrn","Sat Apr 08 2023 09:27:08 GMT-0600 (Mountain Daylight Time)","449504","Trustworthy,Untrustworthy","","","","ratingFB","","null","","trustrating_stim/white_mw099.bmp","null","","","","","","","","","","",""
"image-keyboard-response","62","70796","0.0-6.0-1.28","63f78c9346da47f7f8f3aef9","bdp_trlrn","Sat Apr 08 2023 09:27:08 GMT-0600 (Mountain Daylight Time)","449504","Trustworthy,Untrustworthy","","","","rating","","1475","","trustrating_stim/white_00120_931230_fa_edt.bmp","6","","","","","","","","","","",""
"image-keyboard-response","63","71013","0.0-6.0-2.28","63f78c9346da47f7f8f3aef9","bdp_trlrn","Sat Apr 08 2023 09:27:08 GMT-0600 (Mountain Daylight Time)","449504","Trustworthy,Untrustworthy","","","","ratingFB","","null","","trustrating_stim/white_00120_931230_fa_edt.bmp","null","","","","","","","","","","",""
"image-keyboard-response","64","72138","0.0-6.0-1.29","63f78c9346da47f7f8f3aef9","bdp_trlrn","Sat Apr 08 2023 09:27:08 GMT-0600 (Mountain Daylight Time)","449504","Trustworthy,Untrustworthy","","","","rating","","1001","","trustrating_stim/white_00785_941205_fb_edt.bmp","5","","","","","","","","","","",""
"image-keyboard-response","65","72351","0.0-6.0-2.29","63f78c9346da47f7f8f3aef9","bdp_trlrn","Sat Apr 08 2023 09:27:08 GMT-0600 (Mountain Daylight Time)","449504","Trustworthy,Untrustworthy","","","","ratingFB","","null","","trustrating_stim/white_00785_941205_fb_edt.bmp","null","","","","","","","","","","",""
"image-keyboard-response","66","74153","0.0-6.0-1.30","63f78c9346da47f7f8f3aef9","bdp_trlrn","Sat Apr 08 2023 09:27:08 GMT-0600 (Mountain Daylight Time)","449504","Trustworthy,Untrustworthy","","","","rating","","1693","","trustrating_stim/white_mw060.bmp","5","","","","","","","","","","",""
"image-keyboard-response","67","74367","0.0-6.0-2.30","63f78c9346da47f7f8f3aef9","bdp_trlrn","Sat Apr 08 2023 09:27:08 GMT-0600 (Mountain Daylight Time)","449504","Trustworthy,Untrustworthy","","","","ratingFB","","null","","trustrating_stim/white_mw060.bmp","null","","","","","","","","","","",""
"image-keyboard-response","68","75738","0.0-6.0-1.31","63f78c9346da47f7f8f3aef9","bdp_trlrn","Sat Apr 08 2023 09:27:08 GMT-0600 (Mountain Daylight Time)","449504","Trustworthy,Untrustworthy","","","","rating","","1262","","trustrating_stim/white_mw048.bmp","5","","","","","","","","","","",""
"image-keyboard-response","69","75950","0.0-6.0-2.31","63f78c9346da47f7f8f3aef9","bdp_trlrn","Sat Apr 08 2023 09:27:08 GMT-0600 (Mountain Daylight Time)","449504","Trustworthy,Untrustworthy","","","","ratingFB","","null","","trustrating_stim/white_mw048.bmp","null","","","","","","","","","","",""
"image-keyboard-response","70","77025","0.0-6.0-1.32","63f78c9346da47f7f8f3aef9","bdp_trlrn","Sat Apr 08 2023 09:27:08 GMT-0600 (Mountain Daylight Time)","449504","Trustworthy,Untrustworthy","","","","rating","","966","","trustrating_stim/white_00659_941121_fa_edt.bmp","5","","","","","","","","","","",""
"image-keyboard-response","71","77240","0.0-6.0-2.32","63f78c9346da47f7f8f3aef9","bdp_trlrn","Sat Apr 08 2023 09:27:08 GMT-0600 (Mountain Daylight Time)","449504","Trustworthy,Untrustworthy","","","","ratingFB","","null","","trustrating_stim/white_00659_941121_fa_edt.bmp","null","","","","","","","","","","",""
"image-keyboard-response","72","78403","0.0-6.0-1.33","63f78c9346da47f7f8f3aef9","bdp_trlrn","Sat Apr 08 2023 09:27:08 GMT-0600 (Mountain Daylight Time)","449504","Trustworthy,Untrustworthy","","","","rating","","1053","","trustrating_stim/white_00340_940422_fa_edt.bmp","5","","","","","","","","","","",""
"image-keyboard-response","73","78620","0.0-6.0-2.33","63f78c9346da47f7f8f3aef9","bdp_trlrn","Sat Apr 08 2023 09:27:08 GMT-0600 (Mountain Daylight Time)","449504","Trustworthy,Untrustworthy","","","","ratingFB","","null","","trustrating_stim/white_00340_940422_fa_edt.bmp","null","","","","","","","","","","",""
"image-keyboard-response","74","80242","0.0-6.0-1.34","63f78c9346da47f7f8f3aef9","bdp_trlrn","Sat Apr 08 2023 09:27:08 GMT-0600 (Mountain Daylight Time)","449504","Trustworthy,Untrustworthy","","","","rating","","1512","","trustrating_stim/white_mw053.bmp","6","","","","","","","","","","",""
"image-keyboard-response","75","80449","0.0-6.0-2.34","63f78c9346da47f7f8f3aef9","bdp_trlrn","Sat Apr 08 2023 09:27:08 GMT-0600 (Mountain Daylight Time)","449504","Trustworthy,Untrustworthy","","","","ratingFB","","null","","trustrating_stim/white_mw053.bmp","null","","","","","","","","","","",""
"image-keyboard-response","76","81932","0.0-6.0-1.35","63f78c9346da47f7f8f3aef9","bdp_trlrn","Sat Apr 08 2023 09:27:08 GMT-0600 (Mountain Daylight Time)","449504","Trustworthy,Untrustworthy","","","","rating","","1374","","trustrating_stim/white_00761_941201_fb_edt.bmp","5","","","","","","","","","","",""
"image-keyboard-response","77","82143","0.0-6.0-2.35","63f78c9346da47f7f8f3aef9","bdp_trlrn","Sat Apr 08 2023 09:27:08 GMT-0600 (Mountain Daylight Time)","449504","Trustworthy,Untrustworthy","","","","ratingFB","","null","","trustrating_stim/white_00761_941201_fb_edt.bmp","null","","","","","","","","","","",""
"image-keyboard-response","78","83505","0.0-6.0-1.36","63f78c9346da47f7f8f3aef9","bdp_trlrn","Sat Apr 08 2023 09:27:08 GMT-0600 (Mountain Daylight Time)","449504","Trustworthy,Untrustworthy","","","","rating","","1252","","trustrating_stim/white_mw089.bmp","5","","","","","","","","","","",""
"image-keyboard-response","79","83711","0.0-6.0-2.36","63f78c9346da47f7f8f3aef9","bdp_trlrn","Sat Apr 08 2023 09:27:08 GMT-0600 (Mountain Daylight Time)","449504","Trustworthy,Untrustworthy","","","","ratingFB","","null","","trustrating_stim/white_mw089.bmp","null","","","","","","","","","","",""
"image-keyboard-response","80","84761","0.0-6.0-1.37","63f78c9346da47f7f8f3aef9","bdp_trlrn","Sat Apr 08 2023 09:27:08 GMT-0600 (Mountain Daylight Time)","449504","Trustworthy,Untrustworthy","","","","rating","","939","","trustrating_stim/white_00519_940519_fb_edt.bmp","4","","","","","","","","","","",""
"image-keyboard-response","81","84967","0.0-6.0-2.37","63f78c9346da47f7f8f3aef9","bdp_trlrn","Sat Apr 08 2023 09:27:08 GMT-0600 (Mountain Daylight Time)","449504","Trustworthy,Untrustworthy","","","","ratingFB","","null","","trustrating_stim/white_00519_940519_fb_edt.bmp","null","","","","","","","","","","",""
"image-keyboard-response","82","85809","0.0-6.0-1.38","63f78c9346da47f7f8f3aef9","bdp_trlrn","Sat Apr 08 2023 09:27:08 GMT-0600 (Mountain Daylight Time)","449504","Trustworthy,Untrustworthy","","","","rating","","731","","trustrating_stim/white_mw071.bmp","5","","","","","","","","","","",""
"image-keyboard-response","83","86025","0.0-6.0-2.38","63f78c9346da47f7f8f3aef9","bdp_trlrn","Sat Apr 08 2023 09:27:08 GMT-0600 (Mountain Daylight Time)","449504","Trustworthy,Untrustworthy","","","","ratingFB","","null","","trustrating_stim/white_mw071.bmp","null","","","","","","","","","","",""
"image-keyboard-response","84","86905","0.0-6.0-1.39","63f78c9346da47f7f8f3aef9","bdp_trlrn","Sat Apr 08 2023 09:27:08 GMT-0600 (Mountain Daylight Time)","449504","Trustworthy,Untrustworthy","","","","rating","","771","","trustrating_stim/white_mw097.bmp","5","","","","","","","","","","",""
"image-keyboard-response","85","87114","0.0-6.0-2.39","63f78c9346da47f7f8f3aef9","bdp_trlrn","Sat Apr 08 2023 09:27:08 GMT-0600 (Mountain Daylight Time)","449504","Trustworthy,Untrustworthy","","","","ratingFB","","null","","trustrating_stim/white_mw097.bmp","null","","","","","","","","","","",""
"image-keyboard-response","86","87913","0.0-6.0-1.40","63f78c9346da47f7f8f3aef9","bdp_trlrn","Sat Apr 08 2023 09:27:08 GMT-0600 (Mountain Daylight Time)","449504","Trustworthy,Untrustworthy","","","","rating","","691","","trustrating_stim/white_00757_941201_fa_edt.bmp","5","","","","","","","","","","",""
"image-keyboard-response","87","88123","0.0-6.0-2.40","63f78c9346da47f7f8f3aef9","bdp_trlrn","Sat Apr 08 2023 09:27:08 GMT-0600 (Mountain Daylight Time)","449504","Trustworthy,Untrustworthy","","","","ratingFB","","null","","trustrating_stim/white_00757_941201_fa_edt.bmp","null","","","","","","","","","","",""
"image-keyboard-response","88","89097","0.0-6.0-1.41","63f78c9346da47f7f8f3aef9","bdp_trlrn","Sat Apr 08 2023 09:27:08 GMT-0600 (Mountain Daylight Time)","449504","Trustworthy,Untrustworthy","","","","rating","","865","","trustrating_stim/white_mw056.bmp","5","","","","","","","","","","",""
"image-keyboard-response","89","89301","0.0-6.0-2.41","63f78c9346da47f7f8f3aef9","bdp_trlrn","Sat Apr 08 2023 09:27:08 GMT-0600 (Mountain Daylight Time)","449504","Trustworthy,Untrustworthy","","","","ratingFB","","null","","trustrating_stim/white_mw056.bmp","null","","","","","","","","","","",""
"image-keyboard-response","90","90753","0.0-6.0-1.42","63f78c9346da47f7f8f3aef9","bdp_trlrn","Sat Apr 08 2023 09:27:08 GMT-0600 (Mountain Daylight Time)","449504","Trustworthy,Untrustworthy","","","","rating","","1342","","trustrating_stim/white_00223_940128_fb_edt.bmp","5","","","","","","","","","","",""
"image-keyboard-response","91","90962","0.0-6.0-2.42","63f78c9346da47f7f8f3aef9","bdp_trlrn","Sat Apr 08 2023 09:27:08 GMT-0600 (Mountain Daylight Time)","449504","Trustworthy,Untrustworthy","","","","ratingFB","","null","","trustrating_stim/white_00223_940128_fb_edt.bmp","null","","","","","","","","","","",""
"image-keyboard-response","92","91868","0.0-6.0-1.43","63f78c9346da47f7f8f3aef9","bdp_trlrn","Sat Apr 08 2023 09:27:08 GMT-0600 (Mountain Daylight Time)","449504","Trustworthy,Untrustworthy","","","","rating","","796","","trustrating_stim/white_00602_940928_fb_edt.bmp","5","","","","","","","","","","",""
"image-keyboard-response","93","92081","0.0-6.0-2.43","63f78c9346da47f7f8f3aef9","bdp_trlrn","Sat Apr 08 2023 09:27:08 GMT-0600 (Mountain Daylight Time)","449504","Trustworthy,Untrustworthy","","","","ratingFB","","null","","trustrating_stim/white_00602_940928_fb_edt.bmp","null","","","","","","","","","","",""
"image-keyboard-response","94","93001","0.0-6.0-1.44","63f78c9346da47f7f8f3aef9","bdp_trlrn","Sat Apr 08 2023 09:27:08 GMT-0600 (Mountain Daylight Time)","449504","Trustworthy,Untrustworthy","","","","rating","","809","","trustrating_stim/white_00299_940422_fa_edt.bmp","5","","","","","","","","","","",""
"image-keyboard-response","95","93215","0.0-6.0-2.44","63f78c9346da47f7f8f3aef9","bdp_trlrn","Sat Apr 08 2023 09:27:08 GMT-0600 (Mountain Daylight Time)","449504","Trustworthy,Untrustworthy","","","","ratingFB","","null","","trustrating_stim/white_00299_940422_fa_edt.bmp","null","","","","","","","","","","",""
"image-keyboard-response","96","94266","0.0-6.0-1.45","63f78c9346da47f7f8f3aef9","bdp_trlrn","Sat Apr 08 2023 09:27:08 GMT-0600 (Mountain Daylight Time)","449504","Trustworthy,Untrustworthy","","","","rating","","941","","trustrating_stim/white_00129_931230_fb_edt.bmp","5","","","","","","","","","","",""
"image-keyboard-response","97","94468","0.0-6.0-2.45","63f78c9346da47f7f8f3aef9","bdp_trlrn","Sat Apr 08 2023 09:27:08 GMT-0600 (Mountain Daylight Time)","449504","Trustworthy,Untrustworthy","","","","ratingFB","","null","","trustrating_stim/white_00129_931230_fb_edt.bmp","null","","","","","","","","","","",""
"image-keyboard-response","98","95537","0.0-6.0-1.46","63f78c9346da47f7f8f3aef9","bdp_trlrn","Sat Apr 08 2023 09:27:08 GMT-0600 (Mountain Daylight Time)","449504","Trustworthy,Untrustworthy","","","","rating","","958","","trustrating_stim/white_00109_931230_fa_edt.bmp","5","","","","","","","","","","",""
"image-keyboard-response","99","95742","0.0-6.0-2.46","63f78c9346da47f7f8f3aef9","bdp_trlrn","Sat Apr 08 2023 09:27:08 GMT-0600 (Mountain Daylight Time)","449504","Trustworthy,Untrustworthy","","","","ratingFB","","null","","trustrating_stim/white_00109_931230_fa_edt.bmp","null","","","","","","","","","","",""
"image-keyboard-response","100","96921","0.0-6.0-1.47","63f78c9346da47f7f8f3aef9","bdp_trlrn","Sat Apr 08 2023 09:27:08 GMT-0600 (Mountain Daylight Time)","449504","Trustworthy,Untrustworthy","","","","rating","","1070","","trustrating_stim/white_mw066.bmp","5","","","","","","","","","","",""
"image-keyboard-response","101","97123","0.0-6.0-2.47","63f78c9346da47f7f8f3aef9","bdp_trlrn","Sat Apr 08 2023 09:27:08 GMT-0600 (Mountain Daylight Time)","449504","Trustworthy,Untrustworthy","","","","ratingFB","","null","","trustrating_stim/white_mw066.bmp","null","","","","","","","","","","",""
"image-keyboard-response","102","98913","0.0-6.0-1.48","63f78c9346da47f7f8f3aef9","bdp_trlrn","Sat Apr 08 2023 09:27:08 GMT-0600 (Mountain Daylight Time)","449504","Trustworthy,Untrustworthy","","","","rating","","1682","","trustrating_stim/white_mw049.bmp","6","","","","","","","","","","",""
"image-keyboard-response","103","99124","0.0-6.0-2.48","63f78c9346da47f7f8f3aef9","bdp_trlrn","Sat Apr 08 2023 09:27:08 GMT-0600 (Mountain Daylight Time)","449504","Trustworthy,Untrustworthy","","","","ratingFB","","null","","trustrating_stim/white_mw049.bmp","null","","","","","","","","","","",""
"image-keyboard-response","104","99961","0.0-6.0-1.49","63f78c9346da47f7f8f3aef9","bdp_trlrn","Sat Apr 08 2023 09:27:08 GMT-0600 (Mountain Daylight Time)","449504","Trustworthy,Untrustworthy","","","","rating","","729","","trustrating_stim/white_mw035.bmp","5","","","","","","","","","","",""
"image-keyboard-response","105","100165","0.0-6.0-2.49","63f78c9346da47f7f8f3aef9","bdp_trlrn","Sat Apr 08 2023 09:27:08 GMT-0600 (Mountain Daylight Time)","449504","Trustworthy,Untrustworthy","","","","ratingFB","","null","","trustrating_stim/white_mw035.bmp","null","","","","","","","","","","",""
"image-keyboard-response","106","101113","0.0-6.0-1.50","63f78c9346da47f7f8f3aef9","bdp_trlrn","Sat Apr 08 2023 09:27:08 GMT-0600 (Mountain Daylight Time)","449504","Trustworthy,Untrustworthy","","","","rating","","839","","trustrating_stim/white_mw033.bmp","5","","","","","","","","","","",""
"image-keyboard-response","107","101328","0.0-6.0-2.50","63f78c9346da47f7f8f3aef9","bdp_trlrn","Sat Apr 08 2023 09:27:08 GMT-0600 (Mountain Daylight Time)","449504","Trustworthy,Untrustworthy","","","","ratingFB","","null","","trustrating_stim/white_mw033.bmp","null","","","","","","","","","","",""
"image-keyboard-response","108","102577","0.0-6.0-1.51","63f78c9346da47f7f8f3aef9","bdp_trlrn","Sat Apr 08 2023 09:27:08 GMT-0600 (Mountain Daylight Time)","449504","Trustworthy,Untrustworthy","","","","rating","","1140","","trustrating_stim/white_00807_941205_fb_edt.bmp","5","","","","","","","","","","",""
"image-keyboard-response","109","102790","0.0-6.0-2.51","63f78c9346da47f7f8f3aef9","bdp_trlrn","Sat Apr 08 2023 09:27:08 GMT-0600 (Mountain Daylight Time)","449504","Trustworthy,Untrustworthy","","","","ratingFB","","null","","trustrating_stim/white_00807_941205_fb_edt.bmp","null","","","","","","","","","","",""
"image-keyboard-response","110","104138","0.0-6.0-1.52","63f78c9346da47f7f8f3aef9","bdp_trlrn","Sat Apr 08 2023 09:27:08 GMT-0600 (Mountain Daylight Time)","449504","Trustworthy,Untrustworthy","","","","rating","","1238","","trustrating_stim/white_00577_940928_fa_edt.bmp","5","","","","","","","","","","",""
"image-keyboard-response","111","104346","0.0-6.0-2.52","63f78c9346da47f7f8f3aef9","bdp_trlrn","Sat Apr 08 2023 09:27:08 GMT-0600 (Mountain Daylight Time)","449504","Trustworthy,Untrustworthy","","","","ratingFB","","null","","trustrating_stim/white_00577_940928_fa_edt.bmp","null","","","","","","","","","","",""
"image-keyboard-response","112","105353","0.0-6.0-1.53","63f78c9346da47f7f8f3aef9","bdp_trlrn","Sat Apr 08 2023 09:27:08 GMT-0600 (Mountain Daylight Time)","449504","Trustworthy,Untrustworthy","","","","rating","","898","","trustrating_stim/white_mw084.bmp","5","","","","","","","","","","",""
"image-keyboard-response","113","105556","0.0-6.0-2.53","63f78c9346da47f7f8f3aef9","bdp_trlrn","Sat Apr 08 2023 09:27:08 GMT-0600 (Mountain Daylight Time)","449504","Trustworthy,Untrustworthy","","","","ratingFB","","null","","trustrating_stim/white_mw084.bmp","null","","","","","","","","","","",""
"image-keyboard-response","114","106737","0.0-6.0-1.54","63f78c9346da47f7f8f3aef9","bdp_trlrn","Sat Apr 08 2023 09:27:08 GMT-0600 (Mountain Daylight Time)","449504","Trustworthy,Untrustworthy","","","","rating","","1072","","trustrating_stim/white_mw099.bmp","5","","","","","","","","","","",""
"image-keyboard-response","115","106952","0.0-6.0-2.54","63f78c9346da47f7f8f3aef9","bdp_trlrn","Sat Apr 08 2023 09:27:08 GMT-0600 (Mountain Daylight Time)","449504","Trustworthy,Untrustworthy","","","","ratingFB","","null","","trustrating_stim/white_mw099.bmp","null","","","","","","","","","","",""
"image-keyboard-response","116","107931","0.0-6.0-1.55","63f78c9346da47f7f8f3aef9","bdp_trlrn","Sat Apr 08 2023 09:27:08 GMT-0600 (Mountain Daylight Time)","449504","Trustworthy,Untrustworthy","","","","rating","","870","","trustrating_stim/white_mw063.bmp","5","","","","","","","","","","",""
"image-keyboard-response","117","108147","0.0-6.0-2.55","63f78c9346da47f7f8f3aef9","bdp_trlrn","Sat Apr 08 2023 09:27:08 GMT-0600 (Mountain Daylight Time)","449504","Trustworthy,Untrustworthy","","","","ratingFB","","null","","trustrating_stim/white_mw063.bmp","null","","","","","","","","","","",""
"image-keyboard-response","118","109146","0.0-6.0-1.56","63f78c9346da47f7f8f3aef9","bdp_trlrn","Sat Apr 08 2023 09:27:08 GMT-0600 (Mountain Daylight Time)","449504","Trustworthy,Untrustworthy","","","","rating","","888","","trustrating_stim/white_00898_960530_fa_edt.bmp","5","","","","","","","","","","",""
"image-keyboard-response","119","109359","0.0-6.0-2.56","63f78c9346da47f7f8f3aef9","bdp_trlrn","Sat Apr 08 2023 09:27:08 GMT-0600 (Mountain Daylight Time)","449504","Trustworthy,Untrustworthy","","","","ratingFB","","null","","trustrating_stim/white_00898_960530_fa_edt.bmp","null","","","","","","","","","","",""
"image-keyboard-response","120","110585","0.0-6.0-1.57","63f78c9346da47f7f8f3aef9","bdp_trlrn","Sat Apr 08 2023 09:27:08 GMT-0600 (Mountain Daylight Time)","449504","Trustworthy,Untrustworthy","","","","rating","","1115","","trustrating_stim/white_00785_941205_fb_edt.bmp","5","","","","","","","","","","",""
"image-keyboard-response","121","110790","0.0-6.0-2.57","63f78c9346da47f7f8f3aef9","bdp_trlrn","Sat Apr 08 2023 09:27:08 GMT-0600 (Mountain Daylight Time)","449504","Trustworthy,Untrustworthy","","","","ratingFB","","null","","trustrating_stim/white_00785_941205_fb_edt.bmp","null","","","","","","","","","","",""
"image-keyboard-response","122","111617","0.0-6.0-1.58","63f78c9346da47f7f8f3aef9","bdp_trlrn","Sat Apr 08 2023 09:27:08 GMT-0600 (Mountain Daylight Time)","449504","Trustworthy,Untrustworthy","","","","rating","","716","","trustrating_stim/white_00120_931230_fa_edt.bmp","5","","","","","","","","","","",""
"image-keyboard-response","123","111829","0.0-6.0-2.58","63f78c9346da47f7f8f3aef9","bdp_trlrn","Sat Apr 08 2023 09:27:08 GMT-0600 (Mountain Daylight Time)","449504","Trustworthy,Untrustworthy","","","","ratingFB","","null","","trustrating_stim/white_00120_931230_fa_edt.bmp","null","","","","","","","","","","",""
"image-keyboard-response","124","112754","0.0-6.0-1.59","63f78c9346da47f7f8f3aef9","bdp_trlrn","Sat Apr 08 2023 09:27:08 GMT-0600 (Mountain Daylight Time)","449504","Trustworthy,Untrustworthy","","","","rating","","817","","trustrating_stim/white_mw046.bmp","5","","","","","","","","","","",""
"image-keyboard-response","125","112961","0.0-6.0-2.59","63f78c9346da47f7f8f3aef9","bdp_trlrn","Sat Apr 08 2023 09:27:08 GMT-0600 (Mountain Daylight Time)","449504","Trustworthy,Untrustworthy","","","","ratingFB","","null","","trustrating_stim/white_mw046.bmp","null","","","","","","","","","","",""
"instructions","126","114571","0.0-7.0","63f78c9346da47f7f8f3aef9","bdp_trlrn","Sat Apr 08 2023 09:27:08 GMT-0600 (Mountain Daylight Time)","449504","Trustworthy,Untrustworthy","","","","","[{""page_index"":0,""viewing_time"":1501}]","1501","","","","","","","","","","","","","",""
"instructions","127","159490","0.0-8.0","63f78c9346da47f7f8f3aef9","bdp_trlrn","Sat Apr 08 2023 09:27:08 GMT-0600 (Mountain Daylight Time)","449504","Trustworthy,Untrustworthy","","","","","[{""page_index"":0,""viewing_time"":6093},{""page_index"":1,""viewing_time"":3264},{""page_index"":2,""viewing_time"":4160},{""page_index"":3,""viewing_time"":4263},{""page_index"":4,""viewing_time"":5144},{""page_index"":5,""viewing_time"":5873},{""page_index"":6,""viewing_time"":11855},{""page_index"":7,""viewing_time"":4152}]","44805","","","","","","","","","","","","","",""
"html-keyboard-response","128","165074","0.0-9.0","63f78c9346da47f7f8f3aef9","bdp_trlrn","Sat Apr 08 2023 09:27:08 GMT-0600 (Mountain Daylight Time)","449504","Trustworthy,Untrustworthy","","","","","","5582","","<div class='header' style='text-align:left; position: absolute; top: 5%; left: 5%;'><small>Task 2 of 5</small></div><div class='instruxDiv'><p><strong>1) What is the minimum number of points you can choose to send to your partner?</strong></p><p>a) 0</p><p>b) 1</p><p>c) 5</p>","A","","","","","","","","","","",""
"html-keyboard-response","129","168609","0.0-10.0","63f78c9346da47f7f8f3aef9","bdp_trlrn","Sat Apr 08 2023 09:27:08 GMT-0600 (Mountain Daylight Time)","449504","Trustworthy,Untrustworthy","","","","","","3426","","<div class='header' style='text-align:left; position: absolute; top: 5%; left: 5%;'><small>Task 2 of 5</small></div><div class='instruxDiv'><p><strong>1) What is the minimum number of points you can choose to send to your partner?</strong></p><p style='color:#FF0000'>a) 0</p><p>b) 1</p><p>c) 5</p><h3 style='color:#FF0000'>Incorrect!</h3><h3 class='center-content'>The correct response is b).</h3><h3 class='center-content'>The minimum number of points you can choose to send to your partner is 1 point.</h3><p><em>Press SPACEBAR to continue</em></p></div>"," ","","","","","","","","","","",""
"html-keyboard-response","130","173521","0.0-11.0","63f78c9346da47f7f8f3aef9","bdp_trlrn","Sat Apr 08 2023 09:27:08 GMT-0600 (Mountain Daylight Time)","449504","Trustworthy,Untrustworthy","","","","","","4800","","<div class='header' style='text-align:left; position: absolute; top: 5%; left: 5%;'><small>Task 2 of 5</small></div><div class='instruxDiv'><p><strong>2) What is the maximum number of points you can choose to send to your partner?</strong></p><p>a) 8</p><p>b) 5</p><p>c) 3</p>","B","","","","","","","","","","",""
"html-keyboard-response","131","174449","0.0-12.0","63f78c9346da47f7f8f3aef9","bdp_trlrn","Sat Apr 08 2023 09:27:08 GMT-0600 (Mountain Daylight Time)","449504","Trustworthy,Untrustworthy","","","","","","820","","<div class='header' style='text-align:left; position: absolute; top: 5%; left: 5%;'><small>Task 2 of 5</small></div><div class='instruxDiv'><p><strong>2) What is the maximum number of points you can choose to send to your partner?</strong></p><p>a) 8</p><p style='color:#00FF00'>b) 5</p><p>c) 3</p><h3 style='color:#00FF00'>Correct!</h3><h3 class='center-content'>The correct response is b).</h3><h3 class='center-content'>The maximum number of points you can choose to send to your partner is 5 points.</h3><p><em>Press SPACEBAR to continue</em></p></div>"," ","","","","","","","","","","",""
"html-keyboard-response","132","176417","0.0-13.0","63f78c9346da47f7f8f3aef9","bdp_trlrn","Sat Apr 08 2023 09:27:08 GMT-0600 (Mountain Daylight Time)","449504","Trustworthy,Untrustworthy","","","","","","1857","","<div class='header' style='text-align:left; position: absolute; top: 5%; left: 5%;'><small>Task 2 of 5</small></div><div class='instruxDiv'><p><strong>3) What happens to the amount of points you send to your partner?</strong></p><p>a) Nothing</p><p>b) It doubles</p><p>c) It quadruples</p>","C","","","","","","","","","","",""
"html-keyboard-response","133","176857","0.0-14.0","63f78c9346da47f7f8f3aef9","bdp_trlrn","Sat Apr 08 2023 09:27:08 GMT-0600 (Mountain Daylight Time)","449504","Trustworthy,Untrustworthy","","","","","","328","","<div class='header' style='text-align:left; position: absolute; top: 5%; left: 5%;'><small>Task 2 of 5</small></div><div class='instruxDiv'><p><strong>3) What happens to the amount of points you send to your partner?</strong></p><p>a) Nothing</p><p>b) It doubles</p><p style='color:#00FF00'>c) It quadruples</p><h3 style='color:#00FF00'>Correct!</h3><h3 class='center-content'>The correct response is c).</h3><h3 class='center-content'>The amount of points you send to your partner quadruples.</h3><p><em>Press SPACEBAR to continue</em></p></div>"," ","","","","","","","","","","",""
"html-keyboard-response","134","184497","0.0-15.0","63f78c9346da47f7f8f3aef9","bdp_trlrn","Sat Apr 08 2023 09:27:08 GMT-0600 (Mountain Daylight Time)","449504","Trustworthy,Untrustworthy","","","","","","7535","","<div class='header' style='text-align:left; position: absolute; top: 5%; left: 5%;'><small>Task 2 of 5</small></div><div class='instruxDiv'><p><strong>4) If you decided to share 4 out of 5 points with your partner, and they decided to share half of the amount they received with you, how many points would you receive back from them on this round?</strong></p><p>a) 16</p><p>b) 0</p><p>c) 8</p>","C","","","","","","","","","","",""
"html-keyboard-response","135","185033","0.0-16.0","63f78c9346da47f7f8f3aef9","bdp_trlrn","Sat Apr 08 2023 09:27:08 GMT-0600 (Mountain Daylight Time)","449504","Trustworthy,Untrustworthy","","","","","","432","","<div class='header' style='text-align:left; position: absolute; top: 5%; left: 5%;'><small>Task 2 of 5</small></div><div class='instruxDiv'><p><strong>4) If you decided to share 4 out of 5 points with your partner, and they decided to share half of the amount they received with you, how many points would you receive back from them on this round?</strong></p><p>a) 16</p><p>b) 0</p><p style='color:#00FF00'>c) 8</p><h3 style='color:#00FF00'>Correct!</h3><h3 class='center-content'>The correct response is c).</h3><h3 class='center-content'>If you shared 4 out of 5 points with your partner and they decided to share half of the amount they received with you, you would receive 8 points back (i.e. (4 x 4)/2 = 8).</h3><p><em>Press SPACEBAR to continue</em></p></div>"," ","","","","","","","","","","",""
"html-keyboard-response","136","190151","0.0-17.0","63f78c9346da47f7f8f3aef9","bdp_trlrn","Sat Apr 08 2023 09:27:08 GMT-0600 (Mountain Daylight Time)","449504","Trustworthy,Untrustworthy","","","","","","null","","<div class='header' style='text-align:left; position: absolute; top: 5%; left: 5%;'><small>Task 2 of 5</small></div><div class='instruxDiv'><p>Thank you for completing the quiz<p>These are the actual partners you will be interacting with in the next block:<p><div class='tc' align='center'><img class='introPic' src='trustrating_stim/white_00519_940519_fb_edt.bmp'><br><strong>Sebastian</strong></div><div class='bl' align='center'><img class='introPic' src='trustrating_stim/white_mw053.bmp'><br><strong>Sean</strong></div><div class='br' align='center'><img class='introPic' src='trustrating_stim/white_mw066.bmp'><br><strong>Brian</strong></div></div><p>Across <strong>66 rounds</strong> you will interact with each partner <strong>22 times</strong> (in random order).<p style='align:center; color:white'><font <em>Press SPACEBAR to continue</em></p>","null","","","","","","","","","","",""
"instructions","137","194122","0.0-18.0","63f78c9346da47f7f8f3aef9","bdp_trlrn","Sat Apr 08 2023 09:27:08 GMT-0600 (Mountain Daylight Time)","449504","Trustworthy,Untrustworthy","","","","","[{""page_index"":0,""viewing_time"":2129},{""page_index"":1,""viewing_time"":1840}]","3970","","","","","","","","","","","","","",""
"html-keyboard-response","138","196753","0.0-19.0-1.0","63f78c9346da47f7f8f3aef9","bdp_trlrn","Sat Apr 08 2023 09:27:08 GMT-0600 (Mountain Daylight Time)","449504","Trustworthy,Untrustworthy","","","","decision","","2518","","<div class='trialDiv'><img src='trustrating_stim/white_mw066.bmp'><br><font class='baseline'><strong>Brian</strong><p>Choose number of points to send.</font><div class='respPicDiv'><img src='img/responseButtonOffersNo0L.png' class='respPic'></div></div>","5","1","Brian","8","Kept","0.35,0.8","10","0.35","trustrating_stim/white_mw066.bmp","5","5","1"
"html-keyboard-response","139","197008","0.0-19.0-2.0","63f78c9346da47f7f8f3aef9","bdp_trlrn","Sat Apr 08 2023 09:27:08 GMT-0600 (Mountain Daylight Time)","449504","Trustworthy,Untrustworthy","","","","decisionFB","","null","","<div class='trialDiv'><img src='trustrating_stim/white_mw066.bmp'><br><font class='baseline'><strong>Brian</strong><p>Choose number of points to send.</font><div class='respPicDiv'><img src='img/responseButtonOffersNo0L5.png' class='respPic'></div></div>","null","1","Brian","8","Kept","0.35,0.8","10","0.35","trustrating_stim/white_mw066.bmp","5","0","1"
"html-keyboard-response","140","198021","0.0-19.0-3.0","63f78c9346da47f7f8f3aef9","bdp_trlrn","Sat Apr 08 2023 09:27:08 GMT-0600 (Mountain Daylight Time)","449504","Trustworthy,Untrustworthy","","","","feedback","","null","","<div class='trialDiv'><img src='trustrating_stim/white_mw066.bmp'><br><font class='baseline'><strong>Brian</strong><p>Received: <strong>20</strong></font> &nbsp; &nbsp; &nbsp; &nbsp; &nbsp; &nbsp;<font class='negOutcome'>Shared back: <strong>0</strong></font></font><div class='respPicDiv'><img src='img/responseButtonOffersNo0_wht.png' class='respPic'></div></div>","null","1","Brian","8","Kept","0.35,0.8","10","0.35","trustrating_stim/white_mw066.bmp","5","0","1"
"html-keyboard-response","141","199241","0.0-19.0-1.1","63f78c9346da47f7f8f3aef9","bdp_trlrn","Sat Apr 08 2023 09:27:08 GMT-0600 (Mountain Daylight Time)","449504","Trustworthy,Untrustworthy","","","","decision","","1217","","<div class='trialDiv'><img src='trustrating_stim/white_mw053.bmp'><br><font class='baseline'><strong>Sean</strong><p>Choose number of points to send.</font><div class='respPicDiv'><img src='img/responseButtonOffersNo0L.png' class='respPic'></div></div>","5","1","Sean","4","Shared","0.65,0.2","10","0.65","trustrating_stim/white_mw053.bmp","5","5","2"
"html-keyboard-response","142","199496","0.0-19.0-2.1","63f78c9346da47f7f8f3aef9","bdp_trlrn","Sat Apr 08 2023 09:27:08 GMT-0600 (Mountain Daylight Time)","449504","Trustworthy,Untrustworthy","","","","decisionFB","","null","","<div class='trialDiv'><img src='trustrating_stim/white_mw053.bmp'><br><font class='baseline'><strong>Sean</strong><p>Choose number of points to send.</font><div class='respPicDiv'><img src='img/responseButtonOffersNo0L5.png' class='respPic'></div></div>","null","1","Sean","4","Shared","0.65,0.2","10","0.65","trustrating_stim/white_mw053.bmp","5","0","2"
"html-keyboard-response","143","200504","0.0-19.0-3.1","63f78c9346da47f7f8f3aef9","bdp_trlrn","Sat Apr 08 2023 09:27:08 GMT-0600 (Mountain Daylight Time)","449504","Trustworthy,Untrustworthy","","","","feedback","","null","","<div class='trialDiv'><img src='trustrating_stim/white_mw053.bmp'><br><font class='baseline'><strong>Sean</strong><p>Received: <strong>20</strong></font> &nbsp; &nbsp; &nbsp; &nbsp; &nbsp; &nbsp;<font class='posOutcome'>Shared back: <strong>10</strong></font></font><div class='respPicDiv'><img src='img/responseButtonOffersNo0_wht.png' class='respPic'></div></div>","null","1","Sean","4","Shared","0.65,0.2","10","0.65","trustrating_stim/white_mw053.bmp","5","10","2"
"html-keyboard-response","144","204012","0.0-19.0-1.2","63f78c9346da47f7f8f3aef9","bdp_trlrn","Sat Apr 08 2023 09:27:08 GMT-0600 (Mountain Daylight Time)","449504","Trustworthy,Untrustworthy","","","","decision","","3505","","<div class='trialDiv'><img src='trustrating_stim/white_00519_940519_fb_edt.bmp'><br><font class='baseline'><strong>Sebastian</strong><p>Choose number of points to send.</font><div class='respPicDiv'><img src='img/responseButtonOffersNo0L.png' class='respPic'></div></div>","5","1","Sebastian","0","Shared","0.2,0.8","9","0.2","trustrating_stim/white_00519_940519_fb_edt.bmp","4","15","3"
"html-keyboard-response","145","204264","0.0-19.0-2.2","63f78c9346da47f7f8f3aef9","bdp_trlrn","Sat Apr 08 2023 09:27:08 GMT-0600 (Mountain Daylight Time)","449504","Trustworthy,Untrustworthy","","","","decisionFB","","null","","<div class='trialDiv'><img src='trustrating_stim/white_00519_940519_fb_edt.bmp'><br><font class='baseline'><strong>Sebastian</strong><p>Choose number of points to send.</font><div class='respPicDiv'><img src='img/responseButtonOffersNo0L5.png' class='respPic'></div></div>","null","1","Sebastian","0","Shared","0.2,0.8","9","0.2","trustrating_stim/white_00519_940519_fb_edt.bmp","4","10","3"
"html-keyboard-response","146","205276","0.0-19.0-3.2","63f78c9346da47f7f8f3aef9","bdp_trlrn","Sat Apr 08 2023 09:27:08 GMT-0600 (Mountain Daylight Time)","449504","Trustworthy,Untrustworthy","","","","feedback","","null","","<div class='trialDiv'><img src='trustrating_stim/white_00519_940519_fb_edt.bmp'><br><font class='baseline'><strong>Sebastian</strong><p>Received: <strong>20</strong></font> &nbsp; &nbsp; &nbsp; &nbsp; &nbsp; &nbsp;<font class='posOutcome'>Shared back: <strong>10</strong></font></font><div class='respPicDiv'><img src='img/responseButtonOffersNo0_wht.png' class='respPic'></div></div>","null","1","Sebastian","0","Shared","0.2,0.8","9","0.2","trustrating_stim/white_00519_940519_fb_edt.bmp","4","20","3"
"html-keyboard-response","147","207025","0.0-19.0-1.3","63f78c9346da47f7f8f3aef9","bdp_trlrn","Sat Apr 08 2023 09:27:08 GMT-0600 (Mountain Daylight Time)","449504","Trustworthy,Untrustworthy","","","","decision","","1748","","<div class='trialDiv'><img src='trustrating_stim/white_mw066.bmp'><br><font class='baseline'><strong>Brian</strong><p>Choose number of points to send.</font><div class='respPicDiv'><img src='img/responseButtonOffersNo0L.png' class='respPic'></div></div>","1","2","Brian","8","Kept","0.35,0.8","10","0.35","trustrating_stim/white_mw066.bmp","5","25","4"
"html-keyboard-response","148","207277","0.0-19.0-2.3","63f78c9346da47f7f8f3aef9","bdp_trlrn","Sat Apr 08 2023 09:27:08 GMT-0600 (Mountain Daylight Time)","449504","Trustworthy,Untrustworthy","","","","decisionFB","","null","","<div class='trialDiv'><img src='trustrating_stim/white_mw066.bmp'><br><font class='baseline'><strong>Brian</strong><p>Choose number of points to send.</font><div class='respPicDiv'><img src='img/responseButtonOffersNo0L1.png' class='respPic'></div></div>","null","2","Brian","8","Kept","0.35,0.8","10","0.35","trustrating_stim/white_mw066.bmp","5","24","4"
"html-keyboard-response","149","208289","0.0-19.0-3.3","63f78c9346da47f7f8f3aef9","bdp_trlrn","Sat Apr 08 2023 09:27:08 GMT-0600 (Mountain Daylight Time)","449504","Trustworthy,Untrustworthy","","","","feedback","","null","","<div class='trialDiv'><img src='trustrating_stim/white_mw066.bmp'><br><font class='baseline'><strong>Brian</strong><p>Received: <strong>4</strong></font> &nbsp; &nbsp; &nbsp; &nbsp; &nbsp; &nbsp;<font class='negOutcome'>Shared back: <strong>0</strong></font></font><div class='respPicDiv'><img src='img/responseButtonOffersNo0_wht.png' class='respPic'></div></div>","null","2","Brian","8","Kept","0.35,0.8","10","0.35","trustrating_stim/white_mw066.bmp","5","24","4"
"html-keyboard-response","150","208777","0.0-19.0-1.4","63f78c9346da47f7f8f3aef9","bdp_trlrn","Sat Apr 08 2023 09:27:08 GMT-0600 (Mountain Daylight Time)","449504","Trustworthy,Untrustworthy","","","","decision","","487","","<div class='trialDiv'><img src='trustrating_stim/white_mw053.bmp'><br><font class='baseline'><strong>Sean</strong><p>Choose number of points to send.</font><div class='respPicDiv'><img src='img/responseButtonOffersNo0L.png' class='respPic'></div></div>","5","2","Sean","4","Shared","0.65,0.2","10","0.65","trustrating_stim/white_mw053.bmp","5","29","5"
"html-keyboard-response","151","209038","0.0-19.0-2.4","63f78c9346da47f7f8f3aef9","bdp_trlrn","Sat Apr 08 2023 09:27:08 GMT-0600 (Mountain Daylight Time)","449504","Trustworthy,Untrustworthy","","","","decisionFB","","null","","<div class='trialDiv'><img src='trustrating_stim/white_mw053.bmp'><br><font class='baseline'><strong>Sean</strong><p>Choose number of points to send.</font><div class='respPicDiv'><img src='img/responseButtonOffersNo0L5.png' class='respPic'></div></div>","null","2","Sean","4","Shared","0.65,0.2","10","0.65","trustrating_stim/white_mw053.bmp","5","24","5"
"html-keyboard-response","152","210048","0.0-19.0-3.4","63f78c9346da47f7f8f3aef9","bdp_trlrn","Sat Apr 08 2023 09:27:08 GMT-0600 (Mountain Daylight Time)","449504","Trustworthy,Untrustworthy","","","","feedback","","null","","<div class='trialDiv'><img src='trustrating_stim/white_mw053.bmp'><br><font class='baseline'><strong>Sean</strong><p>Received: <strong>20</strong></font> &nbsp; &nbsp; &nbsp; &nbsp; &nbsp; &nbsp;<font class='posOutcome'>Shared back: <strong>10</strong></font></font><div class='respPicDiv'><img src='img/responseButtonOffersNo0_wht.png' class='respPic'></div></div>","null","2","Sean","4","Shared","0.65,0.2","10","0.65","trustrating_stim/white_mw053.bmp","5","34","5"
"html-keyboard-response","153","210457","0.0-19.0-1.5","63f78c9346da47f7f8f3aef9","bdp_trlrn","Sat Apr 08 2023 09:27:08 GMT-0600 (Mountain Daylight Time)","449504","Trustworthy,Untrustworthy","","","","decision","","406","","<div class='trialDiv'><img src='trustrating_stim/white_00519_940519_fb_edt.bmp'><br><font class='baseline'><strong>Sebastian</strong><p>Choose number of points to send.</font><div class='respPicDiv'><img src='img/responseButtonOffersNo0L.png' class='respPic'></div></div>","5","2","Sebastian","0","Kept","0.2,0.8","9","0.2","trustrating_stim/white_00519_940519_fb_edt.bmp","4","39","6"
"html-keyboard-response","154","210711","0.0-19.0-2.5","63f78c9346da47f7f8f3aef9","bdp_trlrn","Sat Apr 08 2023 09:27:08 GMT-0600 (Mountain Daylight Time)","449504","Trustworthy,Untrustworthy","","","","decisionFB","","null","","<div class='trialDiv'><img src='trustrating_stim/white_00519_940519_fb_edt.bmp'><br><font class='baseline'><strong>Sebastian</strong><p>Choose number of points to send.</font><div class='respPicDiv'><img src='img/responseButtonOffersNo0L5.png' class='respPic'></div></div>","null","2","Sebastian","0","Kept","0.2,0.8","9","0.2","trustrating_stim/white_00519_940519_fb_edt.bmp","4","34","6"
"html-keyboard-response","155","211723","0.0-19.0-3.5","63f78c9346da47f7f8f3aef9","bdp_trlrn","Sat Apr 08 2023 09:27:08 GMT-0600 (Mountain Daylight Time)","449504","Trustworthy,Untrustworthy","","","","feedback","","null","","<div class='trialDiv'><img src='trustrating_stim/white_00519_940519_fb_edt.bmp'><br><font class='baseline'><strong>Sebastian</strong><p>Received: <strong>20</strong></font> &nbsp; &nbsp; &nbsp; &nbsp; &nbsp; &nbsp;<font class='negOutcome'>Shared back: <strong>0</strong></font></font><div class='respPicDiv'><img src='img/responseButtonOffersNo0_wht.png' class='respPic'></div></div>","null","2","Sebastian","0","Kept","0.2,0.8","9","0.2","trustrating_stim/white_00519_940519_fb_edt.bmp","4","34","6"
"html-keyboard-response","156","212760","0.0-19.0-1.6","63f78c9346da47f7f8f3aef9","bdp_trlrn","Sat Apr 08 2023 09:27:08 GMT-0600 (Mountain Daylight Time)","449504","Trustworthy,Untrustworthy","","","","decision","","1035","","<div class='trialDiv'><img src='trustrating_stim/white_mw066.bmp'><br><font class='baseline'><strong>Brian</strong><p>Choose number of points to send.</font><div class='respPicDiv'><img src='img/responseButtonOffersNo0L.png' class='respPic'></div></div>","1","3","Brian","8","Kept","0.35,0.8","10","0.35","trustrating_stim/white_mw066.bmp","5","39","7"
"html-keyboard-response","157","213027","0.0-19.0-2.6","63f78c9346da47f7f8f3aef9","bdp_trlrn","Sat Apr 08 2023 09:27:08 GMT-0600 (Mountain Daylight Time)","449504","Trustworthy,Untrustworthy","","","","decisionFB","","null","","<div class='trialDiv'><img src='trustrating_stim/white_mw066.bmp'><br><font class='baseline'><strong>Brian</strong><p>Choose number of points to send.</font><div class='respPicDiv'><img src='img/responseButtonOffersNo0L1.png' class='respPic'></div></div>","null","3","Brian","8","Kept","0.35,0.8","10","0.35","trustrating_stim/white_mw066.bmp","5","38","7"
"html-keyboard-response","158","214040","0.0-19.0-3.6","63f78c9346da47f7f8f3aef9","bdp_trlrn","Sat Apr 08 2023 09:27:08 GMT-0600 (Mountain Daylight Time)","449504","Trustworthy,Untrustworthy","","","","feedback","","null","","<div class='trialDiv'><img src='trustrating_stim/white_mw066.bmp'><br><font class='baseline'><strong>Brian</strong><p>Received: <strong>4</strong></font> &nbsp; &nbsp; &nbsp; &nbsp; &nbsp; &nbsp;<font class='negOutcome'>Shared back: <strong>0</strong></font></font><div class='respPicDiv'><img src='img/responseButtonOffersNo0_wht.png' class='respPic'></div></div>","null","3","Brian","8","Kept","0.35,0.8","10","0.35","trustrating_stim/white_mw066.bmp","5","38","7"
"html-keyboard-response","159","215066","0.0-19.0-1.7","63f78c9346da47f7f8f3aef9","bdp_trlrn","Sat Apr 08 2023 09:27:08 GMT-0600 (Mountain Daylight Time)","449504","Trustworthy,Untrustworthy","","","","decision","","1024","","<div class='trialDiv'><img src='trustrating_stim/white_00519_940519_fb_edt.bmp'><br><font class='baseline'><strong>Sebastian</strong><p>Choose number of points to send.</font><div class='respPicDiv'><img src='img/responseButtonOffersNo0L.png' class='respPic'></div></div>","1","3","Sebastian","0","Kept","0.2,0.8","9","0.2","trustrating_stim/white_00519_940519_fb_edt.bmp","4","43","8"
"html-keyboard-response","160","215329","0.0-19.0-2.7","63f78c9346da47f7f8f3aef9","bdp_trlrn","Sat Apr 08 2023 09:27:08 GMT-0600 (Mountain Daylight Time)","449504","Trustworthy,Untrustworthy","","","","decisionFB","","null","","<div class='trialDiv'><img src='trustrating_stim/white_00519_940519_fb_edt.bmp'><br><font class='baseline'><strong>Sebastian</strong><p>Choose number of points to send.</font><div class='respPicDiv'><img src='img/responseButtonOffersNo0L1.png' class='respPic'></div></div>","null","3","Sebastian","0","Kept","0.2,0.8","9","0.2","trustrating_stim/white_00519_940519_fb_edt.bmp","4","42","8"
"html-keyboard-response","161","216339","0.0-19.0-3.7","63f78c9346da47f7f8f3aef9","bdp_trlrn","Sat Apr 08 2023 09:27:08 GMT-0600 (Mountain Daylight Time)","449504","Trustworthy,Untrustworthy","","","","feedback","","null","","<div class='trialDiv'><img src='trustrating_stim/white_00519_940519_fb_edt.bmp'><br><font class='baseline'><strong>Sebastian</strong><p>Received: <strong>4</strong></font> &nbsp; &nbsp; &nbsp; &nbsp; &nbsp; &nbsp;<font class='negOutcome'>Shared back: <strong>0</strong></font></font><div class='respPicDiv'><img src='img/responseButtonOffersNo0_wht.png' class='respPic'></div></div>","null","3","Sebastian","0","Kept","0.2,0.8","9","0.2","trustrating_stim/white_00519_940519_fb_edt.bmp","4","42","8"
"html-keyboard-response","162","216897","0.0-19.0-1.8","63f78c9346da47f7f8f3aef9","bdp_trlrn","Sat Apr 08 2023 09:27:08 GMT-0600 (Mountain Daylight Time)","449504","Trustworthy,Untrustworthy","","","","decision","","555","","<div class='trialDiv'><img src='trustrating_stim/white_mw053.bmp'><br><font class='baseline'><strong>Sean</strong><p>Choose number of points to send.</font><div class='respPicDiv'><img src='img/responseButtonOffersNo0L.png' class='respPic'></div></div>","5","3","Sean","4","Shared","0.65,0.2","10","0.65","trustrating_stim/white_mw053.bmp","5","47","9"
"html-keyboard-response","163","217163","0.0-19.0-2.8","63f78c9346da47f7f8f3aef9","bdp_trlrn","Sat Apr 08 2023 09:27:08 GMT-0600 (Mountain Daylight Time)","449504","Trustworthy,Untrustworthy","","","","decisionFB","","null","","<div class='trialDiv'><img src='trustrating_stim/white_mw053.bmp'><br><font class='baseline'><strong>Sean</strong><p>Choose number of points to send.</font><div class='respPicDiv'><img src='img/responseButtonOffersNo0L5.png' class='respPic'></div></div>","null","3","Sean","4","Shared","0.65,0.2","10","0.65","trustrating_stim/white_mw053.bmp","5","42","9"
"html-keyboard-response","164","218168","0.0-19.0-3.8","63f78c9346da47f7f8f3aef9","bdp_trlrn","Sat Apr 08 2023 09:27:08 GMT-0600 (Mountain Daylight Time)","449504","Trustworthy,Untrustworthy","","","","feedback","","null","","<div class='trialDiv'><img src='trustrating_stim/white_mw053.bmp'><br><font class='baseline'><strong>Sean</strong><p>Received: <strong>20</strong></font> &nbsp; &nbsp; &nbsp; &nbsp; &nbsp; &nbsp;<font class='posOutcome'>Shared back: <strong>10</strong></font></font><div class='respPicDiv'><img src='img/responseButtonOffersNo0_wht.png' class='respPic'></div></div>","null","3","Sean","4","Shared","0.65,0.2","10","0.65","trustrating_stim/white_mw053.bmp","5","52","9"
"html-keyboard-response","165","218849","0.0-19.0-1.9","63f78c9346da47f7f8f3aef9","bdp_trlrn","Sat Apr 08 2023 09:27:08 GMT-0600 (Mountain Daylight Time)","449504","Trustworthy,Untrustworthy","","","","decision","","679","","<div class='trialDiv'><img src='trustrating_stim/white_00519_940519_fb_edt.bmp'><br><font class='baseline'><strong>Sebastian</strong><p>Choose number of points to send.</font><div class='respPicDiv'><img src='img/responseButtonOffersNo0L.png' class='respPic'></div></div>","1","4","Sebastian","0","Kept","0.2,0.8","9","0.2","trustrating_stim/white_00519_940519_fb_edt.bmp","4","57","10"
"html-keyboard-response","166","219103","0.0-19.0-2.9","63f78c9346da47f7f8f3aef9","bdp_trlrn","Sat Apr 08 2023 09:27:08 GMT-0600 (Mountain Daylight Time)","449504","Trustworthy,Untrustworthy","","","","decisionFB","","null","","<div class='trialDiv'><img src='trustrating_stim/white_00519_940519_fb_edt.bmp'><br><font class='baseline'><strong>Sebastian</strong><p>Choose number of points to send.</font><div class='respPicDiv'><img src='img/responseButtonOffersNo0L1.png' class='respPic'></div></div>","null","4","Sebastian","0","Kept","0.2,0.8","9","0.2","trustrating_stim/white_00519_940519_fb_edt.bmp","4","56","10"
"html-keyboard-response","167","220113","0.0-19.0-3.9","63f78c9346da47f7f8f3aef9","bdp_trlrn","Sat Apr 08 2023 09:27:08 GMT-0600 (Mountain Daylight Time)","449504","Trustworthy,Untrustworthy","","","","feedback","","null","","<div class='trialDiv'><img src='trustrating_stim/white_00519_940519_fb_edt.bmp'><br><font class='baseline'><strong>Sebastian</strong><p>Received: <strong>4</strong></font> &nbsp; &nbsp; &nbsp; &nbsp; &nbsp; &nbsp;<font class='negOutcome'>Shared back: <strong>0</strong></font></font><div class='respPicDiv'><img src='img/responseButtonOffersNo0_wht.png' class='respPic'></div></div>","null","4","Sebastian","0","Kept","0.2,0.8","9","0.2","trustrating_stim/white_00519_940519_fb_edt.bmp","4","56","10"
"html-keyboard-response","168","220865","0.0-19.0-1.10","63f78c9346da47f7f8f3aef9","bdp_trlrn","Sat Apr 08 2023 09:27:08 GMT-0600 (Mountain Daylight Time)","449504","Trustworthy,Untrustworthy","","","","decision","","752","","<div class='trialDiv'><img src='trustrating_stim/white_mw053.bmp'><br><font class='baseline'><strong>Sean</strong><p>Choose number of points to send.</font><div class='respPicDiv'><img src='img/responseButtonOffersNo0L.png' class='respPic'></div></div>","5","4","Sean","4","Shared","0.65,0.2","10","0.65","trustrating_stim/white_mw053.bmp","5","61","11"
"html-keyboard-response","169","221122","0.0-19.0-2.10","63f78c9346da47f7f8f3aef9","bdp_trlrn","Sat Apr 08 2023 09:27:08 GMT-0600 (Mountain Daylight Time)","449504","Trustworthy,Untrustworthy","","","","decisionFB","","null","","<div class='trialDiv'><img src='trustrating_stim/white_mw053.bmp'><br><font class='baseline'><strong>Sean</strong><p>Choose number of points to send.</font><div class='respPicDiv'><img src='img/responseButtonOffersNo0L5.png' class='respPic'></div></div>","null","4","Sean","4","Shared","0.65,0.2","10","0.65","trustrating_stim/white_mw053.bmp","5","56","11"
"html-keyboard-response","170","222131","0.0-19.0-3.10","63f78c9346da47f7f8f3aef9","bdp_trlrn","Sat Apr 08 2023 09:27:08 GMT-0600 (Mountain Daylight Time)","449504","Trustworthy,Untrustworthy","","","","feedback","","null","","<div class='trialDiv'><img src='trustrating_stim/white_mw053.bmp'><br><font class='baseline'><strong>Sean</strong><p>Received: <strong>20</strong></font> &nbsp; &nbsp; &nbsp; &nbsp; &nbsp; &nbsp;<font class='posOutcome'>Shared back: <strong>10</strong></font></font><div class='respPicDiv'><img src='img/responseButtonOffersNo0_wht.png' class='respPic'></div></div>","null","4","Sean","4","Shared","0.65,0.2","10","0.65","trustrating_stim/white_mw053.bmp","5","66","11"
"html-keyboard-response","171","222569","0.0-19.0-1.11","63f78c9346da47f7f8f3aef9","bdp_trlrn","Sat Apr 08 2023 09:27:08 GMT-0600 (Mountain Daylight Time)","449504","Trustworthy,Untrustworthy","","","","decision","","436","","<div class='trialDiv'><img src='trustrating_stim/white_mw066.bmp'><br><font class='baseline'><strong>Brian</strong><p>Choose number of points to send.</font><div class='respPicDiv'><img src='img/responseButtonOffersNo0L.png' class='respPic'></div></div>","1","4","Brian","8","Shared","0.35,0.8","10","0.35","trustrating_stim/white_mw066.bmp","5","71","12"
"html-keyboard-response","172","222830","0.0-19.0-2.11","63f78c9346da47f7f8f3aef9","bdp_trlrn","Sat Apr 08 2023 09:27:08 GMT-0600 (Mountain Daylight Time)","449504","Trustworthy,Untrustworthy","","","","decisionFB","","null","","<div class='trialDiv'><img src='trustrating_stim/white_mw066.bmp'><br><font class='baseline'><strong>Brian</strong><p>Choose number of points to send.</font><div class='respPicDiv'><img src='img/responseButtonOffersNo0L1.png' class='respPic'></div></div>","null","4","Brian","8","Shared","0.35,0.8","10","0.35","trustrating_stim/white_mw066.bmp","5","70","12"
"html-keyboard-response","173","223839","0.0-19.0-3.11","63f78c9346da47f7f8f3aef9","bdp_trlrn","Sat Apr 08 2023 09:27:08 GMT-0600 (Mountain Daylight Time)","449504","Trustworthy,Untrustworthy","","","","feedback","","null","","<div class='trialDiv'><img src='trustrating_stim/white_mw066.bmp'><br><font class='baseline'><strong>Brian</strong><p>Received: <strong>4</strong></font> &nbsp; &nbsp; &nbsp; &nbsp; &nbsp; &nbsp;<font class='posOutcome'>Shared back: <strong>2</strong></font></font><div class='respPicDiv'><img src='img/responseButtonOffersNo0_wht.png' class='respPic'></div></div>","null","4","Brian","8","Shared","0.35,0.8","10","0.35","trustrating_stim/white_mw066.bmp","5","72","12"
"html-keyboard-response","174","224242","0.0-19.0-1.12","63f78c9346da47f7f8f3aef9","bdp_trlrn","Sat Apr 08 2023 09:27:08 GMT-0600 (Mountain Daylight Time)","449504","Trustworthy,Untrustworthy","","","","decision","","401","","<div class='trialDiv'><img src='trustrating_stim/white_mw053.bmp'><br><font class='baseline'><strong>Sean</strong><p>Choose number of points to send.</font><div class='respPicDiv'><img src='img/responseButtonOffersNo0L.png' class='respPic'></div></div>","5","5","Sean","4","Shared","0.65,0.2","10","0.65","trustrating_stim/white_mw053.bmp","5","77","13"
"html-keyboard-response","175","224508","0.0-19.0-2.12","63f78c9346da47f7f8f3aef9","bdp_trlrn","Sat Apr 08 2023 09:27:08 GMT-0600 (Mountain Daylight Time)","449504","Trustworthy,Untrustworthy","","","","decisionFB","","null","","<div class='trialDiv'><img src='trustrating_stim/white_mw053.bmp'><br><font class='baseline'><strong>Sean</strong><p>Choose number of points to send.</font><div class='respPicDiv'><img src='img/responseButtonOffersNo0L5.png' class='respPic'></div></div>","null","5","Sean","4","Shared","0.65,0.2","10","0.65","trustrating_stim/white_mw053.bmp","5","72","13"
"html-keyboard-response","176","225520","0.0-19.0-3.12","63f78c9346da47f7f8f3aef9","bdp_trlrn","Sat Apr 08 2023 09:27:08 GMT-0600 (Mountain Daylight Time)","449504","Trustworthy,Untrustworthy","","","","feedback","","null","","<div class='trialDiv'><img src='trustrating_stim/white_mw053.bmp'><br><font class='baseline'><strong>Sean</strong><p>Received: <strong>20</strong></font> &nbsp; &nbsp; &nbsp; &nbsp; &nbsp; &nbsp;<font class='posOutcome'>Shared back: <strong>10</strong></font></font><div class='respPicDiv'><img src='img/responseButtonOffersNo0_wht.png' class='respPic'></div></div>","null","5","Sean","4","Shared","0.65,0.2","10","0.65","trustrating_stim/white_mw053.bmp","5","82","13"
"html-keyboard-response","177","226065","0.0-19.0-1.13","63f78c9346da47f7f8f3aef9","bdp_trlrn","Sat Apr 08 2023 09:27:08 GMT-0600 (Mountain Daylight Time)","449504","Trustworthy,Untrustworthy","","","","decision","","543","","<div class='trialDiv'><img src='trustrating_stim/white_00519_940519_fb_edt.bmp'><br><font class='baseline'><strong>Sebastian</strong><p>Choose number of points to send.</font><div class='respPicDiv'><img src='img/responseButtonOffersNo0L.png' class='respPic'></div></div>","1","5","Sebastian","0","Kept","0.2,0.8","9","0.2","trustrating_stim/white_00519_940519_fb_edt.bmp","4","87","14"
"html-keyboard-response","178","226327","0.0-19.0-2.13","63f78c9346da47f7f8f3aef9","bdp_trlrn","Sat Apr 08 2023 09:27:08 GMT-0600 (Mountain Daylight Time)","449504","Trustworthy,Untrustworthy","","","","decisionFB","","null","","<div class='trialDiv'><img src='trustrating_stim/white_00519_940519_fb_edt.bmp'><br><font class='baseline'><strong>Sebastian</strong><p>Choose number of points to send.</font><div class='respPicDiv'><img src='img/responseButtonOffersNo0L1.png' class='respPic'></div></div>","null","5","Sebastian","0","Kept","0.2,0.8","9","0.2","trustrating_stim/white_00519_940519_fb_edt.bmp","4","86","14"
"html-keyboard-response","179","227338","0.0-19.0-3.13","63f78c9346da47f7f8f3aef9","bdp_trlrn","Sat Apr 08 2023 09:27:08 GMT-0600 (Mountain Daylight Time)","449504","Trustworthy,Untrustworthy","","","","feedback","","null","","<div class='trialDiv'><img src='trustrating_stim/white_00519_940519_fb_edt.bmp'><br><font class='baseline'><strong>Sebastian</strong><p>Received: <strong>4</strong></font> &nbsp; &nbsp; &nbsp; &nbsp; &nbsp; &nbsp;<font class='negOutcome'>Shared back: <strong>0</strong></font></font><div class='respPicDiv'><img src='img/responseButtonOffersNo0_wht.png' class='respPic'></div></div>","null","5","Sebastian","0","Kept","0.2,0.8","9","0.2","trustrating_stim/white_00519_940519_fb_edt.bmp","4","86","14"
"html-keyboard-response","180","227915","0.0-19.0-1.14","63f78c9346da47f7f8f3aef9","bdp_trlrn","Sat Apr 08 2023 09:27:08 GMT-0600 (Mountain Daylight Time)","449504","Trustworthy,Untrustworthy","","","","decision","","576","","<div class='trialDiv'><img src='trustrating_stim/white_mw066.bmp'><br><font class='baseline'><strong>Brian</strong><p>Choose number of points to send.</font><div class='respPicDiv'><img src='img/responseButtonOffersNo0L.png' class='respPic'></div></div>","1","5","Brian","8","Kept","0.35,0.8","10","0.35","trustrating_stim/white_mw066.bmp","5","91","15"
"html-keyboard-response","181","228174","0.0-19.0-2.14","63f78c9346da47f7f8f3aef9","bdp_trlrn","Sat Apr 08 2023 09:27:08 GMT-0600 (Mountain Daylight Time)","449504","Trustworthy,Untrustworthy","","","","decisionFB","","null","","<div class='trialDiv'><img src='trustrating_stim/white_mw066.bmp'><br><font class='baseline'><strong>Brian</strong><p>Choose number of points to send.</font><div class='respPicDiv'><img src='img/responseButtonOffersNo0L1.png' class='respPic'></div></div>","null","5","Brian","8","Kept","0.35,0.8","10","0.35","trustrating_stim/white_mw066.bmp","5","90","15"
"html-keyboard-response","182","229182","0.0-19.0-3.14","63f78c9346da47f7f8f3aef9","bdp_trlrn","Sat Apr 08 2023 09:27:08 GMT-0600 (Mountain Daylight Time)","449504","Trustworthy,Untrustworthy","","","","feedback","","null","","<div class='trialDiv'><img src='trustrating_stim/white_mw066.bmp'><br><font class='baseline'><strong>Brian</strong><p>Received: <strong>4</strong></font> &nbsp; &nbsp; &nbsp; &nbsp; &nbsp; &nbsp;<font class='negOutcome'>Shared back: <strong>0</strong></font></font><div class='respPicDiv'><img src='img/responseButtonOffersNo0_wht.png' class='respPic'></div></div>","null","5","Brian","8","Kept","0.35,0.8","10","0.35","trustrating_stim/white_mw066.bmp","5","90","15"
"html-keyboard-response","183","229721","0.0-19.0-1.15","63f78c9346da47f7f8f3aef9","bdp_trlrn","Sat Apr 08 2023 09:27:08 GMT-0600 (Mountain Daylight Time)","449504","Trustworthy,Untrustworthy","","","","decision","","538","","<div class='trialDiv'><img src='trustrating_stim/white_00519_940519_fb_edt.bmp'><br><font class='baseline'><strong>Sebastian</strong><p>Choose number of points to send.</font><div class='respPicDiv'><img src='img/responseButtonOffersNo0L.png' class='respPic'></div></div>","1","6","Sebastian","0","Kept","0.2,0.8","9","0.2","trustrating_stim/white_00519_940519_fb_edt.bmp","4","95","16"
"html-keyboard-response","184","229974","0.0-19.0-2.15","63f78c9346da47f7f8f3aef9","bdp_trlrn","Sat Apr 08 2023 09:27:08 GMT-0600 (Mountain Daylight Time)","449504","Trustworthy,Untrustworthy","","","","decisionFB","","null","","<div class='trialDiv'><img src='trustrating_stim/white_00519_940519_fb_edt.bmp'><br><font class='baseline'><strong>Sebastian</strong><p>Choose number of points to send.</font><div class='respPicDiv'><img src='img/responseButtonOffersNo0L1.png' class='respPic'></div></div>","null","6","Sebastian","0","Kept","0.2,0.8","9","0.2","trustrating_stim/white_00519_940519_fb_edt.bmp","4","94","16"
"html-keyboard-response","185","230984","0.0-19.0-3.15","63f78c9346da47f7f8f3aef9","bdp_trlrn","Sat Apr 08 2023 09:27:08 GMT-0600 (Mountain Daylight Time)","449504","Trustworthy,Untrustworthy","","","","feedback","","null","","<div class='trialDiv'><img src='trustrating_stim/white_00519_940519_fb_edt.bmp'><br><font class='baseline'><strong>Sebastian</strong><p>Received: <strong>4</strong></font> &nbsp; &nbsp; &nbsp; &nbsp; &nbsp; &nbsp;<font class='negOutcome'>Shared back: <strong>0</strong></font></font><div class='respPicDiv'><img src='img/responseButtonOffersNo0_wht.png' class='respPic'></div></div>","null","6","Sebastian","0","Kept","0.2,0.8","9","0.2","trustrating_stim/white_00519_940519_fb_edt.bmp","4","94","16"
"html-keyboard-response","186","231377","0.0-19.0-1.16","63f78c9346da47f7f8f3aef9","bdp_trlrn","Sat Apr 08 2023 09:27:08 GMT-0600 (Mountain Daylight Time)","449504","Trustworthy,Untrustworthy","","","","decision","","391","","<div class='trialDiv'><img src='trustrating_stim/white_mw053.bmp'><br><font class='baseline'><strong>Sean</strong><p>Choose number of points to send.</font><div class='respPicDiv'><img src='img/responseButtonOffersNo0L.png' class='respPic'></div></div>","5","6","Sean","4","Shared","0.65,0.2","10","0.65","trustrating_stim/white_mw053.bmp","5","99","17"
"html-keyboard-response","187","231637","0.0-19.0-2.16","63f78c9346da47f7f8f3aef9","bdp_trlrn","Sat Apr 08 2023 09:27:08 GMT-0600 (Mountain Daylight Time)","449504","Trustworthy,Untrustworthy","","","","decisionFB","","null","","<div class='trialDiv'><img src='trustrating_stim/white_mw053.bmp'><br><font class='baseline'><strong>Sean</strong><p>Choose number of points to send.</font><div class='respPicDiv'><img src='img/responseButtonOffersNo0L5.png' class='respPic'></div></div>","null","6","Sean","4","Shared","0.65,0.2","10","0.65","trustrating_stim/white_mw053.bmp","5","94","17"
"html-keyboard-response","188","232649","0.0-19.0-3.16","63f78c9346da47f7f8f3aef9","bdp_trlrn","Sat Apr 08 2023 09:27:08 GMT-0600 (Mountain Daylight Time)","449504","Trustworthy,Untrustworthy","","","","feedback","","null","","<div class='trialDiv'><img src='trustrating_stim/white_mw053.bmp'><br><font class='baseline'><strong>Sean</strong><p>Received: <strong>20</strong></font> &nbsp; &nbsp; &nbsp; &nbsp; &nbsp; &nbsp;<font class='posOutcome'>Shared back: <strong>10</strong></font></font><div class='respPicDiv'><img src='img/responseButtonOffersNo0_wht.png' class='respPic'></div></div>","null","6","Sean","4","Shared","0.65,0.2","10","0.65","trustrating_stim/white_mw053.bmp","5","104","17"
"html-keyboard-response","189","233065","0.0-19.0-1.17","63f78c9346da47f7f8f3aef9","bdp_trlrn","Sat Apr 08 2023 09:27:08 GMT-0600 (Mountain Daylight Time)","449504","Trustworthy,Untrustworthy","","","","decision","","414","","<div class='trialDiv'><img src='trustrating_stim/white_mw066.bmp'><br><font class='baseline'><strong>Brian</strong><p>Choose number of points to send.</font><div class='respPicDiv'><img src='img/responseButtonOffersNo0L.png' class='respPic'></div></div>","1","6","Brian","8","Kept","0.35,0.8","10","0.35","trustrating_stim/white_mw066.bmp","5","109","18"
"html-keyboard-response","190","233317","0.0-19.0-2.17","63f78c9346da47f7f8f3aef9","bdp_trlrn","Sat Apr 08 2023 09:27:08 GMT-0600 (Mountain Daylight Time)","449504","Trustworthy,Untrustworthy","","","","decisionFB","","null","","<div class='trialDiv'><img src='trustrating_stim/white_mw066.bmp'><br><font class='baseline'><strong>Brian</strong><p>Choose number of points to send.</font><div class='respPicDiv'><img src='img/responseButtonOffersNo0L1.png' class='respPic'></div></div>","null","6","Brian","8","Kept","0.35,0.8","10","0.35","trustrating_stim/white_mw066.bmp","5","108","18"
"html-keyboard-response","191","234332","0.0-19.0-3.17","63f78c9346da47f7f8f3aef9","bdp_trlrn","Sat Apr 08 2023 09:27:08 GMT-0600 (Mountain Daylight Time)","449504","Trustworthy,Untrustworthy","","","","feedback","","null","","<div class='trialDiv'><img src='trustrating_stim/white_mw066.bmp'><br><font class='baseline'><strong>Brian</strong><p>Received: <strong>4</strong></font> &nbsp; &nbsp; &nbsp; &nbsp; &nbsp; &nbsp;<font class='negOutcome'>Shared back: <strong>0</strong></font></font><div class='respPicDiv'><img src='img/responseButtonOffersNo0_wht.png' class='respPic'></div></div>","null","6","Brian","8","Kept","0.35,0.8","10","0.35","trustrating_stim/white_mw066.bmp","5","108","18"
"html-keyboard-response","192","234666","0.0-19.0-1.18","63f78c9346da47f7f8f3aef9","bdp_trlrn","Sat Apr 08 2023 09:27:08 GMT-0600 (Mountain Daylight Time)","449504","Trustworthy,Untrustworthy","","","","decision","","332","","<div class='trialDiv'><img src='trustrating_stim/white_00519_940519_fb_edt.bmp'><br><font class='baseline'><strong>Sebastian</strong><p>Choose number of points to send.</font><div class='respPicDiv'><img src='img/responseButtonOffersNo0L.png' class='respPic'></div></div>","1","7","Sebastian","0","Kept","0.2,0.8","9","0.2","trustrating_stim/white_00519_940519_fb_edt.bmp","4","113","19"
"html-keyboard-response","193","234922","0.0-19.0-2.18","63f78c9346da47f7f8f3aef9","bdp_trlrn","Sat Apr 08 2023 09:27:08 GMT-0600 (Mountain Daylight Time)","449504","Trustworthy,Untrustworthy","","","","decisionFB","","null","","<div class='trialDiv'><img src='trustrating_stim/white_00519_940519_fb_edt.bmp'><br><font class='baseline'><strong>Sebastian</strong><p>Choose number of points to send.</font><div class='respPicDiv'><img src='img/responseButtonOffersNo0L1.png' class='respPic'></div></div>","null","7","Sebastian","0","Kept","0.2,0.8","9","0.2","trustrating_stim/white_00519_940519_fb_edt.bmp","4","112","19"
"html-keyboard-response","194","235930","0.0-19.0-3.18","63f78c9346da47f7f8f3aef9","bdp_trlrn","Sat Apr 08 2023 09:27:08 GMT-0600 (Mountain Daylight Time)","449504","Trustworthy,Untrustworthy","","","","feedback","","null","","<div class='trialDiv'><img src='trustrating_stim/white_00519_940519_fb_edt.bmp'><br><font class='baseline'><strong>Sebastian</strong><p>Received: <strong>4</strong></font> &nbsp; &nbsp; &nbsp; &nbsp; &nbsp; &nbsp;<font class='negOutcome'>Shared back: <strong>0</strong></font></font><div class='respPicDiv'><img src='img/responseButtonOffersNo0_wht.png' class='respPic'></div></div>","null","7","Sebastian","0","Kept","0.2,0.8","9","0.2","trustrating_stim/white_00519_940519_fb_edt.bmp","4","112","19"
"html-keyboard-response","195","236433","0.0-19.0-1.19","63f78c9346da47f7f8f3aef9","bdp_trlrn","Sat Apr 08 2023 09:27:08 GMT-0600 (Mountain Daylight Time)","449504","Trustworthy,Untrustworthy","","","","decision","","502","","<div class='trialDiv'><img src='trustrating_stim/white_mw066.bmp'><br><font class='baseline'><strong>Brian</strong><p>Choose number of points to send.</font><div class='respPicDiv'><img src='img/responseButtonOffersNo0L.png' class='respPic'></div></div>","1","7","Brian","8","Kept","0.35,0.8","10","0.35","trustrating_stim/white_mw066.bmp","5","117","20"
"html-keyboard-response","196","236691","0.0-19.0-2.19","63f78c9346da47f7f8f3aef9","bdp_trlrn","Sat Apr 08 2023 09:27:08 GMT-0600 (Mountain Daylight Time)","449504","Trustworthy,Untrustworthy","","","","decisionFB","","null","","<div class='trialDiv'><img src='trustrating_stim/white_mw066.bmp'><br><font class='baseline'><strong>Brian</strong><p>Choose number of points to send.</font><div class='respPicDiv'><img src='img/responseButtonOffersNo0L1.png' class='respPic'></div></div>","null","7","Brian","8","Kept","0.35,0.8","10","0.35","trustrating_stim/white_mw066.bmp","5","116","20"
"html-keyboard-response","197","237703","0.0-19.0-3.19","63f78c9346da47f7f8f3aef9","bdp_trlrn","Sat Apr 08 2023 09:27:08 GMT-0600 (Mountain Daylight Time)","449504","Trustworthy,Untrustworthy","","","","feedback","","null","","<div class='trialDiv'><img src='trustrating_stim/white_mw066.bmp'><br><font class='baseline'><strong>Brian</strong><p>Received: <strong>4</strong></font> &nbsp; &nbsp; &nbsp; &nbsp; &nbsp; &nbsp;<font class='negOutcome'>Shared back: <strong>0</strong></font></font><div class='respPicDiv'><img src='img/responseButtonOffersNo0_wht.png' class='respPic'></div></div>","null","7","Brian","8","Kept","0.35,0.8","10","0.35","trustrating_stim/white_mw066.bmp","5","116","20"
"html-keyboard-response","198","238121","0.0-19.0-1.20","63f78c9346da47f7f8f3aef9","bdp_trlrn","Sat Apr 08 2023 09:27:08 GMT-0600 (Mountain Daylight Time)","449504","Trustworthy,Untrustworthy","","","","decision","","416","","<div class='trialDiv'><img src='trustrating_stim/white_mw053.bmp'><br><font class='baseline'><strong>Sean</strong><p>Choose number of points to send.</font><div class='respPicDiv'><img src='img/responseButtonOffersNo0L.png' class='respPic'></div></div>","5","7","Sean","4","Shared","0.65,0.2","10","0.65","trustrating_stim/white_mw053.bmp","5","121","21"
"html-keyboard-response","199","238387","0.0-19.0-2.20","63f78c9346da47f7f8f3aef9","bdp_trlrn","Sat Apr 08 2023 09:27:08 GMT-0600 (Mountain Daylight Time)","449504","Trustworthy,Untrustworthy","","","","decisionFB","","null","","<div class='trialDiv'><img src='trustrating_stim/white_mw053.bmp'><br><font class='baseline'><strong>Sean</strong><p>Choose number of points to send.</font><div class='respPicDiv'><img src='img/responseButtonOffersNo0L5.png' class='respPic'></div></div>","null","7","Sean","4","Shared","0.65,0.2","10","0.65","trustrating_stim/white_mw053.bmp","5","116","21"
"html-keyboard-response","200","239397","0.0-19.0-3.20","63f78c9346da47f7f8f3aef9","bdp_trlrn","Sat Apr 08 2023 09:27:08 GMT-0600 (Mountain Daylight Time)","449504","Trustworthy,Untrustworthy","","","","feedback","","null","","<div class='trialDiv'><img src='trustrating_stim/white_mw053.bmp'><br><font class='baseline'><strong>Sean</strong><p>Received: <strong>20</strong></font> &nbsp; &nbsp; &nbsp; &nbsp; &nbsp; &nbsp;<font class='posOutcome'>Shared back: <strong>10</strong></font></font><div class='respPicDiv'><img src='img/responseButtonOffersNo0_wht.png' class='respPic'></div></div>","null","7","Sean","4","Shared","0.65,0.2","10","0.65","trustrating_stim/white_mw053.bmp","5","126","21"
"html-keyboard-response","201","239833","0.0-19.0-1.21","63f78c9346da47f7f8f3aef9","bdp_trlrn","Sat Apr 08 2023 09:27:08 GMT-0600 (Mountain Daylight Time)","449504","Trustworthy,Untrustworthy","","","","decision","","434","","<div class='trialDiv'><img src='trustrating_stim/white_00519_940519_fb_edt.bmp'><br><font class='baseline'><strong>Sebastian</strong><p>Choose number of points to send.</font><div class='respPicDiv'><img src='img/responseButtonOffersNo0L.png' class='respPic'></div></div>","1","8","Sebastian","0","Kept","0.2,0.8","9","0.2","trustrating_stim/white_00519_940519_fb_edt.bmp","4","131","22"
"html-keyboard-response","202","240094","0.0-19.0-2.21","63f78c9346da47f7f8f3aef9","bdp_trlrn","Sat Apr 08 2023 09:27:08 GMT-0600 (Mountain Daylight Time)","449504","Trustworthy,Untrustworthy","","","","decisionFB","","null","","<div class='trialDiv'><img src='trustrating_stim/white_00519_940519_fb_edt.bmp'><br><font class='baseline'><strong>Sebastian</strong><p>Choose number of points to send.</font><div class='respPicDiv'><img src='img/responseButtonOffersNo0L1.png' class='respPic'></div></div>","null","8","Sebastian","0","Kept","0.2,0.8","9","0.2","trustrating_stim/white_00519_940519_fb_edt.bmp","4","130","22"
"html-keyboard-response","203","241101","0.0-19.0-3.21","63f78c9346da47f7f8f3aef9","bdp_trlrn","Sat Apr 08 2023 09:27:08 GMT-0600 (Mountain Daylight Time)","449504","Trustworthy,Untrustworthy","","","","feedback","","null","","<div class='trialDiv'><img src='trustrating_stim/white_00519_940519_fb_edt.bmp'><br><font class='baseline'><strong>Sebastian</strong><p>Received: <strong>4</strong></font> &nbsp; &nbsp; &nbsp; &nbsp; &nbsp; &nbsp;<font class='negOutcome'>Shared back: <strong>0</strong></font></font><div class='respPicDiv'><img src='img/responseButtonOffersNo0_wht.png' class='respPic'></div></div>","null","8","Sebastian","0","Kept","0.2,0.8","9","0.2","trustrating_stim/white_00519_940519_fb_edt.bmp","4","130","22"
"html-keyboard-response","204","241409","0.0-19.0-1.22","63f78c9346da47f7f8f3aef9","bdp_trlrn","Sat Apr 08 2023 09:27:08 GMT-0600 (Mountain Daylight Time)","449504","Trustworthy,Untrustworthy","","","","decision","","307","","<div class='trialDiv'><img src='trustrating_stim/white_mw053.bmp'><br><font class='baseline'><strong>Sean</strong><p>Choose number of points to send.</font><div class='respPicDiv'><img src='img/responseButtonOffersNo0L.png' class='respPic'></div></div>","1","8","Sean","4","Shared","0.65,0.2","10","0.65","trustrating_stim/white_mw053.bmp","5","135","23"
"html-keyboard-response","205","241673","0.0-19.0-2.22","63f78c9346da47f7f8f3aef9","bdp_trlrn","Sat Apr 08 2023 09:27:08 GMT-0600 (Mountain Daylight Time)","449504","Trustworthy,Untrustworthy","","","","decisionFB","","null","","<div class='trialDiv'><img src='trustrating_stim/white_mw053.bmp'><br><font class='baseline'><strong>Sean</strong><p>Choose number of points to send.</font><div class='respPicDiv'><img src='img/responseButtonOffersNo0L1.png' class='respPic'></div></div>","null","8","Sean","4","Shared","0.65,0.2","10","0.65","trustrating_stim/white_mw053.bmp","5","134","23"
"html-keyboard-response","206","242685","0.0-19.0-3.22","63f78c9346da47f7f8f3aef9","bdp_trlrn","Sat Apr 08 2023 09:27:08 GMT-0600 (Mountain Daylight Time)","449504","Trustworthy,Untrustworthy","","","","feedback","","null","","<div class='trialDiv'><img src='trustrating_stim/white_mw053.bmp'><br><font class='baseline'><strong>Sean</strong><p>Received: <strong>4</strong></font> &nbsp; &nbsp; &nbsp; &nbsp; &nbsp; &nbsp;<font class='posOutcome'>Shared back: <strong>2</strong></font></font><div class='respPicDiv'><img src='img/responseButtonOffersNo0_wht.png' class='respPic'></div></div>","null","8","Sean","4","Shared","0.65,0.2","10","0.65","trustrating_stim/white_mw053.bmp","5","136","23"
"html-keyboard-response","207","243145","0.0-19.0-1.23","63f78c9346da47f7f8f3aef9","bdp_trlrn","Sat Apr 08 2023 09:27:08 GMT-0600 (Mountain Daylight Time)","449504","Trustworthy,Untrustworthy","","","","decision","","459","","<div class='trialDiv'><img src='trustrating_stim/white_mw066.bmp'><br><font class='baseline'><strong>Brian</strong><p>Choose number of points to send.</font><div class='respPicDiv'><img src='img/responseButtonOffersNo0L.png' class='respPic'></div></div>","1","8","Brian","8","Shared","0.35,0.8","10","0.35","trustrating_stim/white_mw066.bmp","5","141","24"
"html-keyboard-response","208","243400","0.0-19.0-2.23","63f78c9346da47f7f8f3aef9","bdp_trlrn","Sat Apr 08 2023 09:27:08 GMT-0600 (Mountain Daylight Time)","449504","Trustworthy,Untrustworthy","","","","decisionFB","","null","","<div class='trialDiv'><img src='trustrating_stim/white_mw066.bmp'><br><font class='baseline'><strong>Brian</strong><p>Choose number of points to send.</font><div class='respPicDiv'><img src='img/responseButtonOffersNo0L1.png' class='respPic'></div></div>","null","8","Brian","8","Shared","0.35,0.8","10","0.35","trustrating_stim/white_mw066.bmp","5","140","24"
"html-keyboard-response","209","244409","0.0-19.0-3.23","63f78c9346da47f7f8f3aef9","bdp_trlrn","Sat Apr 08 2023 09:27:08 GMT-0600 (Mountain Daylight Time)","449504","Trustworthy,Untrustworthy","","","","feedback","","null","","<div class='trialDiv'><img src='trustrating_stim/white_mw066.bmp'><br><font class='baseline'><strong>Brian</strong><p>Received: <strong>4</strong></font> &nbsp; &nbsp; &nbsp; &nbsp; &nbsp; &nbsp;<font class='posOutcome'>Shared back: <strong>2</strong></font></font><div class='respPicDiv'><img src='img/responseButtonOffersNo0_wht.png' class='respPic'></div></div>","null","8","Brian","8","Shared","0.35,0.8","10","0.35","trustrating_stim/white_mw066.bmp","5","142","24"
"html-keyboard-response","210","244994","0.0-19.0-1.24","63f78c9346da47f7f8f3aef9","bdp_trlrn","Sat Apr 08 2023 09:27:08 GMT-0600 (Mountain Daylight Time)","449504","Trustworthy,Untrustworthy","","","","decision","","585","","<div class='trialDiv'><img src='trustrating_stim/white_mw053.bmp'><br><font class='baseline'><strong>Sean</strong><p>Choose number of points to send.</font><div class='respPicDiv'><img src='img/responseButtonOffersNo0L.png' class='respPic'></div></div>","5","9","Sean","4","Shared","0.65,0.2","10","0.65","trustrating_stim/white_mw053.bmp","5","147","25"
"html-keyboard-response","211","245260","0.0-19.0-2.24","63f78c9346da47f7f8f3aef9","bdp_trlrn","Sat Apr 08 2023 09:27:08 GMT-0600 (Mountain Daylight Time)","449504","Trustworthy,Untrustworthy","","","","decisionFB","","null","","<div class='trialDiv'><img src='trustrating_stim/white_mw053.bmp'><br><font class='baseline'><strong>Sean</strong><p>Choose number of points to send.</font><div class='respPicDiv'><img src='img/responseButtonOffersNo0L5.png' class='respPic'></div></div>","null","9","Sean","4","Shared","0.65,0.2","10","0.65","trustrating_stim/white_mw053.bmp","5","142","25"
"html-keyboard-response","212","246269","0.0-19.0-3.24","63f78c9346da47f7f8f3aef9","bdp_trlrn","Sat Apr 08 2023 09:27:08 GMT-0600 (Mountain Daylight Time)","449504","Trustworthy,Untrustworthy","","","","feedback","","null","","<div class='trialDiv'><img src='trustrating_stim/white_mw053.bmp'><br><font class='baseline'><strong>Sean</strong><p>Received: <strong>20</strong></font> &nbsp; &nbsp; &nbsp; &nbsp; &nbsp; &nbsp;<font class='posOutcome'>Shared back: <strong>10</strong></font></font><div class='respPicDiv'><img src='img/responseButtonOffersNo0_wht.png' class='respPic'></div></div>","null","9","Sean","4","Shared","0.65,0.2","10","0.65","trustrating_stim/white_mw053.bmp","5","152","25"
"html-keyboard-response","213","246792","0.0-19.0-1.25","63f78c9346da47f7f8f3aef9","bdp_trlrn","Sat Apr 08 2023 09:27:08 GMT-0600 (Mountain Daylight Time)","449504","Trustworthy,Untrustworthy","","","","decision","","522","","<div class='trialDiv'><img src='trustrating_stim/white_mw066.bmp'><br><font class='baseline'><strong>Brian</strong><p>Choose number of points to send.</font><div class='respPicDiv'><img src='img/responseButtonOffersNo0L.png' class='respPic'></div></div>","1","9","Brian","8","Kept","0.35,0.8","10","0.35","trustrating_stim/white_mw066.bmp","5","157","26"
"html-keyboard-response","214","247059","0.0-19.0-2.25","63f78c9346da47f7f8f3aef9","bdp_trlrn","Sat Apr 08 2023 09:27:08 GMT-0600 (Mountain Daylight Time)","449504","Trustworthy,Untrustworthy","","","","decisionFB","","null","","<div class='trialDiv'><img src='trustrating_stim/white_mw066.bmp'><br><font class='baseline'><strong>Brian</strong><p>Choose number of points to send.</font><div class='respPicDiv'><img src='img/responseButtonOffersNo0L1.png' class='respPic'></div></div>","null","9","Brian","8","Kept","0.35,0.8","10","0.35","trustrating_stim/white_mw066.bmp","5","156","26"
"html-keyboard-response","215","248071","0.0-19.0-3.25","63f78c9346da47f7f8f3aef9","bdp_trlrn","Sat Apr 08 2023 09:27:08 GMT-0600 (Mountain Daylight Time)","449504","Trustworthy,Untrustworthy","","","","feedback","","null","","<div class='trialDiv'><img src='trustrating_stim/white_mw066.bmp'><br><font class='baseline'><strong>Brian</strong><p>Received: <strong>4</strong></font> &nbsp; &nbsp; &nbsp; &nbsp; &nbsp; &nbsp;<font class='negOutcome'>Shared back: <strong>0</strong></font></font><div class='respPicDiv'><img src='img/responseButtonOffersNo0_wht.png' class='respPic'></div></div>","null","9","Brian","8","Kept","0.35,0.8","10","0.35","trustrating_stim/white_mw066.bmp","5","156","26"
"html-keyboard-response","216","248641","0.0-19.0-1.26","63f78c9346da47f7f8f3aef9","bdp_trlrn","Sat Apr 08 2023 09:27:08 GMT-0600 (Mountain Daylight Time)","449504","Trustworthy,Untrustworthy","","","","decision","","568","","<div class='trialDiv'><img src='trustrating_stim/white_00519_940519_fb_edt.bmp'><br><font class='baseline'><strong>Sebastian</strong><p>Choose number of points to send.</font><div class='respPicDiv'><img src='img/responseButtonOffersNo0L.png' class='respPic'></div></div>","1","9","Sebastian","0","Shared","0.2,0.8","9","0.2","trustrating_stim/white_00519_940519_fb_edt.bmp","4","161","27"
"html-keyboard-response","217","248906","0.0-19.0-2.26","63f78c9346da47f7f8f3aef9","bdp_trlrn","Sat Apr 08 2023 09:27:08 GMT-0600 (Mountain Daylight Time)","449504","Trustworthy,Untrustworthy","","","","decisionFB","","null","","<div class='trialDiv'><img src='trustrating_stim/white_00519_940519_fb_edt.bmp'><br><font class='baseline'><strong>Sebastian</strong><p>Choose number of points to send.</font><div class='respPicDiv'><img src='img/responseButtonOffersNo0L1.png' class='respPic'></div></div>","null","9","Sebastian","0","Shared","0.2,0.8","9","0.2","trustrating_stim/white_00519_940519_fb_edt.bmp","4","160","27"
"html-keyboard-response","218","249917","0.0-19.0-3.26","63f78c9346da47f7f8f3aef9","bdp_trlrn","Sat Apr 08 2023 09:27:08 GMT-0600 (Mountain Daylight Time)","449504","Trustworthy,Untrustworthy","","","","feedback","","null","","<div class='trialDiv'><img src='trustrating_stim/white_00519_940519_fb_edt.bmp'><br><font class='baseline'><strong>Sebastian</strong><p>Received: <strong>4</strong></font> &nbsp; &nbsp; &nbsp; &nbsp; &nbsp; &nbsp;<font class='posOutcome'>Shared back: <strong>2</strong></font></font><div class='respPicDiv'><img src='img/responseButtonOffersNo0_wht.png' class='respPic'></div></div>","null","9","Sebastian","0","Shared","0.2,0.8","9","0.2","trustrating_stim/white_00519_940519_fb_edt.bmp","4","162","27"
"html-keyboard-response","219","250337","0.0-19.0-1.27","63f78c9346da47f7f8f3aef9","bdp_trlrn","Sat Apr 08 2023 09:27:08 GMT-0600 (Mountain Daylight Time)","449504","Trustworthy,Untrustworthy","","","","decision","","419","","<div class='trialDiv'><img src='trustrating_stim/white_mw053.bmp'><br><font class='baseline'><strong>Sean</strong><p>Choose number of points to send.</font><div class='respPicDiv'><img src='img/responseButtonOffersNo0L.png' class='respPic'></div></div>","5","10","Sean","4","Kept","0.65,0.2","10","0.65","trustrating_stim/white_mw053.bmp","5","167","28"
"html-keyboard-response","220","250597","0.0-19.0-2.27","63f78c9346da47f7f8f3aef9","bdp_trlrn","Sat Apr 08 2023 09:27:08 GMT-0600 (Mountain Daylight Time)","449504","Trustworthy,Untrustworthy","","","","decisionFB","","null","","<div class='trialDiv'><img src='trustrating_stim/white_mw053.bmp'><br><font class='baseline'><strong>Sean</strong><p>Choose number of points to send.</font><div class='respPicDiv'><img src='img/responseButtonOffersNo0L5.png' class='respPic'></div></div>","null","10","Sean","4","Kept","0.65,0.2","10","0.65","trustrating_stim/white_mw053.bmp","5","162","28"
"html-keyboard-response","221","251606","0.0-19.0-3.27","63f78c9346da47f7f8f3aef9","bdp_trlrn","Sat Apr 08 2023 09:27:08 GMT-0600 (Mountain Daylight Time)","449504","Trustworthy,Untrustworthy","","","","feedback","","null","","<div class='trialDiv'><img src='trustrating_stim/white_mw053.bmp'><br><font class='baseline'><strong>Sean</strong><p>Received: <strong>20</strong></font> &nbsp; &nbsp; &nbsp; &nbsp; &nbsp; &nbsp;<font class='negOutcome'>Shared back: <strong>0</strong></font></font><div class='respPicDiv'><img src='img/responseButtonOffersNo0_wht.png' class='respPic'></div></div>","null","10","Sean","4","Kept","0.65,0.2","10","0.65","trustrating_stim/white_mw053.bmp","5","162","28"
