"trial_type","trial_index","time_elapsed","internal_node_id","subject_id","task","startTime","totalTime","labels","view_history","rt","event","trial","time","trialtype","success","stimulus","key_press","numBlurs","aground","name","faceID","outcome","agenttype","agentswpt","agentcurrpshare","face","avgRating","point_total","round"
"pavlovia","0","2","0.0-0.0","63dd3dd2593c92be97d8dbde","bdp_trlrn","Sat Apr 08 2023 08:38:38 GMT-0700 (Pacific Daylight Time)","494719","Untrustworthy,Trustworthy","","","","","","","","","","","","","","","","","","","","",""
"instructions","1","3816","0.0-1.0","63dd3dd2593c92be97d8dbde","bdp_trlrn","Sat Apr 08 2023 08:38:38 GMT-0700 (Pacific Daylight Time)","494719","Untrustworthy,Trustworthy","[{""page_index"":0,""viewing_time"":3813}]","3813","","","","","","","","","","","","","","","","","","",""
"","","","","63dd3dd2593c92be97d8dbde","bdp_trlrn","Sat Apr 08 2023 08:38:38 GMT-0700 (Pacific Daylight Time)","494719","Untrustworthy,Trustworthy","","","fullscreenenter","2","6685","fullscreenenter","","","","","","","","","","","","","","",""
"fullscreen","2","7675","0.0-2.0","63dd3dd2593c92be97d8dbde","bdp_trlrn","Sat Apr 08 2023 08:38:38 GMT-0700 (Pacific Daylight Time)","494719","Untrustworthy,Trustworthy","","","","","","","true","","","","","","","","","","","","","",""
"instructions","3","13673","0.0-4.0","63dd3dd2593c92be97d8dbde","bdp_trlrn","Sat Apr 08 2023 08:38:38 GMT-0700 (Pacific Daylight Time)","494719","Untrustworthy,Trustworthy","[{""page_index"":0,""viewing_time"":3757},{""page_index"":1,""viewing_time"":2240}]","5997","","","","","","","","","","","","","","","","","","",""
"instructions","4","14736","0.0-5.0","63dd3dd2593c92be97d8dbde","bdp_trlrn","Sat Apr 08 2023 08:38:38 GMT-0700 (Pacific Daylight Time)","494719","Untrustworthy,Trustworthy","[{""page_index"":0,""viewing_time"":1063}]","1063","","","","","","","","","","","","","","","","","","",""
"image-keyboard-response","5","16737","0.0-6.0-1.0","63dd3dd2593c92be97d8dbde","bdp_trlrn","Sat Apr 08 2023 08:38:38 GMT-0700 (Pacific Daylight Time)","494719","Untrustworthy,Trustworthy","","1899","","","","rating","","trustrating_stim/white_00602_940928_fb_edt.bmp","6","","","","","","","","","","","",""
"image-keyboard-response","6","16938","0.0-6.0-2.0","63dd3dd2593c92be97d8dbde","bdp_trlrn","Sat Apr 08 2023 08:38:38 GMT-0700 (Pacific Daylight Time)","494719","Untrustworthy,Trustworthy","","null","","","","ratingFB","","trustrating_stim/white_00602_940928_fb_edt.bmp","null","","","","","","","","","","","",""
"image-keyboard-response","7","18441","0.0-6.0-1.1","63dd3dd2593c92be97d8dbde","bdp_trlrn","Sat Apr 08 2023 08:38:38 GMT-0700 (Pacific Daylight Time)","494719","Untrustworthy,Trustworthy","","1402","","","","rating","","trustrating_stim/white_00519_940519_fb_edt.bmp","3","","","","","","","","","","","",""
"image-keyboard-response","8","18643","0.0-6.0-2.1","63dd3dd2593c92be97d8dbde","bdp_trlrn","Sat Apr 08 2023 08:38:38 GMT-0700 (Pacific Daylight Time)","494719","Untrustworthy,Trustworthy","","null","","","","ratingFB","","trustrating_stim/white_00519_940519_fb_edt.bmp","null","","","","","","","","","","","",""
"image-keyboard-response","9","19993","0.0-6.0-1.2","63dd3dd2593c92be97d8dbde","bdp_trlrn","Sat Apr 08 2023 08:38:38 GMT-0700 (Pacific Daylight Time)","494719","Untrustworthy,Trustworthy","","1248","","","","rating","","trustrating_stim/white_mw049.bmp","1","","","","","","","","","","","",""
"image-keyboard-response","10","20195","0.0-6.0-2.2","63dd3dd2593c92be97d8dbde","bdp_trlrn","Sat Apr 08 2023 08:38:38 GMT-0700 (Pacific Daylight Time)","494719","Untrustworthy,Trustworthy","","null","","","","ratingFB","","trustrating_stim/white_mw049.bmp","null","","","","","","","","","","","",""
"image-keyboard-response","11","21281","0.0-6.0-1.3","63dd3dd2593c92be97d8dbde","bdp_trlrn","Sat Apr 08 2023 08:38:38 GMT-0700 (Pacific Daylight Time)","494719","Untrustworthy,Trustworthy","","984","","","","rating","","trustrating_stim/white_mw053.bmp","2","","","","","","","","","","","",""
"image-keyboard-response","12","21483","0.0-6.0-2.3","63dd3dd2593c92be97d8dbde","bdp_trlrn","Sat Apr 08 2023 08:38:38 GMT-0700 (Pacific Daylight Time)","494719","Untrustworthy,Trustworthy","","null","","","","ratingFB","","trustrating_stim/white_mw053.bmp","null","","","","","","","","","","","",""
"image-keyboard-response","13","22970","0.0-6.0-1.4","63dd3dd2593c92be97d8dbde","bdp_trlrn","Sat Apr 08 2023 08:38:38 GMT-0700 (Pacific Daylight Time)","494719","Untrustworthy,Trustworthy","","1385","","","","rating","","trustrating_stim/white_00129_931230_fb_edt.bmp","4","","","","","","","","","","","",""
"image-keyboard-response","14","23171","0.0-6.0-2.4","63dd3dd2593c92be97d8dbde","bdp_trlrn","Sat Apr 08 2023 08:38:38 GMT-0700 (Pacific Daylight Time)","494719","Untrustworthy,Trustworthy","","null","","","","ratingFB","","trustrating_stim/white_00129_931230_fb_edt.bmp","null","","","","","","","","","","","",""
"image-keyboard-response","15","24570","0.0-6.0-1.5","63dd3dd2593c92be97d8dbde","bdp_trlrn","Sat Apr 08 2023 08:38:38 GMT-0700 (Pacific Daylight Time)","494719","Untrustworthy,Trustworthy","","1296","","","","rating","","trustrating_stim/white_mw048.bmp","3","","","","","","","","","","","",""
"image-keyboard-response","16","24771","0.0-6.0-2.5","63dd3dd2593c92be97d8dbde","bdp_trlrn","Sat Apr 08 2023 08:38:38 GMT-0700 (Pacific Daylight Time)","494719","Untrustworthy,Trustworthy","","null","","","","ratingFB","","trustrating_stim/white_mw048.bmp","null","","","","","","","","","","","",""
"image-keyboard-response","17","26282","0.0-6.0-1.6","63dd3dd2593c92be97d8dbde","bdp_trlrn","Sat Apr 08 2023 08:38:38 GMT-0700 (Pacific Daylight Time)","494719","Untrustworthy,Trustworthy","","1409","","","","rating","","trustrating_stim/white_00659_941121_fa_edt.bmp","3","","","","","","","","","","","",""
"image-keyboard-response","18","26483","0.0-6.0-2.6","63dd3dd2593c92be97d8dbde","bdp_trlrn","Sat Apr 08 2023 08:38:38 GMT-0700 (Pacific Daylight Time)","494719","Untrustworthy,Trustworthy","","null","","","","ratingFB","","trustrating_stim/white_00659_941121_fa_edt.bmp","null","","","","","","","","","","","",""
"image-keyboard-response","19","28698","0.0-6.0-1.7","63dd3dd2593c92be97d8dbde","bdp_trlrn","Sat Apr 08 2023 08:38:38 GMT-0700 (Pacific Daylight Time)","494719","Untrustworthy,Trustworthy","","2114","","","","rating","","trustrating_stim/white_00807_941205_fb_edt.bmp","6","","","","","","","","","","","",""
"image-keyboard-response","20","28899","0.0-6.0-2.7","63dd3dd2593c92be97d8dbde","bdp_trlrn","Sat Apr 08 2023 08:38:38 GMT-0700 (Pacific Daylight Time)","494719","Untrustworthy,Trustworthy","","null","","","","ratingFB","","trustrating_stim/white_00807_941205_fb_edt.bmp","null","","","","","","","","","","","",""
"image-keyboard-response","21","30170","0.0-6.0-1.8","63dd3dd2593c92be97d8dbde","bdp_trlrn","Sat Apr 08 2023 08:38:38 GMT-0700 (Pacific Daylight Time)","494719","Untrustworthy,Trustworthy","","1169","","","","rating","","trustrating_stim/white_mw084.bmp","3","","","","","","","","","","","",""
"image-keyboard-response","22","30371","0.0-6.0-2.8","63dd3dd2593c92be97d8dbde","bdp_trlrn","Sat Apr 08 2023 08:38:38 GMT-0700 (Pacific Daylight Time)","494719","Untrustworthy,Trustworthy","","null","","","","ratingFB","","trustrating_stim/white_mw084.bmp","null","","","","","","","","","","","",""
"image-keyboard-response","23","31226","0.0-6.0-1.9","63dd3dd2593c92be97d8dbde","bdp_trlrn","Sat Apr 08 2023 08:38:38 GMT-0700 (Pacific Daylight Time)","494719","Untrustworthy,Trustworthy","","753","","","","rating","","trustrating_stim/white_mw035.bmp","6","","","","","","","","","","","",""
"image-keyboard-response","24","31428","0.0-6.0-2.9","63dd3dd2593c92be97d8dbde","bdp_trlrn","Sat Apr 08 2023 08:38:38 GMT-0700 (Pacific Daylight Time)","494719","Untrustworthy,Trustworthy","","null","","","","ratingFB","","trustrating_stim/white_mw035.bmp","null","","","","","","","","","","","",""
"image-keyboard-response","25","32715","0.0-6.0-1.10","63dd3dd2593c92be97d8dbde","bdp_trlrn","Sat Apr 08 2023 08:38:38 GMT-0700 (Pacific Daylight Time)","494719","Untrustworthy,Trustworthy","","1184","","","","rating","","trustrating_stim/white_00757_941201_fa_edt.bmp","4","","","","","","","","","","","",""
"image-keyboard-response","26","32915","0.0-6.0-2.10","63dd3dd2593c92be97d8dbde","bdp_trlrn","Sat Apr 08 2023 08:38:38 GMT-0700 (Pacific Daylight Time)","494719","Untrustworthy,Trustworthy","","null","","","","ratingFB","","trustrating_stim/white_00757_941201_fa_edt.bmp","null","","","","","","","","","","","",""
"image-keyboard-response","27","33803","0.0-6.0-1.11","63dd3dd2593c92be97d8dbde","bdp_trlrn","Sat Apr 08 2023 08:38:38 GMT-0700 (Pacific Daylight Time)","494719","Untrustworthy,Trustworthy","","786","","","","rating","","trustrating_stim/white_00109_931230_fa_edt.bmp","5","","","","","","","","","","","",""
"image-keyboard-response","28","34005","0.0-6.0-2.11","63dd3dd2593c92be97d8dbde","bdp_trlrn","Sat Apr 08 2023 08:38:38 GMT-0700 (Pacific Daylight Time)","494719","Untrustworthy,Trustworthy","","null","","","","ratingFB","","trustrating_stim/white_00109_931230_fa_edt.bmp","null","","","","","","","","","","","",""
"image-keyboard-response","29","36027","0.0-6.0-1.12","63dd3dd2593c92be97d8dbde","bdp_trlrn","Sat Apr 08 2023 08:38:38 GMT-0700 (Pacific Daylight Time)","494719","Untrustworthy,Trustworthy","","1920","","","","rating","","trustrating_stim/white_mw060.bmp","3","","","","","","","","","","","",""
"image-keyboard-response","30","36228","0.0-6.0-2.12","63dd3dd2593c92be97d8dbde","bdp_trlrn","Sat Apr 08 2023 08:38:38 GMT-0700 (Pacific Daylight Time)","494719","Untrustworthy,Trustworthy","","null","","","","ratingFB","","trustrating_stim/white_mw060.bmp","null","","","","","","","","","","","",""
"image-keyboard-response","31","37379","0.0-6.0-1.13","63dd3dd2593c92be97d8dbde","bdp_trlrn","Sat Apr 08 2023 08:38:38 GMT-0700 (Pacific Daylight Time)","494719","Untrustworthy,Trustworthy","","1050","","","","rating","","trustrating_stim/white_mw046.bmp","3","","","","","","","","","","","",""
"image-keyboard-response","32","37580","0.0-6.0-2.13","63dd3dd2593c92be97d8dbde","bdp_trlrn","Sat Apr 08 2023 08:38:38 GMT-0700 (Pacific Daylight Time)","494719","Untrustworthy,Trustworthy","","null","","","","ratingFB","","trustrating_stim/white_mw046.bmp","null","","","","","","","","","","","",""
"image-keyboard-response","33","38667","0.0-6.0-1.14","63dd3dd2593c92be97d8dbde","bdp_trlrn","Sat Apr 08 2023 08:38:38 GMT-0700 (Pacific Daylight Time)","494719","Untrustworthy,Trustworthy","","986","","","","rating","","trustrating_stim/white_mw033.bmp","4","","","","","","","","","","","",""
"image-keyboard-response","34","38869","0.0-6.0-2.14","63dd3dd2593c92be97d8dbde","bdp_trlrn","Sat Apr 08 2023 08:38:38 GMT-0700 (Pacific Daylight Time)","494719","Untrustworthy,Trustworthy","","null","","","","ratingFB","","trustrating_stim/white_mw033.bmp","null","","","","","","","","","","","",""
"image-keyboard-response","35","40140","0.0-6.0-1.15","63dd3dd2593c92be97d8dbde","bdp_trlrn","Sat Apr 08 2023 08:38:38 GMT-0700 (Pacific Daylight Time)","494719","Untrustworthy,Trustworthy","","1169","","","","rating","","trustrating_stim/white_mw089.bmp","1","","","","","","","","","","","",""
"image-keyboard-response","36","40341","0.0-6.0-2.15","63dd3dd2593c92be97d8dbde","bdp_trlrn","Sat Apr 08 2023 08:38:38 GMT-0700 (Pacific Daylight Time)","494719","Untrustworthy,Trustworthy","","null","","","","ratingFB","","trustrating_stim/white_mw089.bmp","null","","","","","","","","","","","",""
"image-keyboard-response","37","41260","0.0-6.0-1.16","63dd3dd2593c92be97d8dbde","bdp_trlrn","Sat Apr 08 2023 08:38:38 GMT-0700 (Pacific Daylight Time)","494719","Untrustworthy,Trustworthy","","818","","","","rating","","trustrating_stim/white_00223_940128_fb_edt.bmp","4","","","","","","","","","","","",""
"image-keyboard-response","38","41462","0.0-6.0-2.16","63dd3dd2593c92be97d8dbde","bdp_trlrn","Sat Apr 08 2023 08:38:38 GMT-0700 (Pacific Daylight Time)","494719","Untrustworthy,Trustworthy","","null","","","","ratingFB","","trustrating_stim/white_00223_940128_fb_edt.bmp","null","","","","","","","","","","","",""
"image-keyboard-response","39","43412","0.0-6.0-1.17","63dd3dd2593c92be97d8dbde","bdp_trlrn","Sat Apr 08 2023 08:38:38 GMT-0700 (Pacific Daylight Time)","494719","Untrustworthy,Trustworthy","","1848","","","","rating","","trustrating_stim/white_00120_931230_fa_edt.bmp","8","","","","","","","","","","","",""
"image-keyboard-response","40","43614","0.0-6.0-2.17","63dd3dd2593c92be97d8dbde","bdp_trlrn","Sat Apr 08 2023 08:38:38 GMT-0700 (Pacific Daylight Time)","494719","Untrustworthy,Trustworthy","","null","","","","ratingFB","","trustrating_stim/white_00120_931230_fa_edt.bmp","null","","","","","","","","","","","",""
"image-keyboard-response","41","44925","0.0-6.0-1.18","63dd3dd2593c92be97d8dbde","bdp_trlrn","Sat Apr 08 2023 08:38:38 GMT-0700 (Pacific Daylight Time)","494719","Untrustworthy,Trustworthy","","1210","","","","rating","","trustrating_stim/white_00577_940928_fa_edt.bmp","6","","","","","","","","","","","",""
"image-keyboard-response","42","45126","0.0-6.0-2.18","63dd3dd2593c92be97d8dbde","bdp_trlrn","Sat Apr 08 2023 08:38:38 GMT-0700 (Pacific Daylight Time)","494719","Untrustworthy,Trustworthy","","null","","","","ratingFB","","trustrating_stim/white_00577_940928_fa_edt.bmp","null","","","","","","","","","","","",""
"image-keyboard-response","43","46220","0.0-6.0-1.19","63dd3dd2593c92be97d8dbde","bdp_trlrn","Sat Apr 08 2023 08:38:38 GMT-0700 (Pacific Daylight Time)","494719","Untrustworthy,Trustworthy","","993","","","","rating","","trustrating_stim/white_00761_941201_fb_edt.bmp","7","","","","","","","","","","","",""
"image-keyboard-response","44","46422","0.0-6.0-2.19","63dd3dd2593c92be97d8dbde","bdp_trlrn","Sat Apr 08 2023 08:38:38 GMT-0700 (Pacific Daylight Time)","494719","Untrustworthy,Trustworthy","","null","","","","ratingFB","","trustrating_stim/white_00761_941201_fb_edt.bmp","null","","","","","","","","","","","",""
"image-keyboard-response","45","47677","0.0-6.0-1.20","63dd3dd2593c92be97d8dbde","bdp_trlrn","Sat Apr 08 2023 08:38:38 GMT-0700 (Pacific Daylight Time)","494719","Untrustworthy,Trustworthy","","1152","","","","rating","","trustrating_stim/white_mw066.bmp","1","","","","","","","","","","","",""
"image-keyboard-response","46","47878","0.0-6.0-2.20","63dd3dd2593c92be97d8dbde","bdp_trlrn","Sat Apr 08 2023 08:38:38 GMT-0700 (Pacific Daylight Time)","494719","Untrustworthy,Trustworthy","","null","","","","ratingFB","","trustrating_stim/white_mw066.bmp","null","","","","","","","","","","","",""
"image-keyboard-response","47","48941","0.0-6.0-1.21","63dd3dd2593c92be97d8dbde","bdp_trlrn","Sat Apr 08 2023 08:38:38 GMT-0700 (Pacific Daylight Time)","494719","Untrustworthy,Trustworthy","","961","","","","rating","","trustrating_stim/white_mw063.bmp","3","","","","","","","","","","","",""
"image-keyboard-response","48","49142","0.0-6.0-2.21","63dd3dd2593c92be97d8dbde","bdp_trlrn","Sat Apr 08 2023 08:38:38 GMT-0700 (Pacific Daylight Time)","494719","Untrustworthy,Trustworthy","","null","","","","ratingFB","","trustrating_stim/white_mw063.bmp","null","","","","","","","","","","","",""
"image-keyboard-response","49","50477","0.0-6.0-1.22","63dd3dd2593c92be97d8dbde","bdp_trlrn","Sat Apr 08 2023 08:38:38 GMT-0700 (Pacific Daylight Time)","494719","Untrustworthy,Trustworthy","","1234","","","","rating","","trustrating_stim/white_mw071.bmp","2","","","","","","","","","","","",""
"image-keyboard-response","50","50678","0.0-6.0-2.22","63dd3dd2593c92be97d8dbde","bdp_trlrn","Sat Apr 08 2023 08:38:38 GMT-0700 (Pacific Daylight Time)","494719","Untrustworthy,Trustworthy","","null","","","","ratingFB","","trustrating_stim/white_mw071.bmp","null","","","","","","","","","","","",""
"image-keyboard-response","51","51749","0.0-6.0-1.23","63dd3dd2593c92be97d8dbde","bdp_trlrn","Sat Apr 08 2023 08:38:38 GMT-0700 (Pacific Daylight Time)","494719","Untrustworthy,Trustworthy","","969","","","","rating","","trustrating_stim/white_mw056.bmp","6","","","","","","","","","","","",""
"image-keyboard-response","52","51950","0.0-6.0-2.23","63dd3dd2593c92be97d8dbde","bdp_trlrn","Sat Apr 08 2023 08:38:38 GMT-0700 (Pacific Daylight Time)","494719","Untrustworthy,Trustworthy","","null","","","","ratingFB","","trustrating_stim/white_mw056.bmp","null","","","","","","","","","","","",""
"image-keyboard-response","53","53197","0.0-6.0-1.24","63dd3dd2593c92be97d8dbde","bdp_trlrn","Sat Apr 08 2023 08:38:38 GMT-0700 (Pacific Daylight Time)","494719","Untrustworthy,Trustworthy","","1146","","","","rating","","trustrating_stim/white_mw099.bmp","4","","","","","","","","","","","",""
"image-keyboard-response","54","53398","0.0-6.0-2.24","63dd3dd2593c92be97d8dbde","bdp_trlrn","Sat Apr 08 2023 08:38:38 GMT-0700 (Pacific Daylight Time)","494719","Untrustworthy,Trustworthy","","null","","","","ratingFB","","trustrating_stim/white_mw099.bmp","null","","","","","","","","","","","",""
"image-keyboard-response","55","55438","0.0-6.0-1.25","63dd3dd2593c92be97d8dbde","bdp_trlrn","Sat Apr 08 2023 08:38:38 GMT-0700 (Pacific Daylight Time)","494719","Untrustworthy,Trustworthy","","1939","","","","rating","","trustrating_stim/white_mw097.bmp","1","","","","","","","","","","","",""
"image-keyboard-response","56","55639","0.0-6.0-2.25","63dd3dd2593c92be97d8dbde","bdp_trlrn","Sat Apr 08 2023 08:38:38 GMT-0700 (Pacific Daylight Time)","494719","Untrustworthy,Trustworthy","","null","","","","ratingFB","","trustrating_stim/white_mw097.bmp","null","","","","","","","","","","","",""
"image-keyboard-response","57","56630","0.0-6.0-1.26","63dd3dd2593c92be97d8dbde","bdp_trlrn","Sat Apr 08 2023 08:38:38 GMT-0700 (Pacific Daylight Time)","494719","Untrustworthy,Trustworthy","","890","","","","rating","","trustrating_stim/white_00340_940422_fa_edt.bmp","1","","","","","","","","","","","",""
"image-keyboard-response","58","56832","0.0-6.0-2.26","63dd3dd2593c92be97d8dbde","bdp_trlrn","Sat Apr 08 2023 08:38:38 GMT-0700 (Pacific Daylight Time)","494719","Untrustworthy,Trustworthy","","null","","","","ratingFB","","trustrating_stim/white_00340_940422_fa_edt.bmp","null","","","","","","","","","","","",""
"image-keyboard-response","59","58702","0.0-6.0-1.27","63dd3dd2593c92be97d8dbde","bdp_trlrn","Sat Apr 08 2023 08:38:38 GMT-0700 (Pacific Daylight Time)","494719","Untrustworthy,Trustworthy","","1769","","","","rating","","trustrating_stim/white_00898_960530_fa_edt.bmp","9","","","","","","","","","","","",""
"image-keyboard-response","60","58904","0.0-6.0-2.27","63dd3dd2593c92be97d8dbde","bdp_trlrn","Sat Apr 08 2023 08:38:38 GMT-0700 (Pacific Daylight Time)","494719","Untrustworthy,Trustworthy","","null","","","","ratingFB","","trustrating_stim/white_00898_960530_fa_edt.bmp","null","","","","","","","","","","","",""
"image-keyboard-response","61","60286","0.0-6.0-1.28","63dd3dd2593c92be97d8dbde","bdp_trlrn","Sat Apr 08 2023 08:38:38 GMT-0700 (Pacific Daylight Time)","494719","Untrustworthy,Trustworthy","","1281","","","","rating","","trustrating_stim/white_00299_940422_fa_edt.bmp","6","","","","","","","","","","","",""
"image-keyboard-response","62","60489","0.0-6.0-2.28","63dd3dd2593c92be97d8dbde","bdp_trlrn","Sat Apr 08 2023 08:38:38 GMT-0700 (Pacific Daylight Time)","494719","Untrustworthy,Trustworthy","","null","","","","ratingFB","","trustrating_stim/white_00299_940422_fa_edt.bmp","null","","","","","","","","","","","",""
"image-keyboard-response","63","61838","0.0-6.0-1.29","63dd3dd2593c92be97d8dbde","bdp_trlrn","Sat Apr 08 2023 08:38:38 GMT-0700 (Pacific Daylight Time)","494719","Untrustworthy,Trustworthy","","1248","","","","rating","","trustrating_stim/white_00785_941205_fb_edt.bmp","3","","","","","","","","","","","",""
"image-keyboard-response","64","62040","0.0-6.0-2.29","63dd3dd2593c92be97d8dbde","bdp_trlrn","Sat Apr 08 2023 08:38:38 GMT-0700 (Pacific Daylight Time)","494719","Untrustworthy,Trustworthy","","null","","","","ratingFB","","trustrating_stim/white_00785_941205_fb_edt.bmp","null","","","","","","","","","","","",""
"image-keyboard-response","65","63119","0.0-6.0-1.30","63dd3dd2593c92be97d8dbde","bdp_trlrn","Sat Apr 08 2023 08:38:38 GMT-0700 (Pacific Daylight Time)","494719","Untrustworthy,Trustworthy","","978","","","","rating","","trustrating_stim/white_mw084.bmp","1","","","","","","","","","","","",""
"image-keyboard-response","66","63320","0.0-6.0-2.30","63dd3dd2593c92be97d8dbde","bdp_trlrn","Sat Apr 08 2023 08:38:38 GMT-0700 (Pacific Daylight Time)","494719","Untrustworthy,Trustworthy","","null","","","","ratingFB","","trustrating_stim/white_mw084.bmp","null","","","","","","","","","","","",""
"image-keyboard-response","67","64183","0.0-6.0-1.31","63dd3dd2593c92be97d8dbde","bdp_trlrn","Sat Apr 08 2023 08:38:38 GMT-0700 (Pacific Daylight Time)","494719","Untrustworthy,Trustworthy","","762","","","","rating","","trustrating_stim/white_mw046.bmp","1","","","","","","","","","","","",""
"image-keyboard-response","68","64384","0.0-6.0-2.31","63dd3dd2593c92be97d8dbde","bdp_trlrn","Sat Apr 08 2023 08:38:38 GMT-0700 (Pacific Daylight Time)","494719","Untrustworthy,Trustworthy","","null","","","","ratingFB","","trustrating_stim/white_mw046.bmp","null","","","","","","","","","","","",""
"image-keyboard-response","69","65391","0.0-6.0-1.32","63dd3dd2593c92be97d8dbde","bdp_trlrn","Sat Apr 08 2023 08:38:38 GMT-0700 (Pacific Daylight Time)","494719","Untrustworthy,Trustworthy","","905","","","","rating","","trustrating_stim/white_00757_941201_fa_edt.bmp","1","","","","","","","","","","","",""
"image-keyboard-response","70","65593","0.0-6.0-2.32","63dd3dd2593c92be97d8dbde","bdp_trlrn","Sat Apr 08 2023 08:38:38 GMT-0700 (Pacific Daylight Time)","494719","Untrustworthy,Trustworthy","","null","","","","ratingFB","","trustrating_stim/white_00757_941201_fa_edt.bmp","null","","","","","","","","","","","",""
"image-keyboard-response","71","66368","0.0-6.0-1.33","63dd3dd2593c92be97d8dbde","bdp_trlrn","Sat Apr 08 2023 08:38:38 GMT-0700 (Pacific Daylight Time)","494719","Untrustworthy,Trustworthy","","673","","","","rating","","trustrating_stim/white_00659_941121_fa_edt.bmp","1","","","","","","","","","","","",""
"image-keyboard-response","72","66569","0.0-6.0-2.33","63dd3dd2593c92be97d8dbde","bdp_trlrn","Sat Apr 08 2023 08:38:38 GMT-0700 (Pacific Daylight Time)","494719","Untrustworthy,Trustworthy","","null","","","","ratingFB","","trustrating_stim/white_00659_941121_fa_edt.bmp","null","","","","","","","","","","","",""
"image-keyboard-response","73","68143","0.0-6.0-1.34","63dd3dd2593c92be97d8dbde","bdp_trlrn","Sat Apr 08 2023 08:38:38 GMT-0700 (Pacific Daylight Time)","494719","Untrustworthy,Trustworthy","","1473","","","","rating","","trustrating_stim/white_00299_940422_fa_edt.bmp","3","","","","","","","","","","","",""
"image-keyboard-response","74","68346","0.0-6.0-2.34","63dd3dd2593c92be97d8dbde","bdp_trlrn","Sat Apr 08 2023 08:38:38 GMT-0700 (Pacific Daylight Time)","494719","Untrustworthy,Trustworthy","","null","","","","ratingFB","","trustrating_stim/white_00299_940422_fa_edt.bmp","null","","","","","","","","","","","",""
"image-keyboard-response","75","71016","0.0-6.0-1.35","63dd3dd2593c92be97d8dbde","bdp_trlrn","Sat Apr 08 2023 08:38:38 GMT-0700 (Pacific Daylight Time)","494719","Untrustworthy,Trustworthy","","2569","","","","rating","","trustrating_stim/white_00898_960530_fa_edt.bmp","7","","","","","","","","","","","",""
"image-keyboard-response","76","71218","0.0-6.0-2.35","63dd3dd2593c92be97d8dbde","bdp_trlrn","Sat Apr 08 2023 08:38:38 GMT-0700 (Pacific Daylight Time)","494719","Untrustworthy,Trustworthy","","null","","","","ratingFB","","trustrating_stim/white_00898_960530_fa_edt.bmp","null","","","","","","","","","","","",""
"image-keyboard-response","77","72528","0.0-6.0-1.36","63dd3dd2593c92be97d8dbde","bdp_trlrn","Sat Apr 08 2023 08:38:38 GMT-0700 (Pacific Daylight Time)","494719","Untrustworthy,Trustworthy","","1209","","","","rating","","trustrating_stim/white_mw035.bmp","4","","","","","","","","","","","",""
"image-keyboard-response","78","72729","0.0-6.0-2.36","63dd3dd2593c92be97d8dbde","bdp_trlrn","Sat Apr 08 2023 08:38:38 GMT-0700 (Pacific Daylight Time)","494719","Untrustworthy,Trustworthy","","null","","","","ratingFB","","trustrating_stim/white_mw035.bmp","null","","","","","","","","","","","",""
"image-keyboard-response","79","74464","0.0-6.0-1.37","63dd3dd2593c92be97d8dbde","bdp_trlrn","Sat Apr 08 2023 08:38:38 GMT-0700 (Pacific Daylight Time)","494719","Untrustworthy,Trustworthy","","1634","","","","rating","","trustrating_stim/white_00761_941201_fb_edt.bmp","3","","","","","","","","","","","",""
"image-keyboard-response","80","74665","0.0-6.0-2.37","63dd3dd2593c92be97d8dbde","bdp_trlrn","Sat Apr 08 2023 08:38:38 GMT-0700 (Pacific Daylight Time)","494719","Untrustworthy,Trustworthy","","null","","","","ratingFB","","trustrating_stim/white_00761_941201_fb_edt.bmp","null","","","","","","","","","","","",""
"image-keyboard-response","81","76457","0.0-6.0-1.38","63dd3dd2593c92be97d8dbde","bdp_trlrn","Sat Apr 08 2023 08:38:38 GMT-0700 (Pacific Daylight Time)","494719","Untrustworthy,Trustworthy","","1691","","","","rating","","trustrating_stim/white_mw097.bmp","1","","","","","","","","","","","",""
"image-keyboard-response","82","76658","0.0-6.0-2.38","63dd3dd2593c92be97d8dbde","bdp_trlrn","Sat Apr 08 2023 08:38:38 GMT-0700 (Pacific Daylight Time)","494719","Untrustworthy,Trustworthy","","null","","","","ratingFB","","trustrating_stim/white_mw097.bmp","null","","","","","","","","","","","",""
"image-keyboard-response","83","77761","0.0-6.0-1.39","63dd3dd2593c92be97d8dbde","bdp_trlrn","Sat Apr 08 2023 08:38:38 GMT-0700 (Pacific Daylight Time)","494719","Untrustworthy,Trustworthy","","1002","","","","rating","","trustrating_stim/white_00340_940422_fa_edt.bmp","1","","","","","","","","","","","",""
"image-keyboard-response","84","77962","0.0-6.0-2.39","63dd3dd2593c92be97d8dbde","bdp_trlrn","Sat Apr 08 2023 08:38:38 GMT-0700 (Pacific Daylight Time)","494719","Untrustworthy,Trustworthy","","null","","","","ratingFB","","trustrating_stim/white_00340_940422_fa_edt.bmp","null","","","","","","","","","","","",""
"image-keyboard-response","85","79945","0.0-6.0-1.40","63dd3dd2593c92be97d8dbde","bdp_trlrn","Sat Apr 08 2023 08:38:38 GMT-0700 (Pacific Daylight Time)","494719","Untrustworthy,Trustworthy","","1880","","","","rating","","trustrating_stim/white_00577_940928_fa_edt.bmp","1","","","","","","","","","","","",""
"image-keyboard-response","86","80146","0.0-6.0-2.40","63dd3dd2593c92be97d8dbde","bdp_trlrn","Sat Apr 08 2023 08:38:38 GMT-0700 (Pacific Daylight Time)","494719","Untrustworthy,Trustworthy","","null","","","","ratingFB","","trustrating_stim/white_00577_940928_fa_edt.bmp","null","","","","","","","","","","","",""
"","","","","63dd3dd2593c92be97d8dbde","bdp_trlrn","Sat Apr 08 2023 08:38:38 GMT-0700 (Pacific Daylight Time)","494719","Untrustworthy,Trustworthy","","","blur","87","82163","blurevent","","","","1","","","","","","","","","","",""
"","","","","63dd3dd2593c92be97d8dbde","bdp_trlrn","Sat Apr 08 2023 08:38:38 GMT-0700 (Pacific Daylight Time)","494719","Untrustworthy,Trustworthy","","","focus","87","84854","focusevent","","","","","","","","","","","","","","",""
"image-keyboard-response","87","85146","0.0-6.0-1.41","63dd3dd2593c92be97d8dbde","bdp_trlrn","Sat Apr 08 2023 08:38:38 GMT-0700 (Pacific Daylight Time)","494719","Untrustworthy,Trustworthy","","4898","blur","87","82163","rating","","trustrating_stim/white_00602_940928_fb_edt.bmp","6","1","","","","","","","","","","",""
"image-keyboard-response","88","85347","0.0-6.0-2.41","63dd3dd2593c92be97d8dbde","bdp_trlrn","Sat Apr 08 2023 08:38:38 GMT-0700 (Pacific Daylight Time)","494719","Untrustworthy,Trustworthy","","null","","","","ratingFB","","trustrating_stim/white_00602_940928_fb_edt.bmp","null","","","","","","","","","","","",""
"image-keyboard-response","89","92331","0.0-6.0-0.42-0.42","63dd3dd2593c92be97d8dbde","bdp_trlrn","Sat Apr 08 2023 08:38:38 GMT-0700 (Pacific Daylight Time)","494719","Untrustworthy,Trustworthy","","6883","","","","blurwarn","","","49","1","","","","","","","","","","",""
"image-keyboard-response","90","94091","0.0-6.0-1.42","63dd3dd2593c92be97d8dbde","bdp_trlrn","Sat Apr 08 2023 08:38:38 GMT-0700 (Pacific Daylight Time)","494719","Untrustworthy,Trustworthy","","1508","","","","rating","","trustrating_stim/white_mw048.bmp","3","","","","","","","","","","","",""
"image-keyboard-response","91","94293","0.0-6.0-2.42","63dd3dd2593c92be97d8dbde","bdp_trlrn","Sat Apr 08 2023 08:38:38 GMT-0700 (Pacific Daylight Time)","494719","Untrustworthy,Trustworthy","","null","","","","ratingFB","","trustrating_stim/white_mw048.bmp","null","","","","","","","","","","","",""
"image-keyboard-response","92","98308","0.0-6.0-1.43","63dd3dd2593c92be97d8dbde","bdp_trlrn","Sat Apr 08 2023 08:38:38 GMT-0700 (Pacific Daylight Time)","494719","Untrustworthy,Trustworthy","","3914","","","","rating","","trustrating_stim/white_mw066.bmp","5","","","","","","","","","","","",""
"image-keyboard-response","93","98509","0.0-6.0-2.43","63dd3dd2593c92be97d8dbde","bdp_trlrn","Sat Apr 08 2023 08:38:38 GMT-0700 (Pacific Daylight Time)","494719","Untrustworthy,Trustworthy","","null","","","","ratingFB","","trustrating_stim/white_mw066.bmp","null","","","","","","","","","","","",""
"image-keyboard-response","94","100028","0.0-6.0-1.44","63dd3dd2593c92be97d8dbde","bdp_trlrn","Sat Apr 08 2023 08:38:38 GMT-0700 (Pacific Daylight Time)","494719","Untrustworthy,Trustworthy","","1418","","","","rating","","trustrating_stim/white_mw071.bmp","3","","","","","","","","","","","",""
"image-keyboard-response","95","100229","0.0-6.0-2.44","63dd3dd2593c92be97d8dbde","bdp_trlrn","Sat Apr 08 2023 08:38:38 GMT-0700 (Pacific Daylight Time)","494719","Untrustworthy,Trustworthy","","null","","","","ratingFB","","trustrating_stim/white_mw071.bmp","null","","","","","","","","","","","",""
"image-keyboard-response","96","103557","0.0-6.0-1.45","63dd3dd2593c92be97d8dbde","bdp_trlrn","Sat Apr 08 2023 08:38:38 GMT-0700 (Pacific Daylight Time)","494719","Untrustworthy,Trustworthy","","3226","","","","rating","","trustrating_stim/white_00519_940519_fb_edt.bmp","2","","","","","","","","","","","",""
"image-keyboard-response","97","103758","0.0-6.0-2.45","63dd3dd2593c92be97d8dbde","bdp_trlrn","Sat Apr 08 2023 08:38:38 GMT-0700 (Pacific Daylight Time)","494719","Untrustworthy,Trustworthy","","null","","","","ratingFB","","trustrating_stim/white_00519_940519_fb_edt.bmp","null","","","","","","","","","","","",""
"image-keyboard-response","98","104669","0.0-6.0-1.46","63dd3dd2593c92be97d8dbde","bdp_trlrn","Sat Apr 08 2023 08:38:38 GMT-0700 (Pacific Daylight Time)","494719","Untrustworthy,Trustworthy","","809","","","","rating","","trustrating_stim/white_00109_931230_fa_edt.bmp","5","","","","","","","","","","","",""
"image-keyboard-response","99","104870","0.0-6.0-2.46","63dd3dd2593c92be97d8dbde","bdp_trlrn","Sat Apr 08 2023 08:38:38 GMT-0700 (Pacific Daylight Time)","494719","Untrustworthy,Trustworthy","","null","","","","ratingFB","","trustrating_stim/white_00109_931230_fa_edt.bmp","null","","","","","","","","","","","",""
"image-keyboard-response","100","105541","0.0-6.0-1.47","63dd3dd2593c92be97d8dbde","bdp_trlrn","Sat Apr 08 2023 08:38:38 GMT-0700 (Pacific Daylight Time)","494719","Untrustworthy,Trustworthy","","570","","","","rating","","trustrating_stim/white_mw089.bmp","7","","","","","","","","","","","",""
"image-keyboard-response","101","105742","0.0-6.0-2.47","63dd3dd2593c92be97d8dbde","bdp_trlrn","Sat Apr 08 2023 08:38:38 GMT-0700 (Pacific Daylight Time)","494719","Untrustworthy,Trustworthy","","null","","","","ratingFB","","trustrating_stim/white_mw089.bmp","null","","","","","","","","","","","",""
"image-keyboard-response","102","107061","0.0-6.0-1.48","63dd3dd2593c92be97d8dbde","bdp_trlrn","Sat Apr 08 2023 08:38:38 GMT-0700 (Pacific Daylight Time)","494719","Untrustworthy,Trustworthy","","1218","","","","rating","","trustrating_stim/white_mw049.bmp","3","","","","","","","","","","","",""
"image-keyboard-response","103","107263","0.0-6.0-2.48","63dd3dd2593c92be97d8dbde","bdp_trlrn","Sat Apr 08 2023 08:38:38 GMT-0700 (Pacific Daylight Time)","494719","Untrustworthy,Trustworthy","","null","","","","ratingFB","","trustrating_stim/white_mw049.bmp","null","","","","","","","","","","","",""
"image-keyboard-response","104","108405","0.0-6.0-1.49","63dd3dd2593c92be97d8dbde","bdp_trlrn","Sat Apr 08 2023 08:38:38 GMT-0700 (Pacific Daylight Time)","494719","Untrustworthy,Trustworthy","","1040","","","","rating","","trustrating_stim/white_mw033.bmp","4","","","","","","","","","","","",""
"image-keyboard-response","105","108607","0.0-6.0-2.49","63dd3dd2593c92be97d8dbde","bdp_trlrn","Sat Apr 08 2023 08:38:38 GMT-0700 (Pacific Daylight Time)","494719","Untrustworthy,Trustworthy","","null","","","","ratingFB","","trustrating_stim/white_mw033.bmp","null","","","","","","","","","","","",""
"image-keyboard-response","106","109989","0.0-6.0-1.50","63dd3dd2593c92be97d8dbde","bdp_trlrn","Sat Apr 08 2023 08:38:38 GMT-0700 (Pacific Daylight Time)","494719","Untrustworthy,Trustworthy","","1281","","","","rating","","trustrating_stim/white_mw063.bmp","2","","","","","","","","","","","",""
"image-keyboard-response","107","110191","0.0-6.0-2.50","63dd3dd2593c92be97d8dbde","bdp_trlrn","Sat Apr 08 2023 08:38:38 GMT-0700 (Pacific Daylight Time)","494719","Untrustworthy,Trustworthy","","null","","","","ratingFB","","trustrating_stim/white_mw063.bmp","null","","","","","","","","","","","",""
"image-keyboard-response","108","112774","0.0-6.0-1.51","63dd3dd2593c92be97d8dbde","bdp_trlrn","Sat Apr 08 2023 08:38:38 GMT-0700 (Pacific Daylight Time)","494719","Untrustworthy,Trustworthy","","2481","","","","rating","","trustrating_stim/white_00223_940128_fb_edt.bmp","6","","","","","","","","","","","",""
"image-keyboard-response","109","112976","0.0-6.0-2.51","63dd3dd2593c92be97d8dbde","bdp_trlrn","Sat Apr 08 2023 08:38:38 GMT-0700 (Pacific Daylight Time)","494719","Untrustworthy,Trustworthy","","null","","","","ratingFB","","trustrating_stim/white_00223_940128_fb_edt.bmp","null","","","","","","","","","","","",""
"image-keyboard-response","110","113734","0.0-6.0-1.52","63dd3dd2593c92be97d8dbde","bdp_trlrn","Sat Apr 08 2023 08:38:38 GMT-0700 (Pacific Daylight Time)","494719","Untrustworthy,Trustworthy","","656","","","","rating","","trustrating_stim/white_00785_941205_fb_edt.bmp","4","","","","","","","","","","","",""
"image-keyboard-response","111","113935","0.0-6.0-2.52","63dd3dd2593c92be97d8dbde","bdp_trlrn","Sat Apr 08 2023 08:38:38 GMT-0700 (Pacific Daylight Time)","494719","Untrustworthy,Trustworthy","","null","","","","ratingFB","","trustrating_stim/white_00785_941205_fb_edt.bmp","null","","","","","","","","","","","",""
"image-keyboard-response","112","114998","0.0-6.0-1.53","63dd3dd2593c92be97d8dbde","bdp_trlrn","Sat Apr 08 2023 08:38:38 GMT-0700 (Pacific Daylight Time)","494719","Untrustworthy,Trustworthy","","962","","","","rating","","trustrating_stim/white_mw060.bmp","3","","","","","","","","","","","",""
"image-keyboard-response","113","115200","0.0-6.0-2.53","63dd3dd2593c92be97d8dbde","bdp_trlrn","Sat Apr 08 2023 08:38:38 GMT-0700 (Pacific Daylight Time)","494719","Untrustworthy,Trustworthy","","null","","","","ratingFB","","trustrating_stim/white_mw060.bmp","null","","","","","","","","","","","",""
"image-keyboard-response","114","117014","0.0-6.0-1.54","63dd3dd2593c92be97d8dbde","bdp_trlrn","Sat Apr 08 2023 08:38:38 GMT-0700 (Pacific Daylight Time)","494719","Untrustworthy,Trustworthy","","1713","","","","rating","","trustrating_stim/white_mw053.bmp","9","","","","","","","","","","","",""
"image-keyboard-response","115","117215","0.0-6.0-2.54","63dd3dd2593c92be97d8dbde","bdp_trlrn","Sat Apr 08 2023 08:38:38 GMT-0700 (Pacific Daylight Time)","494719","Untrustworthy,Trustworthy","","null","","","","ratingFB","","trustrating_stim/white_mw053.bmp","null","","","","","","","","","","","",""
"image-keyboard-response","116","118542","0.0-6.0-1.55","63dd3dd2593c92be97d8dbde","bdp_trlrn","Sat Apr 08 2023 08:38:38 GMT-0700 (Pacific Daylight Time)","494719","Untrustworthy,Trustworthy","","1226","","","","rating","","trustrating_stim/white_mw099.bmp","7","","","","","","","","","","","",""
"image-keyboard-response","117","118743","0.0-6.0-2.55","63dd3dd2593c92be97d8dbde","bdp_trlrn","Sat Apr 08 2023 08:38:38 GMT-0700 (Pacific Daylight Time)","494719","Untrustworthy,Trustworthy","","null","","","","ratingFB","","trustrating_stim/white_mw099.bmp","null","","","","","","","","","","","",""
"image-keyboard-response","118","119358","0.0-6.0-1.56","63dd3dd2593c92be97d8dbde","bdp_trlrn","Sat Apr 08 2023 08:38:38 GMT-0700 (Pacific Daylight Time)","494719","Untrustworthy,Trustworthy","","513","","","","rating","","trustrating_stim/white_00129_931230_fb_edt.bmp","3","","","","","","","","","","","",""
"image-keyboard-response","119","119559","0.0-6.0-2.56","63dd3dd2593c92be97d8dbde","bdp_trlrn","Sat Apr 08 2023 08:38:38 GMT-0700 (Pacific Daylight Time)","494719","Untrustworthy,Trustworthy","","null","","","","ratingFB","","trustrating_stim/white_00129_931230_fb_edt.bmp","null","","","","","","","","","","","",""
"image-keyboard-response","120","121143","0.0-6.0-1.57","63dd3dd2593c92be97d8dbde","bdp_trlrn","Sat Apr 08 2023 08:38:38 GMT-0700 (Pacific Daylight Time)","494719","Untrustworthy,Trustworthy","","1482","","","","rating","","trustrating_stim/white_00807_941205_fb_edt.bmp","6","","","","","","","","","","","",""
"image-keyboard-response","121","121345","0.0-6.0-2.57","63dd3dd2593c92be97d8dbde","bdp_trlrn","Sat Apr 08 2023 08:38:38 GMT-0700 (Pacific Daylight Time)","494719","Untrustworthy,Trustworthy","","null","","","","ratingFB","","trustrating_stim/white_00807_941205_fb_edt.bmp","null","","","","","","","","","","","",""
"image-keyboard-response","122","122823","0.0-6.0-1.58","63dd3dd2593c92be97d8dbde","bdp_trlrn","Sat Apr 08 2023 08:38:38 GMT-0700 (Pacific Daylight Time)","494719","Untrustworthy,Trustworthy","","1377","","","","rating","","trustrating_stim/white_mw056.bmp","7","","","","","","","","","","","",""
"image-keyboard-response","123","123024","0.0-6.0-2.58","63dd3dd2593c92be97d8dbde","bdp_trlrn","Sat Apr 08 2023 08:38:38 GMT-0700 (Pacific Daylight Time)","494719","Untrustworthy,Trustworthy","","null","","","","ratingFB","","trustrating_stim/white_mw056.bmp","null","","","","","","","","","","","",""
"image-keyboard-response","124","123824","0.0-6.0-1.59","63dd3dd2593c92be97d8dbde","bdp_trlrn","Sat Apr 08 2023 08:38:38 GMT-0700 (Pacific Daylight Time)","494719","Untrustworthy,Trustworthy","","697","","","","rating","","trustrating_stim/white_00120_931230_fa_edt.bmp","3","","","","","","","","","","","",""
"image-keyboard-response","125","124024","0.0-6.0-2.59","63dd3dd2593c92be97d8dbde","bdp_trlrn","Sat Apr 08 2023 08:38:38 GMT-0700 (Pacific Daylight Time)","494719","Untrustworthy,Trustworthy","","null","","","","ratingFB","","trustrating_stim/white_00120_931230_fa_edt.bmp","null","","","","","","","","","","","",""
"instructions","126","126511","0.0-7.0","63dd3dd2593c92be97d8dbde","bdp_trlrn","Sat Apr 08 2023 08:38:38 GMT-0700 (Pacific Daylight Time)","494719","Untrustworthy,Trustworthy","[{""page_index"":0,""viewing_time"":2386}]","2386","","","","","","","","","","","","","","","","","","",""
"instructions","127","226789","0.0-8.0","63dd3dd2593c92be97d8dbde","bdp_trlrn","Sat Apr 08 2023 08:38:38 GMT-0700 (Pacific Daylight Time)","494719","Untrustworthy,Trustworthy","[{""page_index"":0,""viewing_time"":57499},{""page_index"":1,""viewing_time"":11834},{""page_index"":2,""viewing_time"":7368},{""page_index"":3,""viewing_time"":6994},{""page_index"":4,""viewing_time"":3304},{""page_index"":5,""viewing_time"":3440},{""page_index"":6,""viewing_time"":7866},{""page_index"":7,""viewing_time"":1872}]","100177","","","","","","","","","","","","","","","","","","",""
"html-keyboard-response","128","233085","0.0-9.0","63dd3dd2593c92be97d8dbde","bdp_trlrn","Sat Apr 08 2023 08:38:38 GMT-0700 (Pacific Daylight Time)","494719","Untrustworthy,Trustworthy","","6296","","","","","","<div class='header' style='text-align:left; position: absolute; top: 5%; left: 5%;'><small>Task 3 of 5</small></div><div class='instruxDiv'><p><strong>1) What is the minimum number of points you can choose to send to your partner?</strong></p><p>a) 0</p><p>b) 1</p><p>c) 5</p>","B","","","","","","","","","","","",""
"html-keyboard-response","129","234013","0.0-10.0","63dd3dd2593c92be97d8dbde","bdp_trlrn","Sat Apr 08 2023 08:38:38 GMT-0700 (Pacific Daylight Time)","494719","Untrustworthy,Trustworthy","","827","","","","","","<div class='header' style='text-align:left; position: absolute; top: 5%; left: 5%;'><small>Task 3 of 5</small></div><div class='instruxDiv'><p><strong>1) What is the minimum number of points you can choose to send to your partner?</strong></p><p>a) 0</p><p style='color:#00FF00'>b) 1</p><p>c) 5</p><h3 style='color:#00FF00'>Correct!</h3><h3 class='center-content'>The correct response is b).</h3><h3 class='center-content'>The minimum number of points you can choose to send to your partner is 1 point.</h3><p><em>Press SPACEBAR to continue</em></p></div>"," ","","","","","","","","","","","",""
"html-keyboard-response","130","237295","0.0-11.0","63dd3dd2593c92be97d8dbde","bdp_trlrn","Sat Apr 08 2023 08:38:38 GMT-0700 (Pacific Daylight Time)","494719","Untrustworthy,Trustworthy","","3180","","","","","","<div class='header' style='text-align:left; position: absolute; top: 5%; left: 5%;'><small>Task 3 of 5</small></div><div class='instruxDiv'><p><strong>2) What is the maximum number of points you can choose to send to your partner?</strong></p><p>a) 8</p><p>b) 5</p><p>c) 3</p>","B","","","","","","","","","","","",""
"html-keyboard-response","131","237822","0.0-12.0","63dd3dd2593c92be97d8dbde","bdp_trlrn","Sat Apr 08 2023 08:38:38 GMT-0700 (Pacific Daylight Time)","494719","Untrustworthy,Trustworthy","","426","","","","","","<div class='header' style='text-align:left; position: absolute; top: 5%; left: 5%;'><small>Task 3 of 5</small></div><div class='instruxDiv'><p><strong>2) What is the maximum number of points you can choose to send to your partner?</strong></p><p>a) 8</p><p style='color:#00FF00'>b) 5</p><p>c) 3</p><h3 style='color:#00FF00'>Correct!</h3><h3 class='center-content'>The correct response is b).</h3><h3 class='center-content'>The maximum number of points you can choose to send to your partner is 5 points.</h3><p><em>Press SPACEBAR to continue</em></p></div>"," ","","","","","","","","","","","",""
"html-keyboard-response","132","240831","0.0-13.0","63dd3dd2593c92be97d8dbde","bdp_trlrn","Sat Apr 08 2023 08:38:38 GMT-0700 (Pacific Daylight Time)","494719","Untrustworthy,Trustworthy","","2908","","","","","","<div class='header' style='text-align:left; position: absolute; top: 5%; left: 5%;'><small>Task 3 of 5</small></div><div class='instruxDiv'><p><strong>3) What happens to the amount of points you send to your partner?</strong></p><p>a) Nothing</p><p>b) It doubles</p><p>c) It quadruples</p>","C","","","","","","","","","","","",""
"html-keyboard-response","133","241438","0.0-14.0","63dd3dd2593c92be97d8dbde","bdp_trlrn","Sat Apr 08 2023 08:38:38 GMT-0700 (Pacific Daylight Time)","494719","Untrustworthy,Trustworthy","","507","","","","","","<div class='header' style='text-align:left; position: absolute; top: 5%; left: 5%;'><small>Task 3 of 5</small></div><div class='instruxDiv'><p><strong>3) What happens to the amount of points you send to your partner?</strong></p><p>a) Nothing</p><p>b) It doubles</p><p style='color:#00FF00'>c) It quadruples</p><h3 style='color:#00FF00'>Correct!</h3><h3 class='center-content'>The correct response is c).</h3><h3 class='center-content'>The amount of points you send to your partner quadruples.</h3><p><em>Press SPACEBAR to continue</em></p></div>"," ","","","","","","","","","","","",""
"html-keyboard-response","134","249200","0.0-15.0","63dd3dd2593c92be97d8dbde","bdp_trlrn","Sat Apr 08 2023 08:38:38 GMT-0700 (Pacific Daylight Time)","494719","Untrustworthy,Trustworthy","","7660","","","","","","<div class='header' style='text-align:left; position: absolute; top: 5%; left: 5%;'><small>Task 3 of 5</small></div><div class='instruxDiv'><p><strong>4) If you decided to share 4 out of 5 points with your partner, and they decided to share half of the amount they received with you, how many points would you receive back from them on this round?</strong></p><p>a) 16</p><p>b) 0</p><p>c) 8</p>","C","","","","","","","","","","","",""
"html-keyboard-response","135","249856","0.0-16.0","63dd3dd2593c92be97d8dbde","bdp_trlrn","Sat Apr 08 2023 08:38:38 GMT-0700 (Pacific Daylight Time)","494719","Untrustworthy,Trustworthy","","555","","","","","","<div class='header' style='text-align:left; position: absolute; top: 5%; left: 5%;'><small>Task 3 of 5</small></div><div class='instruxDiv'><p><strong>4) If you decided to share 4 out of 5 points with your partner, and they decided to share half of the amount they received with you, how many points would you receive back from them on this round?</strong></p><p>a) 16</p><p>b) 0</p><p style='color:#00FF00'>c) 8</p><h3 style='color:#00FF00'>Correct!</h3><h3 class='center-content'>The correct response is c).</h3><h3 class='center-content'>If you shared 4 out of 5 points with your partner and they decided to share half of the amount they received with you, you would receive 8 points back (i.e. (4 x 4)/2 = 8).</h3><p><em>Press SPACEBAR to continue</em></p></div>"," ","","","","","","","","","","","",""
"html-keyboard-response","136","254959","0.0-17.0","63dd3dd2593c92be97d8dbde","bdp_trlrn","Sat Apr 08 2023 08:38:38 GMT-0700 (Pacific Daylight Time)","494719","Untrustworthy,Trustworthy","","null","","","","","","<div class='header' style='text-align:left; position: absolute; top: 5%; left: 5%;'><small>Task 3 of 5</small></div><div class='instruxDiv'><p>Thank you for completing the quiz<p>These are the actual partners you will be interacting with in the next block:<p><div class='tc' align='center'><img class='introPic' src='trustrating_stim/white_mw097.bmp'><br><strong>Evan</strong></div><div class='bl' align='center'><img class='introPic' src='trustrating_stim/white_mw089.bmp'><br><strong>Benjamin</strong></div><div class='br' align='center'><img class='introPic' src='trustrating_stim/white_00602_940928_fb_edt.bmp'><br><strong>Timothy</strong></div></div><p>Across <strong>66 rounds</strong> you will interact with each partner <strong>22 times</strong> (in random order).<p style='align:center; color:white'><font <em>Press SPACEBAR to continue</em></p>","null","","","","","","","","","","","",""
"instructions","137","258489","0.0-18.0","63dd3dd2593c92be97d8dbde","bdp_trlrn","Sat Apr 08 2023 08:38:38 GMT-0700 (Pacific Daylight Time)","494719","Untrustworthy,Trustworthy","[{""page_index"":0,""viewing_time"":1538},{""page_index"":1,""viewing_time"":1992}]","3530","","","","","","","","","","","","","","","","","","",""
"html-keyboard-response","138","259169","0.0-19.0-1.0","63dd3dd2593c92be97d8dbde","bdp_trlrn","Sat Apr 08 2023 08:38:38 GMT-0700 (Pacific Daylight Time)","494719","Untrustworthy,Trustworthy","","578","","","","decision","","<div class='trialDiv'><img src='trustrating_stim/white_00602_940928_fb_edt.bmp'><br><font class='baseline'><strong>Timothy</strong><p>Choose number of points to send.</font><div class='respPicDiv'><img src='img/responseButtonOffersNo0L.png' class='respPic'></div></div>","5","","1","Timothy","8","Shared","0.35,0.8","11","0.35","trustrating_stim/white_00602_940928_fb_edt.bmp","6","5","1"
"html-keyboard-response","139","259420","0.0-19.0-2.0","63dd3dd2593c92be97d8dbde","bdp_trlrn","Sat Apr 08 2023 08:38:38 GMT-0700 (Pacific Daylight Time)","494719","Untrustworthy,Trustworthy","","null","","","","decisionFB","","<div class='trialDiv'><img src='trustrating_stim/white_00602_940928_fb_edt.bmp'><br><font class='baseline'><strong>Timothy</strong><p>Choose number of points to send.</font><div class='respPicDiv'><img src='img/responseButtonOffersNo0L5.png' class='respPic'></div></div>","null","","1","Timothy","8","Shared","0.35,0.8","11","0.35","trustrating_stim/white_00602_940928_fb_edt.bmp","6","0","1"
"html-keyboard-response","140","260422","0.0-19.0-3.0","63dd3dd2593c92be97d8dbde","bdp_trlrn","Sat Apr 08 2023 08:38:38 GMT-0700 (Pacific Daylight Time)","494719","Untrustworthy,Trustworthy","","null","","","","feedback","","<div class='trialDiv'><img src='trustrating_stim/white_00602_940928_fb_edt.bmp'><br><font class='baseline'><strong>Timothy</strong><p>Received: <strong>20</strong></font> &nbsp; &nbsp; &nbsp; &nbsp; &nbsp; &nbsp;<font class='posOutcome'>Shared back: <strong>10</strong></font></font><div class='respPicDiv'><img src='img/responseButtonOffersNo0_wht.png' class='respPic'></div></div>","null","","1","Timothy","8","Shared","0.35,0.8","11","0.35","trustrating_stim/white_00602_940928_fb_edt.bmp","6","10","1"
"html-keyboard-response","141","260633","0.0-19.0-1.1","63dd3dd2593c92be97d8dbde","bdp_trlrn","Sat Apr 08 2023 08:38:38 GMT-0700 (Pacific Daylight Time)","494719","Untrustworthy,Trustworthy","","210","","","","decision","","<div class='trialDiv'><img src='trustrating_stim/white_mw097.bmp'><br><font class='baseline'><strong>Evan</strong><p>Choose number of points to send.</font><div class='respPicDiv'><img src='img/responseButtonOffersNo0L.png' class='respPic'></div></div>","5","","1","Evan","1","Shared","0.8,0.35","12","0.8","trustrating_stim/white_mw097.bmp","1","15","2"
"html-keyboard-response","142","260885","0.0-19.0-2.1","63dd3dd2593c92be97d8dbde","bdp_trlrn","Sat Apr 08 2023 08:38:38 GMT-0700 (Pacific Daylight Time)","494719","Untrustworthy,Trustworthy","","null","","","","decisionFB","","<div class='trialDiv'><img src='trustrating_stim/white_mw097.bmp'><br><font class='baseline'><strong>Evan</strong><p>Choose number of points to send.</font><div class='respPicDiv'><img src='img/responseButtonOffersNo0L5.png' class='respPic'></div></div>","null","","1","Evan","1","Shared","0.8,0.35","12","0.8","trustrating_stim/white_mw097.bmp","1","10","2"
"html-keyboard-response","143","261887","0.0-19.0-3.1","63dd3dd2593c92be97d8dbde","bdp_trlrn","Sat Apr 08 2023 08:38:38 GMT-0700 (Pacific Daylight Time)","494719","Untrustworthy,Trustworthy","","null","","","","feedback","","<div class='trialDiv'><img src='trustrating_stim/white_mw097.bmp'><br><font class='baseline'><strong>Evan</strong><p>Received: <strong>20</strong></font> &nbsp; &nbsp; &nbsp; &nbsp; &nbsp; &nbsp;<font class='posOutcome'>Shared back: <strong>10</strong></font></font><div class='respPicDiv'><img src='img/responseButtonOffersNo0_wht.png' class='respPic'></div></div>","null","","1","Evan","1","Shared","0.8,0.35","12","0.8","trustrating_stim/white_mw097.bmp","1","20","2"
"html-keyboard-response","144","262074","0.0-19.0-1.2","63dd3dd2593c92be97d8dbde","bdp_trlrn","Sat Apr 08 2023 08:38:38 GMT-0700 (Pacific Daylight Time)","494719","Untrustworthy,Trustworthy","","185","","","","decision","","<div class='trialDiv'><img src='trustrating_stim/white_mw089.bmp'><br><font class='baseline'><strong>Benjamin</strong><p>Choose number of points to send.</font><div class='respPicDiv'><img src='img/responseButtonOffersNo0L.png' class='respPic'></div></div>","5","","1","Benjamin","7","Shared","0.65,0.35","9","0.65","trustrating_stim/white_mw089.bmp","4","25","3"
"html-keyboard-response","145","262326","0.0-19.0-2.2","63dd3dd2593c92be97d8dbde","bdp_trlrn","Sat Apr 08 2023 08:38:38 GMT-0700 (Pacific Daylight Time)","494719","Untrustworthy,Trustworthy","","null","","","","decisionFB","","<div class='trialDiv'><img src='trustrating_stim/white_mw089.bmp'><br><font class='baseline'><strong>Benjamin</strong><p>Choose number of points to send.</font><div class='respPicDiv'><img src='img/responseButtonOffersNo0L5.png' class='respPic'></div></div>","null","","1","Benjamin","7","Shared","0.65,0.35","9","0.65","trustrating_stim/white_mw089.bmp","4","20","3"
"html-keyboard-response","146","263327","0.0-19.0-3.2","63dd3dd2593c92be97d8dbde","bdp_trlrn","Sat Apr 08 2023 08:38:38 GMT-0700 (Pacific Daylight Time)","494719","Untrustworthy,Trustworthy","","null","","","","feedback","","<div class='trialDiv'><img src='trustrating_stim/white_mw089.bmp'><br><font class='baseline'><strong>Benjamin</strong><p>Received: <strong>20</strong></font> &nbsp; &nbsp; &nbsp; &nbsp; &nbsp; &nbsp;<font class='posOutcome'>Shared back: <strong>10</strong></font></font><div class='respPicDiv'><img src='img/responseButtonOffersNo0_wht.png' class='respPic'></div></div>","null","","1","Benjamin","7","Shared","0.65,0.35","9","0.65","trustrating_stim/white_mw089.bmp","4","30","3"
"html-keyboard-response","147","263362","0.0-19.0-1.3","63dd3dd2593c92be97d8dbde","bdp_trlrn","Sat Apr 08 2023 08:38:38 GMT-0700 (Pacific Daylight Time)","494719","Untrustworthy,Trustworthy","","34","","","","decision","","<div class='trialDiv'><img src='trustrating_stim/white_mw097.bmp'><br><font class='baseline'><strong>Evan</strong><p>Choose number of points to send.</font><div class='respPicDiv'><img src='img/responseButtonOffersNo0L.png' class='respPic'></div></div>","5","","2","Evan","1","Kept","0.8,0.35","12","0.8","trustrating_stim/white_mw097.bmp","1","35","4"
"html-keyboard-response","148","263613","0.0-19.0-2.3","63dd3dd2593c92be97d8dbde","bdp_trlrn","Sat Apr 08 2023 08:38:38 GMT-0700 (Pacific Daylight Time)","494719","Untrustworthy,Trustworthy","","null","","","","decisionFB","","<div class='trialDiv'><img src='trustrating_stim/white_mw097.bmp'><br><font class='baseline'><strong>Evan</strong><p>Choose number of points to send.</font><div class='respPicDiv'><img src='img/responseButtonOffersNo0L5.png' class='respPic'></div></div>","null","","2","Evan","1","Kept","0.8,0.35","12","0.8","trustrating_stim/white_mw097.bmp","1","30","4"
"html-keyboard-response","149","264614","0.0-19.0-3.3","63dd3dd2593c92be97d8dbde","bdp_trlrn","Sat Apr 08 2023 08:38:38 GMT-0700 (Pacific Daylight Time)","494719","Untrustworthy,Trustworthy","","null","","","","feedback","","<div class='trialDiv'><img src='trustrating_stim/white_mw097.bmp'><br><font class='baseline'><strong>Evan</strong><p>Received: <strong>20</strong></font> &nbsp; &nbsp; &nbsp; &nbsp; &nbsp; &nbsp;<font class='negOutcome'>Shared back: <strong>0</strong></font></font><div class='respPicDiv'><img src='img/responseButtonOffersNo0_wht.png' class='respPic'></div></div>","null","","2","Evan","1","Kept","0.8,0.35","12","0.8","trustrating_stim/white_mw097.bmp","1","30","4"
"html-keyboard-response","150","264706","0.0-19.0-1.4","63dd3dd2593c92be97d8dbde","bdp_trlrn","Sat Apr 08 2023 08:38:38 GMT-0700 (Pacific Daylight Time)","494719","Untrustworthy,Trustworthy","","91","","","","decision","","<div class='trialDiv'><img src='trustrating_stim/white_mw089.bmp'><br><font class='baseline'><strong>Benjamin</strong><p>Choose number of points to send.</font><div class='respPicDiv'><img src='img/responseButtonOffersNo0L.png' class='respPic'></div></div>","5","","2","Benjamin","7","Kept","0.65,0.35","9","0.65","trustrating_stim/white_mw089.bmp","4","35","5"
"html-keyboard-response","151","264958","0.0-19.0-2.4","63dd3dd2593c92be97d8dbde","bdp_trlrn","Sat Apr 08 2023 08:38:38 GMT-0700 (Pacific Daylight Time)","494719","Untrustworthy,Trustworthy","","null","","","","decisionFB","","<div class='trialDiv'><img src='trustrating_stim/white_mw089.bmp'><br><font class='baseline'><strong>Benjamin</strong><p>Choose number of points to send.</font><div class='respPicDiv'><img src='img/responseButtonOffersNo0L5.png' class='respPic'></div></div>","null","","2","Benjamin","7","Kept","0.65,0.35","9","0.65","trustrating_stim/white_mw089.bmp","4","30","5"
"html-keyboard-response","152","265959","0.0-19.0-3.4","63dd3dd2593c92be97d8dbde","bdp_trlrn","Sat Apr 08 2023 08:38:38 GMT-0700 (Pacific Daylight Time)","494719","Untrustworthy,Trustworthy","","null","","","","feedback","","<div class='trialDiv'><img src='trustrating_stim/white_mw089.bmp'><br><font class='baseline'><strong>Benjamin</strong><p>Received: <strong>20</strong></font> &nbsp; &nbsp; &nbsp; &nbsp; &nbsp; &nbsp;<font class='negOutcome'>Shared back: <strong>0</strong></font></font><div class='respPicDiv'><img src='img/responseButtonOffersNo0_wht.png' class='respPic'></div></div>","null","","2","Benjamin","7","Kept","0.65,0.35","9","0.65","trustrating_stim/white_mw089.bmp","4","30","5"
"html-keyboard-response","153","266354","0.0-19.0-1.5","63dd3dd2593c92be97d8dbde","bdp_trlrn","Sat Apr 08 2023 08:38:38 GMT-0700 (Pacific Daylight Time)","494719","Untrustworthy,Trustworthy","","394","","","","decision","","<div class='trialDiv'><img src='trustrating_stim/white_00602_940928_fb_edt.bmp'><br><font class='baseline'><strong>Timothy</strong><p>Choose number of points to send.</font><div class='respPicDiv'><img src='img/responseButtonOffersNo0L.png' class='respPic'></div></div>","5","","2","Timothy","8","Kept","0.35,0.8","11","0.35","trustrating_stim/white_00602_940928_fb_edt.bmp","6","35","6"
"html-keyboard-response","154","266606","0.0-19.0-2.5","63dd3dd2593c92be97d8dbde","bdp_trlrn","Sat Apr 08 2023 08:38:38 GMT-0700 (Pacific Daylight Time)","494719","Untrustworthy,Trustworthy","","null","","","","decisionFB","","<div class='trialDiv'><img src='trustrating_stim/white_00602_940928_fb_edt.bmp'><br><font class='baseline'><strong>Timothy</strong><p>Choose number of points to send.</font><div class='respPicDiv'><img src='img/responseButtonOffersNo0L5.png' class='respPic'></div></div>","null","","2","Timothy","8","Kept","0.35,0.8","11","0.35","trustrating_stim/white_00602_940928_fb_edt.bmp","6","30","6"
"html-keyboard-response","155","267608","0.0-19.0-3.5","63dd3dd2593c92be97d8dbde","bdp_trlrn","Sat Apr 08 2023 08:38:38 GMT-0700 (Pacific Daylight Time)","494719","Untrustworthy,Trustworthy","","null","","","","feedback","","<div class='trialDiv'><img src='trustrating_stim/white_00602_940928_fb_edt.bmp'><br><font class='baseline'><strong>Timothy</strong><p>Received: <strong>20</strong></font> &nbsp; &nbsp; &nbsp; &nbsp; &nbsp; &nbsp;<font class='negOutcome'>Shared back: <strong>0</strong></font></font><div class='respPicDiv'><img src='img/responseButtonOffersNo0_wht.png' class='respPic'></div></div>","null","","2","Timothy","8","Kept","0.35,0.8","11","0.35","trustrating_stim/white_00602_940928_fb_edt.bmp","6","30","6"
"html-keyboard-response","156","267674","0.0-19.0-1.6","63dd3dd2593c92be97d8dbde","bdp_trlrn","Sat Apr 08 2023 08:38:38 GMT-0700 (Pacific Daylight Time)","494719","Untrustworthy,Trustworthy","","65","","","","decision","","<div class='trialDiv'><img src='trustrating_stim/white_mw097.bmp'><br><font class='baseline'><strong>Evan</strong><p>Choose number of points to send.</font><div class='respPicDiv'><img src='img/responseButtonOffersNo0L.png' class='respPic'></div></div>","5","","3","Evan","1","Shared","0.8,0.35","12","0.8","trustrating_stim/white_mw097.bmp","1","35","7"
"html-keyboard-response","157","267926","0.0-19.0-2.6","63dd3dd2593c92be97d8dbde","bdp_trlrn","Sat Apr 08 2023 08:38:38 GMT-0700 (Pacific Daylight Time)","494719","Untrustworthy,Trustworthy","","null","","","","decisionFB","","<div class='trialDiv'><img src='trustrating_stim/white_mw097.bmp'><br><font class='baseline'><strong>Evan</strong><p>Choose number of points to send.</font><div class='respPicDiv'><img src='img/responseButtonOffersNo0L5.png' class='respPic'></div></div>","null","","3","Evan","1","Shared","0.8,0.35","12","0.8","trustrating_stim/white_mw097.bmp","1","30","7"
"html-keyboard-response","158","268928","0.0-19.0-3.6","63dd3dd2593c92be97d8dbde","bdp_trlrn","Sat Apr 08 2023 08:38:38 GMT-0700 (Pacific Daylight Time)","494719","Untrustworthy,Trustworthy","","null","","","","feedback","","<div class='trialDiv'><img src='trustrating_stim/white_mw097.bmp'><br><font class='baseline'><strong>Evan</strong><p>Received: <strong>20</strong></font> &nbsp; &nbsp; &nbsp; &nbsp; &nbsp; &nbsp;<font class='posOutcome'>Shared back: <strong>10</strong></font></font><div class='respPicDiv'><img src='img/responseButtonOffersNo0_wht.png' class='respPic'></div></div>","null","","3","Evan","1","Shared","0.8,0.35","12","0.8","trustrating_stim/white_mw097.bmp","1","40","7"
"html-keyboard-response","159","268939","0.0-19.0-1.7","63dd3dd2593c92be97d8dbde","bdp_trlrn","Sat Apr 08 2023 08:38:38 GMT-0700 (Pacific Daylight Time)","494719","Untrustworthy,Trustworthy","","9","","","","decision","","<div class='trialDiv'><img src='trustrating_stim/white_00602_940928_fb_edt.bmp'><br><font class='baseline'><strong>Timothy</strong><p>Choose number of points to send.</font><div class='respPicDiv'><img src='img/responseButtonOffersNo0L.png' class='respPic'></div></div>","5","","3","Timothy","8","Shared","0.35,0.8","11","0.35","trustrating_stim/white_00602_940928_fb_edt.bmp","6","45","8"
"html-keyboard-response","160","269190","0.0-19.0-2.7","63dd3dd2593c92be97d8dbde","bdp_trlrn","Sat Apr 08 2023 08:38:38 GMT-0700 (Pacific Daylight Time)","494719","Untrustworthy,Trustworthy","","null","","","","decisionFB","","<div class='trialDiv'><img src='trustrating_stim/white_00602_940928_fb_edt.bmp'><br><font class='baseline'><strong>Timothy</strong><p>Choose number of points to send.</font><div class='respPicDiv'><img src='img/responseButtonOffersNo0L5.png' class='respPic'></div></div>","null","","3","Timothy","8","Shared","0.35,0.8","11","0.35","trustrating_stim/white_00602_940928_fb_edt.bmp","6","40","8"
"html-keyboard-response","161","270192","0.0-19.0-3.7","63dd3dd2593c92be97d8dbde","bdp_trlrn","Sat Apr 08 2023 08:38:38 GMT-0700 (Pacific Daylight Time)","494719","Untrustworthy,Trustworthy","","null","","","","feedback","","<div class='trialDiv'><img src='trustrating_stim/white_00602_940928_fb_edt.bmp'><br><font class='baseline'><strong>Timothy</strong><p>Received: <strong>20</strong></font> &nbsp; &nbsp; &nbsp; &nbsp; &nbsp; &nbsp;<font class='posOutcome'>Shared back: <strong>10</strong></font></font><div class='respPicDiv'><img src='img/responseButtonOffersNo0_wht.png' class='respPic'></div></div>","null","","3","Timothy","8","Shared","0.35,0.8","11","0.35","trustrating_stim/white_00602_940928_fb_edt.bmp","6","50","8"
"html-keyboard-response","162","270419","0.0-19.0-1.8","63dd3dd2593c92be97d8dbde","bdp_trlrn","Sat Apr 08 2023 08:38:38 GMT-0700 (Pacific Daylight Time)","494719","Untrustworthy,Trustworthy","","227","","","","decision","","<div class='trialDiv'><img src='trustrating_stim/white_mw089.bmp'><br><font class='baseline'><strong>Benjamin</strong><p>Choose number of points to send.</font><div class='respPicDiv'><img src='img/responseButtonOffersNo0L.png' class='respPic'></div></div>","5","","3","Benjamin","7","Shared","0.65,0.35","9","0.65","trustrating_stim/white_mw089.bmp","4","55","9"
"html-keyboard-response","163","270670","0.0-19.0-2.8","63dd3dd2593c92be97d8dbde","bdp_trlrn","Sat Apr 08 2023 08:38:38 GMT-0700 (Pacific Daylight Time)","494719","Untrustworthy,Trustworthy","","null","","","","decisionFB","","<div class='trialDiv'><img src='trustrating_stim/white_mw089.bmp'><br><font class='baseline'><strong>Benjamin</strong><p>Choose number of points to send.</font><div class='respPicDiv'><img src='img/responseButtonOffersNo0L5.png' class='respPic'></div></div>","null","","3","Benjamin","7","Shared","0.65,0.35","9","0.65","trustrating_stim/white_mw089.bmp","4","50","9"
"html-keyboard-response","164","271671","0.0-19.0-3.8","63dd3dd2593c92be97d8dbde","bdp_trlrn","Sat Apr 08 2023 08:38:38 GMT-0700 (Pacific Daylight Time)","494719","Untrustworthy,Trustworthy","","null","","","","feedback","","<div class='trialDiv'><img src='trustrating_stim/white_mw089.bmp'><br><font class='baseline'><strong>Benjamin</strong><p>Received: <strong>20</strong></font> &nbsp; &nbsp; &nbsp; &nbsp; &nbsp; &nbsp;<font class='posOutcome'>Shared back: <strong>10</strong></font></font><div class='respPicDiv'><img src='img/responseButtonOffersNo0_wht.png' class='respPic'></div></div>","null","","3","Benjamin","7","Shared","0.65,0.35","9","0.65","trustrating_stim/white_mw089.bmp","4","60","9"
"html-keyboard-response","165","271739","0.0-19.0-1.9","63dd3dd2593c92be97d8dbde","bdp_trlrn","Sat Apr 08 2023 08:38:38 GMT-0700 (Pacific Daylight Time)","494719","Untrustworthy,Trustworthy","","67","","","","decision","","<div class='trialDiv'><img src='trustrating_stim/white_mw097.bmp'><br><font class='baseline'><strong>Evan</strong><p>Choose number of points to send.</font><div class='respPicDiv'><img src='img/responseButtonOffersNo0L.png' class='respPic'></div></div>","5","","4","Evan","1","Shared","0.8,0.35","12","0.8","trustrating_stim/white_mw097.bmp","1","65","10"
"html-keyboard-response","166","271990","0.0-19.0-2.9","63dd3dd2593c92be97d8dbde","bdp_trlrn","Sat Apr 08 2023 08:38:38 GMT-0700 (Pacific Daylight Time)","494719","Untrustworthy,Trustworthy","","null","","","","decisionFB","","<div class='trialDiv'><img src='trustrating_stim/white_mw097.bmp'><br><font class='baseline'><strong>Evan</strong><p>Choose number of points to send.</font><div class='respPicDiv'><img src='img/responseButtonOffersNo0L5.png' class='respPic'></div></div>","null","","4","Evan","1","Shared","0.8,0.35","12","0.8","trustrating_stim/white_mw097.bmp","1","60","10"
"html-keyboard-response","167","272992","0.0-19.0-3.9","63dd3dd2593c92be97d8dbde","bdp_trlrn","Sat Apr 08 2023 08:38:38 GMT-0700 (Pacific Daylight Time)","494719","Untrustworthy,Trustworthy","","null","","","","feedback","","<div class='trialDiv'><img src='trustrating_stim/white_mw097.bmp'><br><font class='baseline'><strong>Evan</strong><p>Received: <strong>20</strong></font> &nbsp; &nbsp; &nbsp; &nbsp; &nbsp; &nbsp;<font class='posOutcome'>Shared back: <strong>10</strong></font></font><div class='respPicDiv'><img src='img/responseButtonOffersNo0_wht.png' class='respPic'></div></div>","null","","4","Evan","1","Shared","0.8,0.35","12","0.8","trustrating_stim/white_mw097.bmp","1","70","10"
"html-keyboard-response","168","273035","0.0-19.0-1.10","63dd3dd2593c92be97d8dbde","bdp_trlrn","Sat Apr 08 2023 08:38:38 GMT-0700 (Pacific Daylight Time)","494719","Untrustworthy,Trustworthy","","43","","","","decision","","<div class='trialDiv'><img src='trustrating_stim/white_mw089.bmp'><br><font class='baseline'><strong>Benjamin</strong><p>Choose number of points to send.</font><div class='respPicDiv'><img src='img/responseButtonOffersNo0L.png' class='respPic'></div></div>","5","","4","Benjamin","7","Shared","0.65,0.35","9","0.65","trustrating_stim/white_mw089.bmp","4","75","11"
"html-keyboard-response","169","273287","0.0-19.0-2.10","63dd3dd2593c92be97d8dbde","bdp_trlrn","Sat Apr 08 2023 08:38:38 GMT-0700 (Pacific Daylight Time)","494719","Untrustworthy,Trustworthy","","null","","","","decisionFB","","<div class='trialDiv'><img src='trustrating_stim/white_mw089.bmp'><br><font class='baseline'><strong>Benjamin</strong><p>Choose number of points to send.</font><div class='respPicDiv'><img src='img/responseButtonOffersNo0L5.png' class='respPic'></div></div>","null","","4","Benjamin","7","Shared","0.65,0.35","9","0.65","trustrating_stim/white_mw089.bmp","4","70","11"
"html-keyboard-response","170","274289","0.0-19.0-3.10","63dd3dd2593c92be97d8dbde","bdp_trlrn","Sat Apr 08 2023 08:38:38 GMT-0700 (Pacific Daylight Time)","494719","Untrustworthy,Trustworthy","","null","","","","feedback","","<div class='trialDiv'><img src='trustrating_stim/white_mw089.bmp'><br><font class='baseline'><strong>Benjamin</strong><p>Received: <strong>20</strong></font> &nbsp; &nbsp; &nbsp; &nbsp; &nbsp; &nbsp;<font class='posOutcome'>Shared back: <strong>10</strong></font></font><div class='respPicDiv'><img src='img/responseButtonOffersNo0_wht.png' class='respPic'></div></div>","null","","4","Benjamin","7","Shared","0.65,0.35","9","0.65","trustrating_stim/white_mw089.bmp","4","80","11"
"html-keyboard-response","171","274411","0.0-19.0-1.11","63dd3dd2593c92be97d8dbde","bdp_trlrn","Sat Apr 08 2023 08:38:38 GMT-0700 (Pacific Daylight Time)","494719","Untrustworthy,Trustworthy","","121","","","","decision","","<div class='trialDiv'><img src='trustrating_stim/white_00602_940928_fb_edt.bmp'><br><font class='baseline'><strong>Timothy</strong><p>Choose number of points to send.</font><div class='respPicDiv'><img src='img/responseButtonOffersNo0L.png' class='respPic'></div></div>","5","","4","Timothy","8","Kept","0.35,0.8","11","0.35","trustrating_stim/white_00602_940928_fb_edt.bmp","6","85","12"
"html-keyboard-response","172","274662","0.0-19.0-2.11","63dd3dd2593c92be97d8dbde","bdp_trlrn","Sat Apr 08 2023 08:38:38 GMT-0700 (Pacific Daylight Time)","494719","Untrustworthy,Trustworthy","","null","","","","decisionFB","","<div class='trialDiv'><img src='trustrating_stim/white_00602_940928_fb_edt.bmp'><br><font class='baseline'><strong>Timothy</strong><p>Choose number of points to send.</font><div class='respPicDiv'><img src='img/responseButtonOffersNo0L5.png' class='respPic'></div></div>","null","","4","Timothy","8","Kept","0.35,0.8","11","0.35","trustrating_stim/white_00602_940928_fb_edt.bmp","6","80","12"
"html-keyboard-response","173","275663","0.0-19.0-3.11","63dd3dd2593c92be97d8dbde","bdp_trlrn","Sat Apr 08 2023 08:38:38 GMT-0700 (Pacific Daylight Time)","494719","Untrustworthy,Trustworthy","","null","","","","feedback","","<div class='trialDiv'><img src='trustrating_stim/white_00602_940928_fb_edt.bmp'><br><font class='baseline'><strong>Timothy</strong><p>Received: <strong>20</strong></font> &nbsp; &nbsp; &nbsp; &nbsp; &nbsp; &nbsp;<font class='negOutcome'>Shared back: <strong>0</strong></font></font><div class='respPicDiv'><img src='img/responseButtonOffersNo0_wht.png' class='respPic'></div></div>","null","","4","Timothy","8","Kept","0.35,0.8","11","0.35","trustrating_stim/white_00602_940928_fb_edt.bmp","6","80","12"
"html-keyboard-response","174","275899","0.0-19.0-1.12","63dd3dd2593c92be97d8dbde","bdp_trlrn","Sat Apr 08 2023 08:38:38 GMT-0700 (Pacific Daylight Time)","494719","Untrustworthy,Trustworthy","","235","","","","decision","","<div class='trialDiv'><img src='trustrating_stim/white_mw097.bmp'><br><font class='baseline'><strong>Evan</strong><p>Choose number of points to send.</font><div class='respPicDiv'><img src='img/responseButtonOffersNo0L.png' class='respPic'></div></div>","5","","5","Evan","1","Shared","0.8,0.35","12","0.8","trustrating_stim/white_mw097.bmp","1","85","13"
"html-keyboard-response","175","276151","0.0-19.0-2.12","63dd3dd2593c92be97d8dbde","bdp_trlrn","Sat Apr 08 2023 08:38:38 GMT-0700 (Pacific Daylight Time)","494719","Untrustworthy,Trustworthy","","null","","","","decisionFB","","<div class='trialDiv'><img src='trustrating_stim/white_mw097.bmp'><br><font class='baseline'><strong>Evan</strong><p>Choose number of points to send.</font><div class='respPicDiv'><img src='img/responseButtonOffersNo0L5.png' class='respPic'></div></div>","null","","5","Evan","1","Shared","0.8,0.35","12","0.8","trustrating_stim/white_mw097.bmp","1","80","13"
"html-keyboard-response","176","277153","0.0-19.0-3.12","63dd3dd2593c92be97d8dbde","bdp_trlrn","Sat Apr 08 2023 08:38:38 GMT-0700 (Pacific Daylight Time)","494719","Untrustworthy,Trustworthy","","null","","","","feedback","","<div class='trialDiv'><img src='trustrating_stim/white_mw097.bmp'><br><font class='baseline'><strong>Evan</strong><p>Received: <strong>20</strong></font> &nbsp; &nbsp; &nbsp; &nbsp; &nbsp; &nbsp;<font class='posOutcome'>Shared back: <strong>10</strong></font></font><div class='respPicDiv'><img src='img/responseButtonOffersNo0_wht.png' class='respPic'></div></div>","null","","5","Evan","1","Shared","0.8,0.35","12","0.8","trustrating_stim/white_mw097.bmp","1","90","13"
"html-keyboard-response","177","277364","0.0-19.0-1.13","63dd3dd2593c92be97d8dbde","bdp_trlrn","Sat Apr 08 2023 08:38:38 GMT-0700 (Pacific Daylight Time)","494719","Untrustworthy,Trustworthy","","210","","","","decision","","<div class='trialDiv'><img src='trustrating_stim/white_mw089.bmp'><br><font class='baseline'><strong>Benjamin</strong><p>Choose number of points to send.</font><div class='respPicDiv'><img src='img/responseButtonOffersNo0L.png' class='respPic'></div></div>","5","","5","Benjamin","7","Shared","0.65,0.35","9","0.65","trustrating_stim/white_mw089.bmp","4","95","14"
"html-keyboard-response","178","277615","0.0-19.0-2.13","63dd3dd2593c92be97d8dbde","bdp_trlrn","Sat Apr 08 2023 08:38:38 GMT-0700 (Pacific Daylight Time)","494719","Untrustworthy,Trustworthy","","null","","","","decisionFB","","<div class='trialDiv'><img src='trustrating_stim/white_mw089.bmp'><br><font class='baseline'><strong>Benjamin</strong><p>Choose number of points to send.</font><div class='respPicDiv'><img src='img/responseButtonOffersNo0L5.png' class='respPic'></div></div>","null","","5","Benjamin","7","Shared","0.65,0.35","9","0.65","trustrating_stim/white_mw089.bmp","4","90","14"
"html-keyboard-response","179","278616","0.0-19.0-3.13","63dd3dd2593c92be97d8dbde","bdp_trlrn","Sat Apr 08 2023 08:38:38 GMT-0700 (Pacific Daylight Time)","494719","Untrustworthy,Trustworthy","","null","","","","feedback","","<div class='trialDiv'><img src='trustrating_stim/white_mw089.bmp'><br><font class='baseline'><strong>Benjamin</strong><p>Received: <strong>20</strong></font> &nbsp; &nbsp; &nbsp; &nbsp; &nbsp; &nbsp;<font class='posOutcome'>Shared back: <strong>10</strong></font></font><div class='respPicDiv'><img src='img/responseButtonOffersNo0_wht.png' class='respPic'></div></div>","null","","5","Benjamin","7","Shared","0.65,0.35","9","0.65","trustrating_stim/white_mw089.bmp","4","100","14"
"html-keyboard-response","180","278788","0.0-19.0-1.14","63dd3dd2593c92be97d8dbde","bdp_trlrn","Sat Apr 08 2023 08:38:38 GMT-0700 (Pacific Daylight Time)","494719","Untrustworthy,Trustworthy","","171","","","","decision","","<div class='trialDiv'><img src='trustrating_stim/white_00602_940928_fb_edt.bmp'><br><font class='baseline'><strong>Timothy</strong><p>Choose number of points to send.</font><div class='respPicDiv'><img src='img/responseButtonOffersNo0L.png' class='respPic'></div></div>","5","","5","Timothy","8","Shared","0.35,0.8","11","0.35","trustrating_stim/white_00602_940928_fb_edt.bmp","6","105","15"
"html-keyboard-response","181","279040","0.0-19.0-2.14","63dd3dd2593c92be97d8dbde","bdp_trlrn","Sat Apr 08 2023 08:38:38 GMT-0700 (Pacific Daylight Time)","494719","Untrustworthy,Trustworthy","","null","","","","decisionFB","","<div class='trialDiv'><img src='trustrating_stim/white_00602_940928_fb_edt.bmp'><br><font class='baseline'><strong>Timothy</strong><p>Choose number of points to send.</font><div class='respPicDiv'><img src='img/responseButtonOffersNo0L5.png' class='respPic'></div></div>","null","","5","Timothy","8","Shared","0.35,0.8","11","0.35","trustrating_stim/white_00602_940928_fb_edt.bmp","6","100","15"
"html-keyboard-response","182","280042","0.0-19.0-3.14","63dd3dd2593c92be97d8dbde","bdp_trlrn","Sat Apr 08 2023 08:38:38 GMT-0700 (Pacific Daylight Time)","494719","Untrustworthy,Trustworthy","","null","","","","feedback","","<div class='trialDiv'><img src='trustrating_stim/white_00602_940928_fb_edt.bmp'><br><font class='baseline'><strong>Timothy</strong><p>Received: <strong>20</strong></font> &nbsp; &nbsp; &nbsp; &nbsp; &nbsp; &nbsp;<font class='posOutcome'>Shared back: <strong>10</strong></font></font><div class='respPicDiv'><img src='img/responseButtonOffersNo0_wht.png' class='respPic'></div></div>","null","","5","Timothy","8","Shared","0.35,0.8","11","0.35","trustrating_stim/white_00602_940928_fb_edt.bmp","6","110","15"
"html-keyboard-response","183","280140","0.0-19.0-1.15","63dd3dd2593c92be97d8dbde","bdp_trlrn","Sat Apr 08 2023 08:38:38 GMT-0700 (Pacific Daylight Time)","494719","Untrustworthy,Trustworthy","","97","","","","decision","","<div class='trialDiv'><img src='trustrating_stim/white_mw089.bmp'><br><font class='baseline'><strong>Benjamin</strong><p>Choose number of points to send.</font><div class='respPicDiv'><img src='img/responseButtonOffersNo0L.png' class='respPic'></div></div>","5","","6","Benjamin","7","Shared","0.65,0.35","9","0.65","trustrating_stim/white_mw089.bmp","4","115","16"
"html-keyboard-response","184","280391","0.0-19.0-2.15","63dd3dd2593c92be97d8dbde","bdp_trlrn","Sat Apr 08 2023 08:38:38 GMT-0700 (Pacific Daylight Time)","494719","Untrustworthy,Trustworthy","","null","","","","decisionFB","","<div class='trialDiv'><img src='trustrating_stim/white_mw089.bmp'><br><font class='baseline'><strong>Benjamin</strong><p>Choose number of points to send.</font><div class='respPicDiv'><img src='img/responseButtonOffersNo0L5.png' class='respPic'></div></div>","null","","6","Benjamin","7","Shared","0.65,0.35","9","0.65","trustrating_stim/white_mw089.bmp","4","110","16"
"html-keyboard-response","185","281393","0.0-19.0-3.15","63dd3dd2593c92be97d8dbde","bdp_trlrn","Sat Apr 08 2023 08:38:38 GMT-0700 (Pacific Daylight Time)","494719","Untrustworthy,Trustworthy","","null","","","","feedback","","<div class='trialDiv'><img src='trustrating_stim/white_mw089.bmp'><br><font class='baseline'><strong>Benjamin</strong><p>Received: <strong>20</strong></font> &nbsp; &nbsp; &nbsp; &nbsp; &nbsp; &nbsp;<font class='posOutcome'>Shared back: <strong>10</strong></font></font><div class='respPicDiv'><img src='img/responseButtonOffersNo0_wht.png' class='respPic'></div></div>","null","","6","Benjamin","7","Shared","0.65,0.35","9","0.65","trustrating_stim/white_mw089.bmp","4","120","16"
"html-keyboard-response","186","281421","0.0-19.0-1.16","63dd3dd2593c92be97d8dbde","bdp_trlrn","Sat Apr 08 2023 08:38:38 GMT-0700 (Pacific Daylight Time)","494719","Untrustworthy,Trustworthy","","28","","","","decision","","<div class='trialDiv'><img src='trustrating_stim/white_mw097.bmp'><br><font class='baseline'><strong>Evan</strong><p>Choose number of points to send.</font><div class='respPicDiv'><img src='img/responseButtonOffersNo0L.png' class='respPic'></div></div>","5","","6","Evan","1","Shared","0.8,0.35","12","0.8","trustrating_stim/white_mw097.bmp","1","125","17"
"html-keyboard-response","187","281673","0.0-19.0-2.16","63dd3dd2593c92be97d8dbde","bdp_trlrn","Sat Apr 08 2023 08:38:38 GMT-0700 (Pacific Daylight Time)","494719","Untrustworthy,Trustworthy","","null","","","","decisionFB","","<div class='trialDiv'><img src='trustrating_stim/white_mw097.bmp'><br><font class='baseline'><strong>Evan</strong><p>Choose number of points to send.</font><div class='respPicDiv'><img src='img/responseButtonOffersNo0L5.png' class='respPic'></div></div>","null","","6","Evan","1","Shared","0.8,0.35","12","0.8","trustrating_stim/white_mw097.bmp","1","120","17"
"html-keyboard-response","188","282675","0.0-19.0-3.16","63dd3dd2593c92be97d8dbde","bdp_trlrn","Sat Apr 08 2023 08:38:38 GMT-0700 (Pacific Daylight Time)","494719","Untrustworthy,Trustworthy","","null","","","","feedback","","<div class='trialDiv'><img src='trustrating_stim/white_mw097.bmp'><br><font class='baseline'><strong>Evan</strong><p>Received: <strong>20</strong></font> &nbsp; &nbsp; &nbsp; &nbsp; &nbsp; &nbsp;<font class='posOutcome'>Shared back: <strong>10</strong></font></font><div class='respPicDiv'><img src='img/responseButtonOffersNo0_wht.png' class='respPic'></div></div>","null","","6","Evan","1","Shared","0.8,0.35","12","0.8","trustrating_stim/white_mw097.bmp","1","130","17"
"html-keyboard-response","189","282716","0.0-19.0-1.17","63dd3dd2593c92be97d8dbde","bdp_trlrn","Sat Apr 08 2023 08:38:38 GMT-0700 (Pacific Daylight Time)","494719","Untrustworthy,Trustworthy","","41","","","","decision","","<div class='trialDiv'><img src='trustrating_stim/white_00602_940928_fb_edt.bmp'><br><font class='baseline'><strong>Timothy</strong><p>Choose number of points to send.</font><div class='respPicDiv'><img src='img/responseButtonOffersNo0L.png' class='respPic'></div></div>","5","","6","Timothy","8","Kept","0.35,0.8","11","0.35","trustrating_stim/white_00602_940928_fb_edt.bmp","6","135","18"
"html-keyboard-response","190","282968","0.0-19.0-2.17","63dd3dd2593c92be97d8dbde","bdp_trlrn","Sat Apr 08 2023 08:38:38 GMT-0700 (Pacific Daylight Time)","494719","Untrustworthy,Trustworthy","","null","","","","decisionFB","","<div class='trialDiv'><img src='trustrating_stim/white_00602_940928_fb_edt.bmp'><br><font class='baseline'><strong>Timothy</strong><p>Choose number of points to send.</font><div class='respPicDiv'><img src='img/responseButtonOffersNo0L5.png' class='respPic'></div></div>","null","","6","Timothy","8","Kept","0.35,0.8","11","0.35","trustrating_stim/white_00602_940928_fb_edt.bmp","6","130","18"
"html-keyboard-response","191","283970","0.0-19.0-3.17","63dd3dd2593c92be97d8dbde","bdp_trlrn","Sat Apr 08 2023 08:38:38 GMT-0700 (Pacific Daylight Time)","494719","Untrustworthy,Trustworthy","","null","","","","feedback","","<div class='trialDiv'><img src='trustrating_stim/white_00602_940928_fb_edt.bmp'><br><font class='baseline'><strong>Timothy</strong><p>Received: <strong>20</strong></font> &nbsp; &nbsp; &nbsp; &nbsp; &nbsp; &nbsp;<font class='negOutcome'>Shared back: <strong>0</strong></font></font><div class='respPicDiv'><img src='img/responseButtonOffersNo0_wht.png' class='respPic'></div></div>","null","","6","Timothy","8","Kept","0.35,0.8","11","0.35","trustrating_stim/white_00602_940928_fb_edt.bmp","6","130","18"
"html-keyboard-response","192","284253","0.0-19.0-1.18","63dd3dd2593c92be97d8dbde","bdp_trlrn","Sat Apr 08 2023 08:38:38 GMT-0700 (Pacific Daylight Time)","494719","Untrustworthy,Trustworthy","","282","","","","decision","","<div class='trialDiv'><img src='trustrating_stim/white_mw097.bmp'><br><font class='baseline'><strong>Evan</strong><p>Choose number of points to send.</font><div class='respPicDiv'><img src='img/responseButtonOffersNo0L.png' class='respPic'></div></div>","5","","7","Evan","1","Shared","0.8,0.35","12","0.8","trustrating_stim/white_mw097.bmp","1","135","19"
"html-keyboard-response","193","284505","0.0-19.0-2.18","63dd3dd2593c92be97d8dbde","bdp_trlrn","Sat Apr 08 2023 08:38:38 GMT-0700 (Pacific Daylight Time)","494719","Untrustworthy,Trustworthy","","null","","","","decisionFB","","<div class='trialDiv'><img src='trustrating_stim/white_mw097.bmp'><br><font class='baseline'><strong>Evan</strong><p>Choose number of points to send.</font><div class='respPicDiv'><img src='img/responseButtonOffersNo0L5.png' class='respPic'></div></div>","null","","7","Evan","1","Shared","0.8,0.35","12","0.8","trustrating_stim/white_mw097.bmp","1","130","19"
"html-keyboard-response","194","285507","0.0-19.0-3.18","63dd3dd2593c92be97d8dbde","bdp_trlrn","Sat Apr 08 2023 08:38:38 GMT-0700 (Pacific Daylight Time)","494719","Untrustworthy,Trustworthy","","null","","","","feedback","","<div class='trialDiv'><img src='trustrating_stim/white_mw097.bmp'><br><font class='baseline'><strong>Evan</strong><p>Received: <strong>20</strong></font> &nbsp; &nbsp; &nbsp; &nbsp; &nbsp; &nbsp;<font class='posOutcome'>Shared back: <strong>10</strong></font></font><div class='respPicDiv'><img src='img/responseButtonOffersNo0_wht.png' class='respPic'></div></div>","null","","7","Evan","1","Shared","0.8,0.35","12","0.8","trustrating_stim/white_mw097.bmp","1","140","19"
"html-keyboard-response","195","285613","0.0-19.0-1.19","63dd3dd2593c92be97d8dbde","bdp_trlrn","Sat Apr 08 2023 08:38:38 GMT-0700 (Pacific Daylight Time)","494719","Untrustworthy,Trustworthy","","105","","","","decision","","<div class='trialDiv'><img src='trustrating_stim/white_mw089.bmp'><br><font class='baseline'><strong>Benjamin</strong><p>Choose number of points to send.</font><div class='respPicDiv'><img src='img/responseButtonOffersNo0L.png' class='respPic'></div></div>","5","","7","Benjamin","7","Shared","0.65,0.35","9","0.65","trustrating_stim/white_mw089.bmp","4","145","20"
"html-keyboard-response","196","285865","0.0-19.0-2.19","63dd3dd2593c92be97d8dbde","bdp_trlrn","Sat Apr 08 2023 08:38:38 GMT-0700 (Pacific Daylight Time)","494719","Untrustworthy,Trustworthy","","null","","","","decisionFB","","<div class='trialDiv'><img src='trustrating_stim/white_mw089.bmp'><br><font class='baseline'><strong>Benjamin</strong><p>Choose number of points to send.</font><div class='respPicDiv'><img src='img/responseButtonOffersNo0L5.png' class='respPic'></div></div>","null","","7","Benjamin","7","Shared","0.65,0.35","9","0.65","trustrating_stim/white_mw089.bmp","4","140","20"
"html-keyboard-response","197","286867","0.0-19.0-3.19","63dd3dd2593c92be97d8dbde","bdp_trlrn","Sat Apr 08 2023 08:38:38 GMT-0700 (Pacific Daylight Time)","494719","Untrustworthy,Trustworthy","","null","","","","feedback","","<div class='trialDiv'><img src='trustrating_stim/white_mw089.bmp'><br><font class='baseline'><strong>Benjamin</strong><p>Received: <strong>20</strong></font> &nbsp; &nbsp; &nbsp; &nbsp; &nbsp; &nbsp;<font class='posOutcome'>Shared back: <strong>10</strong></font></font><div class='respPicDiv'><img src='img/responseButtonOffersNo0_wht.png' class='respPic'></div></div>","null","","7","Benjamin","7","Shared","0.65,0.35","9","0.65","trustrating_stim/white_mw089.bmp","4","150","20"
"html-keyboard-response","198","286909","0.0-19.0-1.20","63dd3dd2593c92be97d8dbde","bdp_trlrn","Sat Apr 08 2023 08:38:38 GMT-0700 (Pacific Daylight Time)","494719","Untrustworthy,Trustworthy","","42","","","","decision","","<div class='trialDiv'><img src='trustrating_stim/white_00602_940928_fb_edt.bmp'><br><font class='baseline'><strong>Timothy</strong><p>Choose number of points to send.</font><div class='respPicDiv'><img src='img/responseButtonOffersNo0L.png' class='respPic'></div></div>","5","","7","Timothy","8","Shared","0.35,0.8","11","0.35","trustrating_stim/white_00602_940928_fb_edt.bmp","6","155","21"
"html-keyboard-response","199","287160","0.0-19.0-2.20","63dd3dd2593c92be97d8dbde","bdp_trlrn","Sat Apr 08 2023 08:38:38 GMT-0700 (Pacific Daylight Time)","494719","Untrustworthy,Trustworthy","","null","","","","decisionFB","","<div class='trialDiv'><img src='trustrating_stim/white_00602_940928_fb_edt.bmp'><br><font class='baseline'><strong>Timothy</strong><p>Choose number of points to send.</font><div class='respPicDiv'><img src='img/responseButtonOffersNo0L5.png' class='respPic'></div></div>","null","","7","Timothy","8","Shared","0.35,0.8","11","0.35","trustrating_stim/white_00602_940928_fb_edt.bmp","6","150","21"
"html-keyboard-response","200","288162","0.0-19.0-3.20","63dd3dd2593c92be97d8dbde","bdp_trlrn","Sat Apr 08 2023 08:38:38 GMT-0700 (Pacific Daylight Time)","494719","Untrustworthy,Trustworthy","","null","","","","feedback","","<div class='trialDiv'><img src='trustrating_stim/white_00602_940928_fb_edt.bmp'><br><font class='baseline'><strong>Timothy</strong><p>Received: <strong>20</strong></font> &nbsp; &nbsp; &nbsp; &nbsp; &nbsp; &nbsp;<font class='posOutcome'>Shared back: <strong>10</strong></font></font><div class='respPicDiv'><img src='img/responseButtonOffersNo0_wht.png' class='respPic'></div></div>","null","","7","Timothy","8","Shared","0.35,0.8","11","0.35","trustrating_stim/white_00602_940928_fb_edt.bmp","6","160","21"
"html-keyboard-response","201","288261","0.0-19.0-1.21","63dd3dd2593c92be97d8dbde","bdp_trlrn","Sat Apr 08 2023 08:38:38 GMT-0700 (Pacific Daylight Time)","494719","Untrustworthy,Trustworthy","","98","","","","decision","","<div class='trialDiv'><img src='trustrating_stim/white_mw089.bmp'><br><font class='baseline'><strong>Benjamin</strong><p>Choose number of points to send.</font><div class='respPicDiv'><img src='img/responseButtonOffersNo0L.png' class='respPic'></div></div>","5","","8","Benjamin","7","Kept","0.65,0.35","9","0.65","trustrating_stim/white_mw089.bmp","4","165","22"
"html-keyboard-response","202","288512","0.0-19.0-2.21","63dd3dd2593c92be97d8dbde","bdp_trlrn","Sat Apr 08 2023 08:38:38 GMT-0700 (Pacific Daylight Time)","494719","Untrustworthy,Trustworthy","","null","","","","decisionFB","","<div class='trialDiv'><img src='trustrating_stim/white_mw089.bmp'><br><font class='baseline'><strong>Benjamin</strong><p>Choose number of points to send.</font><div class='respPicDiv'><img src='img/responseButtonOffersNo0L5.png' class='respPic'></div></div>","null","","8","Benjamin","7","Kept","0.65,0.35","9","0.65","trustrating_stim/white_mw089.bmp","4","160","22"
"html-keyboard-response","203","289513","0.0-19.0-3.21","63dd3dd2593c92be97d8dbde","bdp_trlrn","Sat Apr 08 2023 08:38:38 GMT-0700 (Pacific Daylight Time)","494719","Untrustworthy,Trustworthy","","null","","","","feedback","","<div class='trialDiv'><img src='trustrating_stim/white_mw089.bmp'><br><font class='baseline'><strong>Benjamin</strong><p>Received: <strong>20</strong></font> &nbsp; &nbsp; &nbsp; &nbsp; &nbsp; &nbsp;<font class='negOutcome'>Shared back: <strong>0</strong></font></font><div class='respPicDiv'><img src='img/responseButtonOffersNo0_wht.png' class='respPic'></div></div>","null","","8","Benjamin","7","Kept","0.65,0.35","9","0.65","trustrating_stim/white_mw089.bmp","4","160","22"
"html-keyboard-response","204","289709","0.0-19.0-1.22","63dd3dd2593c92be97d8dbde","bdp_trlrn","Sat Apr 08 2023 08:38:38 GMT-0700 (Pacific Daylight Time)","494719","Untrustworthy,Trustworthy","","195","","","","decision","","<div class='trialDiv'><img src='trustrating_stim/white_00602_940928_fb_edt.bmp'><br><font class='baseline'><strong>Timothy</strong><p>Choose number of points to send.</font><div class='respPicDiv'><img src='img/responseButtonOffersNo0L.png' class='respPic'></div></div>","5","","8","Timothy","8","Shared","0.35,0.8","11","0.35","trustrating_stim/white_00602_940928_fb_edt.bmp","6","165","23"
"html-keyboard-response","205","289961","0.0-19.0-2.22","63dd3dd2593c92be97d8dbde","bdp_trlrn","Sat Apr 08 2023 08:38:38 GMT-0700 (Pacific Daylight Time)","494719","Untrustworthy,Trustworthy","","null","","","","decisionFB","","<div class='trialDiv'><img src='trustrating_stim/white_00602_940928_fb_edt.bmp'><br><font class='baseline'><strong>Timothy</strong><p>Choose number of points to send.</font><div class='respPicDiv'><img src='img/responseButtonOffersNo0L5.png' class='respPic'></div></div>","null","","8","Timothy","8","Shared","0.35,0.8","11","0.35","trustrating_stim/white_00602_940928_fb_edt.bmp","6","160","23"
"html-keyboard-response","206","290962","0.0-19.0-3.22","63dd3dd2593c92be97d8dbde","bdp_trlrn","Sat Apr 08 2023 08:38:38 GMT-0700 (Pacific Daylight Time)","494719","Untrustworthy,Trustworthy","","null","","","","feedback","","<div class='trialDiv'><img src='trustrating_stim/white_00602_940928_fb_edt.bmp'><br><font class='baseline'><strong>Timothy</strong><p>Received: <strong>20</strong></font> &nbsp; &nbsp; &nbsp; &nbsp; &nbsp; &nbsp;<font class='posOutcome'>Shared back: <strong>10</strong></font></font><div class='respPicDiv'><img src='img/responseButtonOffersNo0_wht.png' class='respPic'></div></div>","null","","8","Timothy","8","Shared","0.35,0.8","11","0.35","trustrating_stim/white_00602_940928_fb_edt.bmp","6","170","23"
"html-keyboard-response","207","291101","0.0-19.0-1.23","63dd3dd2593c92be97d8dbde","bdp_trlrn","Sat Apr 08 2023 08:38:38 GMT-0700 (Pacific Daylight Time)","494719","Untrustworthy,Trustworthy","","138","","","","decision","","<div class='trialDiv'><img src='trustrating_stim/white_mw097.bmp'><br><font class='baseline'><strong>Evan</strong><p>Choose number of points to send.</font><div class='respPicDiv'><img src='img/responseButtonOffersNo0L.png' class='respPic'></div></div>","5","","8","Evan","1","Shared","0.8,0.35","12","0.8","trustrating_stim/white_mw097.bmp","1","175","24"
"html-keyboard-response","208","291353","0.0-19.0-2.23","63dd3dd2593c92be97d8dbde","bdp_trlrn","Sat Apr 08 2023 08:38:38 GMT-0700 (Pacific Daylight Time)","494719","Untrustworthy,Trustworthy","","null","","","","decisionFB","","<div class='trialDiv'><img src='trustrating_stim/white_mw097.bmp'><br><font class='baseline'><strong>Evan</strong><p>Choose number of points to send.</font><div class='respPicDiv'><img src='img/responseButtonOffersNo0L5.png' class='respPic'></div></div>","null","","8","Evan","1","Shared","0.8,0.35","12","0.8","trustrating_stim/white_mw097.bmp","1","170","24"
"html-keyboard-response","209","292354","0.0-19.0-3.23","63dd3dd2593c92be97d8dbde","bdp_trlrn","Sat Apr 08 2023 08:38:38 GMT-0700 (Pacific Daylight Time)","494719","Untrustworthy,Trustworthy","","null","","","","feedback","","<div class='trialDiv'><img src='trustrating_stim/white_mw097.bmp'><br><font class='baseline'><strong>Evan</strong><p>Received: <strong>20</strong></font> &nbsp; &nbsp; &nbsp; &nbsp; &nbsp; &nbsp;<font class='posOutcome'>Shared back: <strong>10</strong></font></font><div class='respPicDiv'><img src='img/responseButtonOffersNo0_wht.png' class='respPic'></div></div>","null","","8","Evan","1","Shared","0.8,0.35","12","0.8","trustrating_stim/white_mw097.bmp","1","180","24"
"html-keyboard-response","210","292606","0.0-19.0-1.24","63dd3dd2593c92be97d8dbde","bdp_trlrn","Sat Apr 08 2023 08:38:38 GMT-0700 (Pacific Daylight Time)","494719","Untrustworthy,Trustworthy","","251","","","","decision","","<div class='trialDiv'><img src='trustrating_stim/white_00602_940928_fb_edt.bmp'><br><font class='baseline'><strong>Timothy</strong><p>Choose number of points to send.</font><div class='respPicDiv'><img src='img/responseButtonOffersNo0L.png' class='respPic'></div></div>","5","","9","Timothy","8","Kept","0.35,0.8","11","0.35","trustrating_stim/white_00602_940928_fb_edt.bmp","6","185","25"
"html-keyboard-response","211","292857","0.0-19.0-2.24","63dd3dd2593c92be97d8dbde","bdp_trlrn","Sat Apr 08 2023 08:38:38 GMT-0700 (Pacific Daylight Time)","494719","Untrustworthy,Trustworthy","","null","","","","decisionFB","","<div class='trialDiv'><img src='trustrating_stim/white_00602_940928_fb_edt.bmp'><br><font class='baseline'><strong>Timothy</strong><p>Choose number of points to send.</font><div class='respPicDiv'><img src='img/responseButtonOffersNo0L5.png' class='respPic'></div></div>","null","","9","Timothy","8","Kept","0.35,0.8","11","0.35","trustrating_stim/white_00602_940928_fb_edt.bmp","6","180","25"
"html-keyboard-response","212","293859","0.0-19.0-3.24","63dd3dd2593c92be97d8dbde","bdp_trlrn","Sat Apr 08 2023 08:38:38 GMT-0700 (Pacific Daylight Time)","494719","Untrustworthy,Trustworthy","","null","","","","feedback","","<div class='trialDiv'><img src='trustrating_stim/white_00602_940928_fb_edt.bmp'><br><font class='baseline'><strong>Timothy</strong><p>Received: <strong>20</strong></font> &nbsp; &nbsp; &nbsp; &nbsp; &nbsp; &nbsp;<font class='negOutcome'>Shared back: <strong>0</strong></font></font><div class='respPicDiv'><img src='img/responseButtonOffersNo0_wht.png' class='respPic'></div></div>","null","","9","Timothy","8","Kept","0.35,0.8","11","0.35","trustrating_stim/white_00602_940928_fb_edt.bmp","6","180","25"
"html-keyboard-response","213","294038","0.0-19.0-1.25","63dd3dd2593c92be97d8dbde","bdp_trlrn","Sat Apr 08 2023 08:38:38 GMT-0700 (Pacific Daylight Time)","494719","Untrustworthy,Trustworthy","","178","","","","decision","","<div class='trialDiv'><img src='trustrating_stim/white_mw089.bmp'><br><font class='baseline'><strong>Benjamin</strong><p>Choose number of points to send.</font><div class='respPicDiv'><img src='img/responseButtonOffersNo0L.png' class='respPic'></div></div>","5","","9","Benjamin","7","Shared","0.65,0.35","9","0.65","trustrating_stim/white_mw089.bmp","4","185","26"
"html-keyboard-response","214","294289","0.0-19.0-2.25","63dd3dd2593c92be97d8dbde","bdp_trlrn","Sat Apr 08 2023 08:38:38 GMT-0700 (Pacific Daylight Time)","494719","Untrustworthy,Trustworthy","","null","","","","decisionFB","","<div class='trialDiv'><img src='trustrating_stim/white_mw089.bmp'><br><font class='baseline'><strong>Benjamin</strong><p>Choose number of points to send.</font><div class='respPicDiv'><img src='img/responseButtonOffersNo0L5.png' class='respPic'></div></div>","null","","9","Benjamin","7","Shared","0.65,0.35","9","0.65","trustrating_stim/white_mw089.bmp","4","180","26"
"html-keyboard-response","215","295291","0.0-19.0-3.25","63dd3dd2593c92be97d8dbde","bdp_trlrn","Sat Apr 08 2023 08:38:38 GMT-0700 (Pacific Daylight Time)","494719","Untrustworthy,Trustworthy","","null","","","","feedback","","<div class='trialDiv'><img src='trustrating_stim/white_mw089.bmp'><br><font class='baseline'><strong>Benjamin</strong><p>Received: <strong>20</strong></font> &nbsp; &nbsp; &nbsp; &nbsp; &nbsp; &nbsp;<font class='posOutcome'>Shared back: <strong>10</strong></font></font><div class='respPicDiv'><img src='img/responseButtonOffersNo0_wht.png' class='respPic'></div></div>","null","","9","Benjamin","7","Shared","0.65,0.35","9","0.65","trustrating_stim/white_mw089.bmp","4","190","26"
"html-keyboard-response","216","295494","0.0-19.0-1.26","63dd3dd2593c92be97d8dbde","bdp_trlrn","Sat Apr 08 2023 08:38:38 GMT-0700 (Pacific Daylight Time)","494719","Untrustworthy,Trustworthy","","202","","","","decision","","<div class='trialDiv'><img src='trustrating_stim/white_mw097.bmp'><br><font class='baseline'><strong>Evan</strong><p>Choose number of points to send.</font><div class='respPicDiv'><img src='img/responseButtonOffersNo0L.png' class='respPic'></div></div>","5","","9","Evan","1","Shared","0.8,0.35","12","0.8","trustrating_stim/white_mw097.bmp","1","195","27"
"html-keyboard-response","217","295746","0.0-19.0-2.26","63dd3dd2593c92be97d8dbde","bdp_trlrn","Sat Apr 08 2023 08:38:38 GMT-0700 (Pacific Daylight Time)","494719","Untrustworthy,Trustworthy","","null","","","","decisionFB","","<div class='trialDiv'><img src='trustrating_stim/white_mw097.bmp'><br><font class='baseline'><strong>Evan</strong><p>Choose number of points to send.</font><div class='respPicDiv'><img src='img/responseButtonOffersNo0L5.png' class='respPic'></div></div>","null","","9","Evan","1","Shared","0.8,0.35","12","0.8","trustrating_stim/white_mw097.bmp","1","190","27"
"html-keyboard-response","218","296748","0.0-19.0-3.26","63dd3dd2593c92be97d8dbde","bdp_trlrn","Sat Apr 08 2023 08:38:38 GMT-0700 (Pacific Daylight Time)","494719","Untrustworthy,Trustworthy","","null","","","","feedback","","<div class='trialDiv'><img src='trustrating_stim/white_mw097.bmp'><br><font class='baseline'><strong>Evan</strong><p>Received: <strong>20</strong></font> &nbsp; &nbsp; &nbsp; &nbsp; &nbsp; &nbsp;<font class='posOutcome'>Shared back: <strong>10</strong></font></font><div class='respPicDiv'><img src='img/responseButtonOffersNo0_wht.png' class='respPic'></div></div>","null","","9","Evan","1","Shared","0.8,0.35","12","0.8","trustrating_stim/white_mw097.bmp","1","200","27"
"html-keyboard-response","219","296846","0.0-19.0-1.27","63dd3dd2593c92be97d8dbde","bdp_trlrn","Sat Apr 08 2023 08:38:38 GMT-0700 (Pacific Daylight Time)","494719","Untrustworthy,Trustworthy","","97","","","","decision","","<div class='trialDiv'><img src='trustrating_stim/white_00602_940928_fb_edt.bmp'><br><font class='baseline'><strong>Timothy</strong><p>Choose number of points to send.</font><div class='respPicDiv'><img src='img/responseButtonOffersNo0L.png' class='respPic'></div></div>","5","","10","Timothy","8","Kept","0.35,0.8","11","0.35","trustrating_stim/white_00602_940928_fb_edt.bmp","6","205","28"
