"event","trial","time","trialtype","subject_id","task","startTime","totalTime","labels","trial_type","trial_index","time_elapsed","internal_node_id","view_history","rt","success","stimulus","key_press","aground","name","faceID","outcome","agenttype","agentswpt","agentcurrpshare","face","avgRating","point_total","round"
"focus","0","0","focusevent","6092dea4efd6d61350f0fdbf","bdp_trlrn","Wed Mar 15 2023 14:34:48 GMT-0500 (Central Daylight Time)","624486","Trustworthy,Untrustworthy","","","","","","","","","","","","","","","","","","","",""
"","","","","6092dea4efd6d61350f0fdbf","bdp_trlrn","Wed Mar 15 2023 14:34:48 GMT-0500 (Central Daylight Time)","624486","Trustworthy,Untrustworthy","pavlovia","0","7","0.0-0.0","","","","","","","","","","","","","","","",""
"","","","","6092dea4efd6d61350f0fdbf","bdp_trlrn","Wed Mar 15 2023 14:34:48 GMT-0500 (Central Daylight Time)","624486","Trustworthy,Untrustworthy","instructions","1","3307","0.0-1.0","[{""page_index"":0,""viewing_time"":3300}]","3300","","","","","","","","","","","","","",""
"fullscreenexit","2","4863","fullscreenexit","6092dea4efd6d61350f0fdbf","bdp_trlrn","Wed Mar 15 2023 14:34:48 GMT-0500 (Central Daylight Time)","624486","Trustworthy,Untrustworthy","","","","","","","","","","","","","","","","","","","",""
"","","","","6092dea4efd6d61350f0fdbf","bdp_trlrn","Wed Mar 15 2023 14:34:48 GMT-0500 (Central Daylight Time)","624486","Trustworthy,Untrustworthy","fullscreen","2","5652","0.0-2.0","","","true","","","","","","","","","","","","",""
"","","","fullscreenfail","6092dea4efd6d61350f0fdbf","bdp_trlrn","Wed Mar 15 2023 14:34:48 GMT-0500 (Central Daylight Time)","624486","Trustworthy,Untrustworthy","image-keyboard-response","3","6938","0.0-3.0-0.0","","1282","","","32","","","","","","","","","","",""
"","","","","6092dea4efd6d61350f0fdbf","bdp_trlrn","Wed Mar 15 2023 14:34:48 GMT-0500 (Central Daylight Time)","624486","Trustworthy,Untrustworthy","instructions","4","16714","0.0-4.0","[{""page_index"":0,""viewing_time"":6816},{""page_index"":1,""viewing_time"":2698}]","9514","","","","","","","","","","","","","",""
"","","","","6092dea4efd6d61350f0fdbf","bdp_trlrn","Wed Mar 15 2023 14:34:48 GMT-0500 (Central Daylight Time)","624486","Trustworthy,Untrustworthy","instructions","5","17460","0.0-5.0","[{""page_index"":0,""viewing_time"":745}]","745","","","","","","","","","","","","","",""
"","","","rating","6092dea4efd6d61350f0fdbf","bdp_trlrn","Wed Mar 15 2023 14:34:48 GMT-0500 (Central Daylight Time)","624486","Trustworthy,Untrustworthy","image-keyboard-response","6","19789","0.0-6.0-1.0","","2221","","trustrating_stim/white_mw063.bmp","4","","","","","","","","","","",""
"","","","ratingFB","6092dea4efd6d61350f0fdbf","bdp_trlrn","Wed Mar 15 2023 14:34:48 GMT-0500 (Central Daylight Time)","624486","Trustworthy,Untrustworthy","image-keyboard-response","7","19993","0.0-6.0-2.0","","null","","trustrating_stim/white_mw063.bmp","null","","","","","","","","","","",""
"","","","rating","6092dea4efd6d61350f0fdbf","bdp_trlrn","Wed Mar 15 2023 14:34:48 GMT-0500 (Central Daylight Time)","624486","Trustworthy,Untrustworthy","image-keyboard-response","8","21789","0.0-6.0-1.1","","1684","","trustrating_stim/white_00120_931230_fa_edt.bmp","5","","","","","","","","","","",""
"","","","ratingFB","6092dea4efd6d61350f0fdbf","bdp_trlrn","Wed Mar 15 2023 14:34:48 GMT-0500 (Central Daylight Time)","624486","Trustworthy,Untrustworthy","image-keyboard-response","9","21991","0.0-6.0-2.1","","null","","trustrating_stim/white_00120_931230_fa_edt.bmp","null","","","","","","","","","","",""
"","","","rating","6092dea4efd6d61350f0fdbf","bdp_trlrn","Wed Mar 15 2023 14:34:48 GMT-0500 (Central Daylight Time)","624486","Trustworthy,Untrustworthy","image-keyboard-response","10","23399","0.0-6.0-1.2","","1295","","trustrating_stim/white_00340_940422_fa_edt.bmp","4","","","","","","","","","","",""
"","","","ratingFB","6092dea4efd6d61350f0fdbf","bdp_trlrn","Wed Mar 15 2023 14:34:48 GMT-0500 (Central Daylight Time)","624486","Trustworthy,Untrustworthy","image-keyboard-response","11","23613","0.0-6.0-2.2","","null","","trustrating_stim/white_00340_940422_fa_edt.bmp","null","","","","","","","","","","",""
"","","","rating","6092dea4efd6d61350f0fdbf","bdp_trlrn","Wed Mar 15 2023 14:34:48 GMT-0500 (Central Daylight Time)","624486","Trustworthy,Untrustworthy","image-keyboard-response","12","26630","0.0-6.0-1.3","","2907","","trustrating_stim/white_00129_931230_fb_edt.bmp","7","","","","","","","","","","",""
"","","","ratingFB","6092dea4efd6d61350f0fdbf","bdp_trlrn","Wed Mar 15 2023 14:34:48 GMT-0500 (Central Daylight Time)","624486","Trustworthy,Untrustworthy","image-keyboard-response","13","26834","0.0-6.0-2.3","","null","","trustrating_stim/white_00129_931230_fb_edt.bmp","null","","","","","","","","","","",""
"","","","rating","6092dea4efd6d61350f0fdbf","bdp_trlrn","Wed Mar 15 2023 14:34:48 GMT-0500 (Central Daylight Time)","624486","Trustworthy,Untrustworthy","image-keyboard-response","14","28251","0.0-6.0-1.4","","1307","","trustrating_stim/white_mw053.bmp","8","","","","","","","","","","",""
"","","","ratingFB","6092dea4efd6d61350f0fdbf","bdp_trlrn","Wed Mar 15 2023 14:34:48 GMT-0500 (Central Daylight Time)","624486","Trustworthy,Untrustworthy","image-keyboard-response","15","28456","0.0-6.0-2.4","","null","","trustrating_stim/white_mw053.bmp","null","","","","","","","","","","",""
"","","","rating","6092dea4efd6d61350f0fdbf","bdp_trlrn","Wed Mar 15 2023 14:34:48 GMT-0500 (Central Daylight Time)","624486","Trustworthy,Untrustworthy","image-keyboard-response","16","30101","0.0-6.0-1.5","","1535","","trustrating_stim/white_00659_941121_fa_edt.bmp","4","","","","","","","","","","",""
"","","","ratingFB","6092dea4efd6d61350f0fdbf","bdp_trlrn","Wed Mar 15 2023 14:34:48 GMT-0500 (Central Daylight Time)","624486","Trustworthy,Untrustworthy","image-keyboard-response","17","30310","0.0-6.0-2.5","","null","","trustrating_stim/white_00659_941121_fa_edt.bmp","null","","","","","","","","","","",""
"","","","rating","6092dea4efd6d61350f0fdbf","bdp_trlrn","Wed Mar 15 2023 14:34:48 GMT-0500 (Central Daylight Time)","624486","Trustworthy,Untrustworthy","image-keyboard-response","18","31333","0.0-6.0-1.6","","914","","trustrating_stim/white_00757_941201_fa_edt.bmp","3","","","","","","","","","","",""
"","","","ratingFB","6092dea4efd6d61350f0fdbf","bdp_trlrn","Wed Mar 15 2023 14:34:48 GMT-0500 (Central Daylight Time)","624486","Trustworthy,Untrustworthy","image-keyboard-response","19","31543","0.0-6.0-2.6","","null","","trustrating_stim/white_00757_941201_fa_edt.bmp","null","","","","","","","","","","",""
"","","","rating","6092dea4efd6d61350f0fdbf","bdp_trlrn","Wed Mar 15 2023 14:34:48 GMT-0500 (Central Daylight Time)","624486","Trustworthy,Untrustworthy","image-keyboard-response","20","32871","0.0-6.0-1.7","","1218","","trustrating_stim/white_mw099.bmp","3","","","","","","","","","","",""
"","","","ratingFB","6092dea4efd6d61350f0fdbf","bdp_trlrn","Wed Mar 15 2023 14:34:48 GMT-0500 (Central Daylight Time)","624486","Trustworthy,Untrustworthy","image-keyboard-response","21","33086","0.0-6.0-2.7","","null","","trustrating_stim/white_mw099.bmp","null","","","","","","","","","","",""
"","","","rating","6092dea4efd6d61350f0fdbf","bdp_trlrn","Wed Mar 15 2023 14:34:48 GMT-0500 (Central Daylight Time)","624486","Trustworthy,Untrustworthy","image-keyboard-response","22","35024","0.0-6.0-1.8","","1829","","trustrating_stim/white_00602_940928_fb_edt.bmp","8","","","","","","","","","","",""
"","","","ratingFB","6092dea4efd6d61350f0fdbf","bdp_trlrn","Wed Mar 15 2023 14:34:48 GMT-0500 (Central Daylight Time)","624486","Trustworthy,Untrustworthy","image-keyboard-response","23","35235","0.0-6.0-2.8","","null","","trustrating_stim/white_00602_940928_fb_edt.bmp","null","","","","","","","","","","",""
"","","","rating","6092dea4efd6d61350f0fdbf","bdp_trlrn","Wed Mar 15 2023 14:34:48 GMT-0500 (Central Daylight Time)","624486","Trustworthy,Untrustworthy","image-keyboard-response","24","36711","0.0-6.0-1.9","","1367","","trustrating_stim/white_mw035.bmp","4","","","","","","","","","","",""
"","","","ratingFB","6092dea4efd6d61350f0fdbf","bdp_trlrn","Wed Mar 15 2023 14:34:48 GMT-0500 (Central Daylight Time)","624486","Trustworthy,Untrustworthy","image-keyboard-response","25","36917","0.0-6.0-2.9","","null","","trustrating_stim/white_mw035.bmp","null","","","","","","","","","","",""
"","","","rating","6092dea4efd6d61350f0fdbf","bdp_trlrn","Wed Mar 15 2023 14:34:48 GMT-0500 (Central Daylight Time)","624486","Trustworthy,Untrustworthy","image-keyboard-response","26","38886","0.0-6.0-1.10","","1859","","trustrating_stim/white_mw033.bmp","5","","","","","","","","","","",""
"","","","ratingFB","6092dea4efd6d61350f0fdbf","bdp_trlrn","Wed Mar 15 2023 14:34:48 GMT-0500 (Central Daylight Time)","624486","Trustworthy,Untrustworthy","image-keyboard-response","27","39096","0.0-6.0-2.10","","null","","trustrating_stim/white_mw033.bmp","null","","","","","","","","","","",""
"","","","rating","6092dea4efd6d61350f0fdbf","bdp_trlrn","Wed Mar 15 2023 14:34:48 GMT-0500 (Central Daylight Time)","624486","Trustworthy,Untrustworthy","image-keyboard-response","28","40582","0.0-6.0-1.11","","1374","","trustrating_stim/white_mw089.bmp","4","","","","","","","","","","",""
"","","","ratingFB","6092dea4efd6d61350f0fdbf","bdp_trlrn","Wed Mar 15 2023 14:34:48 GMT-0500 (Central Daylight Time)","624486","Trustworthy,Untrustworthy","image-keyboard-response","29","40789","0.0-6.0-2.11","","null","","trustrating_stim/white_mw089.bmp","null","","","","","","","","","","",""
"","","","rating","6092dea4efd6d61350f0fdbf","bdp_trlrn","Wed Mar 15 2023 14:34:48 GMT-0500 (Central Daylight Time)","624486","Trustworthy,Untrustworthy","image-keyboard-response","30","42120","0.0-6.0-1.12","","1221","","trustrating_stim/white_mw084.bmp","4","","","","","","","","","","",""
"","","","ratingFB","6092dea4efd6d61350f0fdbf","bdp_trlrn","Wed Mar 15 2023 14:34:48 GMT-0500 (Central Daylight Time)","624486","Trustworthy,Untrustworthy","image-keyboard-response","31","42335","0.0-6.0-2.12","","null","","trustrating_stim/white_mw084.bmp","null","","","","","","","","","","",""
"","","","rating","6092dea4efd6d61350f0fdbf","bdp_trlrn","Wed Mar 15 2023 14:34:48 GMT-0500 (Central Daylight Time)","624486","Trustworthy,Untrustworthy","image-keyboard-response","32","43899","0.0-6.0-1.13","","1454","","trustrating_stim/white_mw060.bmp","3","","","","","","","","","","",""
"","","","ratingFB","6092dea4efd6d61350f0fdbf","bdp_trlrn","Wed Mar 15 2023 14:34:48 GMT-0500 (Central Daylight Time)","624486","Trustworthy,Untrustworthy","image-keyboard-response","33","44110","0.0-6.0-2.13","","null","","trustrating_stim/white_mw060.bmp","null","","","","","","","","","","",""
"","","","rating","6092dea4efd6d61350f0fdbf","bdp_trlrn","Wed Mar 15 2023 14:34:48 GMT-0500 (Central Daylight Time)","624486","Trustworthy,Untrustworthy","image-keyboard-response","34","45492","0.0-6.0-1.14","","1270","","trustrating_stim/white_mw056.bmp","3","","","","","","","","","","",""
"","","","ratingFB","6092dea4efd6d61350f0fdbf","bdp_trlrn","Wed Mar 15 2023 14:34:48 GMT-0500 (Central Daylight Time)","624486","Trustworthy,Untrustworthy","image-keyboard-response","35","45697","0.0-6.0-2.14","","null","","trustrating_stim/white_mw056.bmp","null","","","","","","","","","","",""
"","","","rating","6092dea4efd6d61350f0fdbf","bdp_trlrn","Wed Mar 15 2023 14:34:48 GMT-0500 (Central Daylight Time)","624486","Trustworthy,Untrustworthy","image-keyboard-response","36","47709","0.0-6.0-1.15","","1902","","trustrating_stim/white_mw066.bmp","4","","","","","","","","","","",""
"","","","ratingFB","6092dea4efd6d61350f0fdbf","bdp_trlrn","Wed Mar 15 2023 14:34:48 GMT-0500 (Central Daylight Time)","624486","Trustworthy,Untrustworthy","image-keyboard-response","37","47915","0.0-6.0-2.15","","null","","trustrating_stim/white_mw066.bmp","null","","","","","","","","","","",""
"","","","rating","6092dea4efd6d61350f0fdbf","bdp_trlrn","Wed Mar 15 2023 14:34:48 GMT-0500 (Central Daylight Time)","624486","Trustworthy,Untrustworthy","image-keyboard-response","38","50817","0.0-6.0-1.16","","2793","","trustrating_stim/white_00299_940422_fa_edt.bmp","7","","","","","","","","","","",""
"","","","ratingFB","6092dea4efd6d61350f0fdbf","bdp_trlrn","Wed Mar 15 2023 14:34:48 GMT-0500 (Central Daylight Time)","624486","Trustworthy,Untrustworthy","image-keyboard-response","39","51031","0.0-6.0-2.16","","null","","trustrating_stim/white_00299_940422_fa_edt.bmp","null","","","","","","","","","","",""
"","","","rating","6092dea4efd6d61350f0fdbf","bdp_trlrn","Wed Mar 15 2023 14:34:48 GMT-0500 (Central Daylight Time)","624486","Trustworthy,Untrustworthy","image-keyboard-response","40","54072","0.0-6.0-1.17","","2932","","trustrating_stim/white_mw046.bmp","2","","","","","","","","","","",""
"","","","ratingFB","6092dea4efd6d61350f0fdbf","bdp_trlrn","Wed Mar 15 2023 14:34:48 GMT-0500 (Central Daylight Time)","624486","Trustworthy,Untrustworthy","image-keyboard-response","41","54283","0.0-6.0-2.17","","null","","trustrating_stim/white_mw046.bmp","null","","","","","","","","","","",""
"","","","rating","6092dea4efd6d61350f0fdbf","bdp_trlrn","Wed Mar 15 2023 14:34:48 GMT-0500 (Central Daylight Time)","624486","Trustworthy,Untrustworthy","image-keyboard-response","42","55340","0.0-6.0-1.18","","944","","trustrating_stim/white_mw071.bmp","2","","","","","","","","","","",""
"","","","ratingFB","6092dea4efd6d61350f0fdbf","bdp_trlrn","Wed Mar 15 2023 14:34:48 GMT-0500 (Central Daylight Time)","624486","Trustworthy,Untrustworthy","image-keyboard-response","43","55543","0.0-6.0-2.18","","null","","trustrating_stim/white_mw071.bmp","null","","","","","","","","","","",""
"","","","rating","6092dea4efd6d61350f0fdbf","bdp_trlrn","Wed Mar 15 2023 14:34:48 GMT-0500 (Central Daylight Time)","624486","Trustworthy,Untrustworthy","image-keyboard-response","44","57349","0.0-6.0-1.19","","1696","","trustrating_stim/white_00577_940928_fa_edt.bmp","3","","","","","","","","","","",""
"","","","ratingFB","6092dea4efd6d61350f0fdbf","bdp_trlrn","Wed Mar 15 2023 14:34:48 GMT-0500 (Central Daylight Time)","624486","Trustworthy,Untrustworthy","image-keyboard-response","45","57559","0.0-6.0-2.19","","null","","trustrating_stim/white_00577_940928_fa_edt.bmp","null","","","","","","","","","","",""
"","","","rating","6092dea4efd6d61350f0fdbf","bdp_trlrn","Wed Mar 15 2023 14:34:48 GMT-0500 (Central Daylight Time)","624486","Trustworthy,Untrustworthy","image-keyboard-response","46","60781","0.0-6.0-1.20","","3114","","trustrating_stim/white_00785_941205_fb_edt.bmp","7","","","","","","","","","","",""
"","","","ratingFB","6092dea4efd6d61350f0fdbf","bdp_trlrn","Wed Mar 15 2023 14:34:48 GMT-0500 (Central Daylight Time)","624486","Trustworthy,Untrustworthy","image-keyboard-response","47","60991","0.0-6.0-2.20","","null","","trustrating_stim/white_00785_941205_fb_edt.bmp","null","","","","","","","","","","",""
"","","","rating","6092dea4efd6d61350f0fdbf","bdp_trlrn","Wed Mar 15 2023 14:34:48 GMT-0500 (Central Daylight Time)","624486","Trustworthy,Untrustworthy","image-keyboard-response","48","63308","0.0-6.0-1.21","","2208","","trustrating_stim/white_00109_931230_fa_edt.bmp","7","","","","","","","","","","",""
"","","","ratingFB","6092dea4efd6d61350f0fdbf","bdp_trlrn","Wed Mar 15 2023 14:34:48 GMT-0500 (Central Daylight Time)","624486","Trustworthy,Untrustworthy","image-keyboard-response","49","63516","0.0-6.0-2.21","","null","","trustrating_stim/white_00109_931230_fa_edt.bmp","null","","","","","","","","","","",""
"","","","rating","6092dea4efd6d61350f0fdbf","bdp_trlrn","Wed Mar 15 2023 14:34:48 GMT-0500 (Central Daylight Time)","624486","Trustworthy,Untrustworthy","image-keyboard-response","50","64598","0.0-6.0-1.22","","973","","trustrating_stim/white_mw049.bmp","3","","","","","","","","","","",""
"","","","ratingFB","6092dea4efd6d61350f0fdbf","bdp_trlrn","Wed Mar 15 2023 14:34:48 GMT-0500 (Central Daylight Time)","624486","Trustworthy,Untrustworthy","image-keyboard-response","51","64812","0.0-6.0-2.22","","null","","trustrating_stim/white_mw049.bmp","null","","","","","","","","","","",""
"","","","rating","6092dea4efd6d61350f0fdbf","bdp_trlrn","Wed Mar 15 2023 14:34:48 GMT-0500 (Central Daylight Time)","624486","Trustworthy,Untrustworthy","image-keyboard-response","52","66633","0.0-6.0-1.23","","1713","","trustrating_stim/white_00761_941201_fb_edt.bmp","2","","","","","","","","","","",""
"","","","ratingFB","6092dea4efd6d61350f0fdbf","bdp_trlrn","Wed Mar 15 2023 14:34:48 GMT-0500 (Central Daylight Time)","624486","Trustworthy,Untrustworthy","image-keyboard-response","53","66837","0.0-6.0-2.23","","null","","trustrating_stim/white_00761_941201_fb_edt.bmp","null","","","","","","","","","","",""
"","","","rating","6092dea4efd6d61350f0fdbf","bdp_trlrn","Wed Mar 15 2023 14:34:48 GMT-0500 (Central Daylight Time)","624486","Trustworthy,Untrustworthy","image-keyboard-response","54","68300","0.0-6.0-1.24","","1351","","trustrating_stim/white_mw097.bmp","3","","","","","","","","","","",""
"","","","ratingFB","6092dea4efd6d61350f0fdbf","bdp_trlrn","Wed Mar 15 2023 14:34:48 GMT-0500 (Central Daylight Time)","624486","Trustworthy,Untrustworthy","image-keyboard-response","55","68507","0.0-6.0-2.24","","null","","trustrating_stim/white_mw097.bmp","null","","","","","","","","","","",""
"","","","rating","6092dea4efd6d61350f0fdbf","bdp_trlrn","Wed Mar 15 2023 14:34:48 GMT-0500 (Central Daylight Time)","624486","Trustworthy,Untrustworthy","image-keyboard-response","56","70646","0.0-6.0-1.25","","2030","","trustrating_stim/white_00807_941205_fb_edt.bmp","7","","","","","","","","","","",""
"","","","ratingFB","6092dea4efd6d61350f0fdbf","bdp_trlrn","Wed Mar 15 2023 14:34:48 GMT-0500 (Central Daylight Time)","624486","Trustworthy,Untrustworthy","image-keyboard-response","57","70847","0.0-6.0-2.25","","null","","trustrating_stim/white_00807_941205_fb_edt.bmp","null","","","","","","","","","","",""
"","","","rating","6092dea4efd6d61350f0fdbf","bdp_trlrn","Wed Mar 15 2023 14:34:48 GMT-0500 (Central Daylight Time)","624486","Trustworthy,Untrustworthy","image-keyboard-response","58","73580","0.0-6.0-1.26","","2625","","trustrating_stim/white_00223_940128_fb_edt.bmp","4","","","","","","","","","","",""
"","","","ratingFB","6092dea4efd6d61350f0fdbf","bdp_trlrn","Wed Mar 15 2023 14:34:48 GMT-0500 (Central Daylight Time)","624486","Trustworthy,Untrustworthy","image-keyboard-response","59","73795","0.0-6.0-2.26","","null","","trustrating_stim/white_00223_940128_fb_edt.bmp","null","","","","","","","","","","",""
"","","","rating","6092dea4efd6d61350f0fdbf","bdp_trlrn","Wed Mar 15 2023 14:34:48 GMT-0500 (Central Daylight Time)","624486","Trustworthy,Untrustworthy","image-keyboard-response","60","76006","0.0-6.0-1.27","","2101","","trustrating_stim/white_00519_940519_fb_edt.bmp","3","","","","","","","","","","",""
"","","","ratingFB","6092dea4efd6d61350f0fdbf","bdp_trlrn","Wed Mar 15 2023 14:34:48 GMT-0500 (Central Daylight Time)","624486","Trustworthy,Untrustworthy","image-keyboard-response","61","76217","0.0-6.0-2.27","","null","","trustrating_stim/white_00519_940519_fb_edt.bmp","null","","","","","","","","","","",""
"","","","rating","6092dea4efd6d61350f0fdbf","bdp_trlrn","Wed Mar 15 2023 14:34:48 GMT-0500 (Central Daylight Time)","624486","Trustworthy,Untrustworthy","image-keyboard-response","62","80174","0.0-6.0-1.28","","3848","","trustrating_stim/white_mw048.bmp","3","","","","","","","","","","",""
"","","","ratingFB","6092dea4efd6d61350f0fdbf","bdp_trlrn","Wed Mar 15 2023 14:34:48 GMT-0500 (Central Daylight Time)","624486","Trustworthy,Untrustworthy","image-keyboard-response","63","80390","0.0-6.0-2.28","","null","","trustrating_stim/white_mw048.bmp","null","","","","","","","","","","",""
"","","","rating","6092dea4efd6d61350f0fdbf","bdp_trlrn","Wed Mar 15 2023 14:34:48 GMT-0500 (Central Daylight Time)","624486","Trustworthy,Untrustworthy","image-keyboard-response","64","88696","0.0-6.0-1.29","","8196","","trustrating_stim/white_00898_960530_fa_edt.bmp","4","","","","","","","","","","",""
"","","","ratingFB","6092dea4efd6d61350f0fdbf","bdp_trlrn","Wed Mar 15 2023 14:34:48 GMT-0500 (Central Daylight Time)","624486","Trustworthy,Untrustworthy","image-keyboard-response","65","88901","0.0-6.0-2.29","","null","","trustrating_stim/white_00898_960530_fa_edt.bmp","null","","","","","","","","","","",""
"","","","rating","6092dea4efd6d61350f0fdbf","bdp_trlrn","Wed Mar 15 2023 14:34:48 GMT-0500 (Central Daylight Time)","624486","Trustworthy,Untrustworthy","image-keyboard-response","66","90711","0.0-6.0-1.30","","1701","","trustrating_stim/white_00785_941205_fb_edt.bmp","3","","","","","","","","","","",""
"","","","ratingFB","6092dea4efd6d61350f0fdbf","bdp_trlrn","Wed Mar 15 2023 14:34:48 GMT-0500 (Central Daylight Time)","624486","Trustworthy,Untrustworthy","image-keyboard-response","67","90913","0.0-6.0-2.30","","null","","trustrating_stim/white_00785_941205_fb_edt.bmp","null","","","","","","","","","","",""
"","","","rating","6092dea4efd6d61350f0fdbf","bdp_trlrn","Wed Mar 15 2023 14:34:48 GMT-0500 (Central Daylight Time)","624486","Trustworthy,Untrustworthy","image-keyboard-response","68","92300","0.0-6.0-1.31","","1278","","trustrating_stim/white_00602_940928_fb_edt.bmp","3","","","","","","","","","","",""
"","","","ratingFB","6092dea4efd6d61350f0fdbf","bdp_trlrn","Wed Mar 15 2023 14:34:48 GMT-0500 (Central Daylight Time)","624486","Trustworthy,Untrustworthy","image-keyboard-response","69","92503","0.0-6.0-2.31","","null","","trustrating_stim/white_00602_940928_fb_edt.bmp","null","","","","","","","","","","",""
"","","","rating","6092dea4efd6d61350f0fdbf","bdp_trlrn","Wed Mar 15 2023 14:34:48 GMT-0500 (Central Daylight Time)","624486","Trustworthy,Untrustworthy","image-keyboard-response","70","94148","0.0-6.0-1.32","","1537","","trustrating_stim/white_mw089.bmp","3","","","","","","","","","","",""
"","","","ratingFB","6092dea4efd6d61350f0fdbf","bdp_trlrn","Wed Mar 15 2023 14:34:48 GMT-0500 (Central Daylight Time)","624486","Trustworthy,Untrustworthy","image-keyboard-response","71","94353","0.0-6.0-2.32","","null","","trustrating_stim/white_mw089.bmp","null","","","","","","","","","","",""
"","","","rating","6092dea4efd6d61350f0fdbf","bdp_trlrn","Wed Mar 15 2023 14:34:48 GMT-0500 (Central Daylight Time)","624486","Trustworthy,Untrustworthy","image-keyboard-response","72","95356","0.0-6.0-1.33","","893","","trustrating_stim/white_mw049.bmp","3","","","","","","","","","","",""
"","","","ratingFB","6092dea4efd6d61350f0fdbf","bdp_trlrn","Wed Mar 15 2023 14:34:48 GMT-0500 (Central Daylight Time)","624486","Trustworthy,Untrustworthy","image-keyboard-response","73","95568","0.0-6.0-2.33","","null","","trustrating_stim/white_mw049.bmp","null","","","","","","","","","","",""
"","","","rating","6092dea4efd6d61350f0fdbf","bdp_trlrn","Wed Mar 15 2023 14:34:48 GMT-0500 (Central Daylight Time)","624486","Trustworthy,Untrustworthy","image-keyboard-response","74","96569","0.0-6.0-1.34","","891","","trustrating_stim/white_00659_941121_fa_edt.bmp","3","","","","","","","","","","",""
"","","","ratingFB","6092dea4efd6d61350f0fdbf","bdp_trlrn","Wed Mar 15 2023 14:34:48 GMT-0500 (Central Daylight Time)","624486","Trustworthy,Untrustworthy","image-keyboard-response","75","96784","0.0-6.0-2.34","","null","","trustrating_stim/white_00659_941121_fa_edt.bmp","null","","","","","","","","","","",""
"","","","rating","6092dea4efd6d61350f0fdbf","bdp_trlrn","Wed Mar 15 2023 14:34:48 GMT-0500 (Central Daylight Time)","624486","Trustworthy,Untrustworthy","image-keyboard-response","76","98348","0.0-6.0-1.35","","1453","","trustrating_stim/white_00519_940519_fb_edt.bmp","5","","","","","","","","","","",""
"","","","ratingFB","6092dea4efd6d61350f0fdbf","bdp_trlrn","Wed Mar 15 2023 14:34:48 GMT-0500 (Central Daylight Time)","624486","Trustworthy,Untrustworthy","image-keyboard-response","77","98562","0.0-6.0-2.35","","null","","trustrating_stim/white_00519_940519_fb_edt.bmp","null","","","","","","","","","","",""
"","","","rating","6092dea4efd6d61350f0fdbf","bdp_trlrn","Wed Mar 15 2023 14:34:48 GMT-0500 (Central Daylight Time)","624486","Trustworthy,Untrustworthy","image-keyboard-response","78","100459","0.0-6.0-1.36","","1788","","trustrating_stim/white_00109_931230_fa_edt.bmp","7","","","","","","","","","","",""
"","","","ratingFB","6092dea4efd6d61350f0fdbf","bdp_trlrn","Wed Mar 15 2023 14:34:48 GMT-0500 (Central Daylight Time)","624486","Trustworthy,Untrustworthy","image-keyboard-response","79","100670","0.0-6.0-2.36","","null","","trustrating_stim/white_00109_931230_fa_edt.bmp","null","","","","","","","","","","",""
"","","","rating","6092dea4efd6d61350f0fdbf","bdp_trlrn","Wed Mar 15 2023 14:34:48 GMT-0500 (Central Daylight Time)","624486","Trustworthy,Untrustworthy","image-keyboard-response","80","101929","0.0-6.0-1.37","","1149","","trustrating_stim/white_mw071.bmp","3","","","","","","","","","","",""
"","","","ratingFB","6092dea4efd6d61350f0fdbf","bdp_trlrn","Wed Mar 15 2023 14:34:48 GMT-0500 (Central Daylight Time)","624486","Trustworthy,Untrustworthy","image-keyboard-response","81","102136","0.0-6.0-2.37","","null","","trustrating_stim/white_mw071.bmp","null","","","","","","","","","","",""
"","","","rating","6092dea4efd6d61350f0fdbf","bdp_trlrn","Wed Mar 15 2023 14:34:48 GMT-0500 (Central Daylight Time)","624486","Trustworthy,Untrustworthy","image-keyboard-response","82","103004","0.0-6.0-1.38","","756","","trustrating_stim/white_mw060.bmp","4","","","","","","","","","","",""
"","","","ratingFB","6092dea4efd6d61350f0fdbf","bdp_trlrn","Wed Mar 15 2023 14:34:48 GMT-0500 (Central Daylight Time)","624486","Trustworthy,Untrustworthy","image-keyboard-response","83","103213","0.0-6.0-2.38","","null","","trustrating_stim/white_mw060.bmp","null","","","","","","","","","","",""
"","","","rating","6092dea4efd6d61350f0fdbf","bdp_trlrn","Wed Mar 15 2023 14:34:48 GMT-0500 (Central Daylight Time)","624486","Trustworthy,Untrustworthy","image-keyboard-response","84","105509","0.0-6.0-1.39","","2182","","trustrating_stim/white_mw066.bmp","7","","","","","","","","","","",""
"","","","ratingFB","6092dea4efd6d61350f0fdbf","bdp_trlrn","Wed Mar 15 2023 14:34:48 GMT-0500 (Central Daylight Time)","624486","Trustworthy,Untrustworthy","image-keyboard-response","85","105720","0.0-6.0-2.39","","null","","trustrating_stim/white_mw066.bmp","null","","","","","","","","","","",""
"","","","rating","6092dea4efd6d61350f0fdbf","bdp_trlrn","Wed Mar 15 2023 14:34:48 GMT-0500 (Central Daylight Time)","624486","Trustworthy,Untrustworthy","image-keyboard-response","86","106818","0.0-6.0-1.40","","988","","trustrating_stim/white_00807_941205_fb_edt.bmp","3","","","","","","","","","","",""
"","","","ratingFB","6092dea4efd6d61350f0fdbf","bdp_trlrn","Wed Mar 15 2023 14:34:48 GMT-0500 (Central Daylight Time)","624486","Trustworthy,Untrustworthy","image-keyboard-response","87","107029","0.0-6.0-2.40","","null","","trustrating_stim/white_00807_941205_fb_edt.bmp","null","","","","","","","","","","",""
"","","","rating","6092dea4efd6d61350f0fdbf","bdp_trlrn","Wed Mar 15 2023 14:34:48 GMT-0500 (Central Daylight Time)","624486","Trustworthy,Untrustworthy","image-keyboard-response","88","109662","0.0-6.0-1.41","","2523","","trustrating_stim/white_mw033.bmp","6","","","","","","","","","","",""
"","","","ratingFB","6092dea4efd6d61350f0fdbf","bdp_trlrn","Wed Mar 15 2023 14:34:48 GMT-0500 (Central Daylight Time)","624486","Trustworthy,Untrustworthy","image-keyboard-response","89","109867","0.0-6.0-2.41","","null","","trustrating_stim/white_mw033.bmp","null","","","","","","","","","","",""
"","","","rating","6092dea4efd6d61350f0fdbf","bdp_trlrn","Wed Mar 15 2023 14:34:48 GMT-0500 (Central Daylight Time)","624486","Trustworthy,Untrustworthy","image-keyboard-response","90","111709","0.0-6.0-1.42","","1732","","trustrating_stim/white_mw048.bmp","5","","","","","","","","","","",""
"","","","ratingFB","6092dea4efd6d61350f0fdbf","bdp_trlrn","Wed Mar 15 2023 14:34:48 GMT-0500 (Central Daylight Time)","624486","Trustworthy,Untrustworthy","image-keyboard-response","91","111913","0.0-6.0-2.42","","null","","trustrating_stim/white_mw048.bmp","null","","","","","","","","","","",""
"","","","rating","6092dea4efd6d61350f0fdbf","bdp_trlrn","Wed Mar 15 2023 14:34:48 GMT-0500 (Central Daylight Time)","624486","Trustworthy,Untrustworthy","image-keyboard-response","92","113700","0.0-6.0-1.43","","1680","","trustrating_stim/white_mw084.bmp","4","","","","","","","","","","",""
"","","","ratingFB","6092dea4efd6d61350f0fdbf","bdp_trlrn","Wed Mar 15 2023 14:34:48 GMT-0500 (Central Daylight Time)","624486","Trustworthy,Untrustworthy","image-keyboard-response","93","113906","0.0-6.0-2.43","","null","","trustrating_stim/white_mw084.bmp","null","","","","","","","","","","",""
"","","","rating","6092dea4efd6d61350f0fdbf","bdp_trlrn","Wed Mar 15 2023 14:34:48 GMT-0500 (Central Daylight Time)","624486","Trustworthy,Untrustworthy","image-keyboard-response","94","114954","0.0-6.0-1.44","","939","","trustrating_stim/white_mw097.bmp","3","","","","","","","","","","",""
"","","","ratingFB","6092dea4efd6d61350f0fdbf","bdp_trlrn","Wed Mar 15 2023 14:34:48 GMT-0500 (Central Daylight Time)","624486","Trustworthy,Untrustworthy","image-keyboard-response","95","115156","0.0-6.0-2.44","","null","","trustrating_stim/white_mw097.bmp","null","","","","","","","","","","",""
"","","","rating","6092dea4efd6d61350f0fdbf","bdp_trlrn","Wed Mar 15 2023 14:34:48 GMT-0500 (Central Daylight Time)","624486","Trustworthy,Untrustworthy","image-keyboard-response","96","116250","0.0-6.0-1.45","","985","","trustrating_stim/white_mw099.bmp","4","","","","","","","","","","",""
"","","","ratingFB","6092dea4efd6d61350f0fdbf","bdp_trlrn","Wed Mar 15 2023 14:34:48 GMT-0500 (Central Daylight Time)","624486","Trustworthy,Untrustworthy","image-keyboard-response","97","116463","0.0-6.0-2.45","","null","","trustrating_stim/white_mw099.bmp","null","","","","","","","","","","",""
"","","","rating","6092dea4efd6d61350f0fdbf","bdp_trlrn","Wed Mar 15 2023 14:34:48 GMT-0500 (Central Daylight Time)","624486","Trustworthy,Untrustworthy","image-keyboard-response","98","118102","0.0-6.0-1.46","","1528","","trustrating_stim/white_00223_940128_fb_edt.bmp","3","","","","","","","","","","",""
"","","","ratingFB","6092dea4efd6d61350f0fdbf","bdp_trlrn","Wed Mar 15 2023 14:34:48 GMT-0500 (Central Daylight Time)","624486","Trustworthy,Untrustworthy","image-keyboard-response","99","118305","0.0-6.0-2.46","","null","","trustrating_stim/white_00223_940128_fb_edt.bmp","null","","","","","","","","","","",""
"","","","rating","6092dea4efd6d61350f0fdbf","bdp_trlrn","Wed Mar 15 2023 14:34:48 GMT-0500 (Central Daylight Time)","624486","Trustworthy,Untrustworthy","image-keyboard-response","100","119405","0.0-6.0-1.47","","990","","trustrating_stim/white_00129_931230_fb_edt.bmp","4","","","","","","","","","","",""
"","","","ratingFB","6092dea4efd6d61350f0fdbf","bdp_trlrn","Wed Mar 15 2023 14:34:48 GMT-0500 (Central Daylight Time)","624486","Trustworthy,Untrustworthy","image-keyboard-response","101","119616","0.0-6.0-2.47","","null","","trustrating_stim/white_00129_931230_fb_edt.bmp","null","","","","","","","","","","",""
"","","","rating","6092dea4efd6d61350f0fdbf","bdp_trlrn","Wed Mar 15 2023 14:34:48 GMT-0500 (Central Daylight Time)","624486","Trustworthy,Untrustworthy","image-keyboard-response","102","121509","0.0-6.0-1.48","","1786","","trustrating_stim/white_00340_940422_fa_edt.bmp","3","","","","","","","","","","",""
"","","","ratingFB","6092dea4efd6d61350f0fdbf","bdp_trlrn","Wed Mar 15 2023 14:34:48 GMT-0500 (Central Daylight Time)","624486","Trustworthy,Untrustworthy","image-keyboard-response","103","121725","0.0-6.0-2.48","","null","","trustrating_stim/white_00340_940422_fa_edt.bmp","null","","","","","","","","","","",""
"","","","rating","6092dea4efd6d61350f0fdbf","bdp_trlrn","Wed Mar 15 2023 14:34:48 GMT-0500 (Central Daylight Time)","624486","Trustworthy,Untrustworthy","image-keyboard-response","104","124263","0.0-6.0-1.49","","2429","","trustrating_stim/white_mw046.bmp","3","","","","","","","","","","",""
"","","","ratingFB","6092dea4efd6d61350f0fdbf","bdp_trlrn","Wed Mar 15 2023 14:34:48 GMT-0500 (Central Daylight Time)","624486","Trustworthy,Untrustworthy","image-keyboard-response","105","124469","0.0-6.0-2.49","","null","","trustrating_stim/white_mw046.bmp","null","","","","","","","","","","",""
"","","","rating","6092dea4efd6d61350f0fdbf","bdp_trlrn","Wed Mar 15 2023 14:34:48 GMT-0500 (Central Daylight Time)","624486","Trustworthy,Untrustworthy","image-keyboard-response","106","126535","0.0-6.0-1.50","","1958","","trustrating_stim/white_mw035.bmp","5","","","","","","","","","","",""
"","","","ratingFB","6092dea4efd6d61350f0fdbf","bdp_trlrn","Wed Mar 15 2023 14:34:48 GMT-0500 (Central Daylight Time)","624486","Trustworthy,Untrustworthy","image-keyboard-response","107","126736","0.0-6.0-2.50","","null","","trustrating_stim/white_mw035.bmp","null","","","","","","","","","","",""
"","","","rating","6092dea4efd6d61350f0fdbf","bdp_trlrn","Wed Mar 15 2023 14:34:48 GMT-0500 (Central Daylight Time)","624486","Trustworthy,Untrustworthy","image-keyboard-response","108","128025","0.0-6.0-1.51","","1180","","trustrating_stim/white_00577_940928_fa_edt.bmp","4","","","","","","","","","","",""
"","","","ratingFB","6092dea4efd6d61350f0fdbf","bdp_trlrn","Wed Mar 15 2023 14:34:48 GMT-0500 (Central Daylight Time)","624486","Trustworthy,Untrustworthy","image-keyboard-response","109","128230","0.0-6.0-2.51","","null","","trustrating_stim/white_00577_940928_fa_edt.bmp","null","","","","","","","","","","",""
"","","","rating","6092dea4efd6d61350f0fdbf","bdp_trlrn","Wed Mar 15 2023 14:34:48 GMT-0500 (Central Daylight Time)","624486","Trustworthy,Untrustworthy","image-keyboard-response","110","129257","0.0-6.0-1.52","","919","","trustrating_stim/white_mw056.bmp","4","","","","","","","","","","",""
"","","","ratingFB","6092dea4efd6d61350f0fdbf","bdp_trlrn","Wed Mar 15 2023 14:34:48 GMT-0500 (Central Daylight Time)","624486","Trustworthy,Untrustworthy","image-keyboard-response","111","129459","0.0-6.0-2.52","","null","","trustrating_stim/white_mw056.bmp","null","","","","","","","","","","",""
"","","","rating","6092dea4efd6d61350f0fdbf","bdp_trlrn","Wed Mar 15 2023 14:34:48 GMT-0500 (Central Daylight Time)","624486","Trustworthy,Untrustworthy","image-keyboard-response","112","130306","0.0-6.0-1.53","","738","","trustrating_stim/white_mw063.bmp","4","","","","","","","","","","",""
"","","","ratingFB","6092dea4efd6d61350f0fdbf","bdp_trlrn","Wed Mar 15 2023 14:34:48 GMT-0500 (Central Daylight Time)","624486","Trustworthy,Untrustworthy","image-keyboard-response","113","130520","0.0-6.0-2.53","","null","","trustrating_stim/white_mw063.bmp","null","","","","","","","","","","",""
"","","","rating","6092dea4efd6d61350f0fdbf","bdp_trlrn","Wed Mar 15 2023 14:34:48 GMT-0500 (Central Daylight Time)","624486","Trustworthy,Untrustworthy","image-keyboard-response","114","132385","0.0-6.0-1.54","","1753","","trustrating_stim/white_00757_941201_fa_edt.bmp","3","","","","","","","","","","",""
"","","","ratingFB","6092dea4efd6d61350f0fdbf","bdp_trlrn","Wed Mar 15 2023 14:34:48 GMT-0500 (Central Daylight Time)","624486","Trustworthy,Untrustworthy","image-keyboard-response","115","132596","0.0-6.0-2.54","","null","","trustrating_stim/white_00757_941201_fa_edt.bmp","null","","","","","","","","","","",""
"","","","rating","6092dea4efd6d61350f0fdbf","bdp_trlrn","Wed Mar 15 2023 14:34:48 GMT-0500 (Central Daylight Time)","624486","Trustworthy,Untrustworthy","image-keyboard-response","116","134650","0.0-6.0-1.55","","1945","","trustrating_stim/white_mw053.bmp","7","","","","","","","","","","",""
"","","","ratingFB","6092dea4efd6d61350f0fdbf","bdp_trlrn","Wed Mar 15 2023 14:34:48 GMT-0500 (Central Daylight Time)","624486","Trustworthy,Untrustworthy","image-keyboard-response","117","134856","0.0-6.0-2.55","","null","","trustrating_stim/white_mw053.bmp","null","","","","","","","","","","",""
"","","","rating","6092dea4efd6d61350f0fdbf","bdp_trlrn","Wed Mar 15 2023 14:34:48 GMT-0500 (Central Daylight Time)","624486","Trustworthy,Untrustworthy","image-keyboard-response","118","136020","0.0-6.0-1.56","","1053","","trustrating_stim/white_00120_931230_fa_edt.bmp","7","","","","","","","","","","",""
"","","","ratingFB","6092dea4efd6d61350f0fdbf","bdp_trlrn","Wed Mar 15 2023 14:34:48 GMT-0500 (Central Daylight Time)","624486","Trustworthy,Untrustworthy","image-keyboard-response","119","136234","0.0-6.0-2.56","","null","","trustrating_stim/white_00120_931230_fa_edt.bmp","null","","","","","","","","","","",""
"","","","rating","6092dea4efd6d61350f0fdbf","bdp_trlrn","Wed Mar 15 2023 14:34:48 GMT-0500 (Central Daylight Time)","624486","Trustworthy,Untrustworthy","image-keyboard-response","120","137476","0.0-6.0-1.57","","1136","","trustrating_stim/white_00898_960530_fa_edt.bmp","4","","","","","","","","","","",""
"","","","ratingFB","6092dea4efd6d61350f0fdbf","bdp_trlrn","Wed Mar 15 2023 14:34:48 GMT-0500 (Central Daylight Time)","624486","Trustworthy,Untrustworthy","image-keyboard-response","121","137687","0.0-6.0-2.57","","null","","trustrating_stim/white_00898_960530_fa_edt.bmp","null","","","","","","","","","","",""
"","","","rating","6092dea4efd6d61350f0fdbf","bdp_trlrn","Wed Mar 15 2023 14:34:48 GMT-0500 (Central Daylight Time)","624486","Trustworthy,Untrustworthy","image-keyboard-response","122","139887","0.0-6.0-1.58","","2092","","trustrating_stim/white_00761_941201_fb_edt.bmp","3","","","","","","","","","","",""
"","","","ratingFB","6092dea4efd6d61350f0fdbf","bdp_trlrn","Wed Mar 15 2023 14:34:48 GMT-0500 (Central Daylight Time)","624486","Trustworthy,Untrustworthy","image-keyboard-response","123","140102","0.0-6.0-2.58","","null","","trustrating_stim/white_00761_941201_fb_edt.bmp","null","","","","","","","","","","",""
"","","","rating","6092dea4efd6d61350f0fdbf","bdp_trlrn","Wed Mar 15 2023 14:34:48 GMT-0500 (Central Daylight Time)","624486","Trustworthy,Untrustworthy","image-keyboard-response","124","142330","0.0-6.0-1.59","","2118","","trustrating_stim/white_00299_940422_fa_edt.bmp","7","","","","","","","","","","",""
"","","","ratingFB","6092dea4efd6d61350f0fdbf","bdp_trlrn","Wed Mar 15 2023 14:34:48 GMT-0500 (Central Daylight Time)","624486","Trustworthy,Untrustworthy","image-keyboard-response","125","142531","0.0-6.0-2.59","","null","","trustrating_stim/white_00299_940422_fa_edt.bmp","null","","","","","","","","","","",""
"","","","","6092dea4efd6d61350f0fdbf","bdp_trlrn","Wed Mar 15 2023 14:34:48 GMT-0500 (Central Daylight Time)","624486","Trustworthy,Untrustworthy","instructions","126","144011","0.0-7.0","[{""page_index"":0,""viewing_time"":1370}]","1370","","","","","","","","","","","","","",""
"","","","","6092dea4efd6d61350f0fdbf","bdp_trlrn","Wed Mar 15 2023 14:34:48 GMT-0500 (Central Daylight Time)","624486","Trustworthy,Untrustworthy","instructions","127","219344","0.0-8.0","[{""page_index"":0,""viewing_time"":13355},{""page_index"":1,""viewing_time"":16090},{""page_index"":2,""viewing_time"":4782},{""page_index"":3,""viewing_time"":8332},{""page_index"":4,""viewing_time"":7694},{""page_index"":5,""viewing_time"":4067},{""page_index"":6,""viewing_time"":17188},{""page_index"":7,""viewing_time"":3712}]","75220","","","","","","","","","","","","","",""
"","","","","6092dea4efd6d61350f0fdbf","bdp_trlrn","Wed Mar 15 2023 14:34:48 GMT-0500 (Central Daylight Time)","624486","Trustworthy,Untrustworthy","html-keyboard-response","128","230696","0.0-9.0","","11350","","<div class='header' style='text-align:left; position: absolute; top: 5%; left: 5%;'><small>Task 2 of 5</small></div><div class='instruxDiv'><p><strong>1) What is the minimum number of points you can choose to send to your partner?</strong></p><p>a) 0</p><p>b) 1</p><p>c) 5</p>","B","","","","","","","","","","",""
"","","","","6092dea4efd6d61350f0fdbf","bdp_trlrn","Wed Mar 15 2023 14:34:48 GMT-0500 (Central Daylight Time)","624486","Trustworthy,Untrustworthy","html-keyboard-response","129","232876","0.0-10.0","","2071","","<div class='header' style='text-align:left; position: absolute; top: 5%; left: 5%;'><small>Task 2 of 5</small></div><div class='instruxDiv'><p><strong>1) What is the minimum number of points you can choose to send to your partner?</strong></p><p>a) 0</p><p style='color:#00FF00'>b) 1</p><p>c) 5</p><h3 style='color:#00FF00'>Correct!</h3><h3 class='center-content'>The correct response is b).</h3><h3 class='center-content'>The minimum number of points you can choose to send to your partner is 1 point.</h3><p><em>Press SPACEBAR to continue</em></p></div>"," ","","","","","","","","","","",""
"","","","","6092dea4efd6d61350f0fdbf","bdp_trlrn","Wed Mar 15 2023 14:34:48 GMT-0500 (Central Daylight Time)","624486","Trustworthy,Untrustworthy","html-keyboard-response","130","237405","0.0-11.0","","4416","","<div class='header' style='text-align:left; position: absolute; top: 5%; left: 5%;'><small>Task 2 of 5</small></div><div class='instruxDiv'><p><strong>2) What is the maximum number of points you can choose to send to your partner?</strong></p><p>a) 8</p><p>b) 5</p><p>c) 3</p>","B","","","","","","","","","","",""
"","","","","6092dea4efd6d61350f0fdbf","bdp_trlrn","Wed Mar 15 2023 14:34:48 GMT-0500 (Central Daylight Time)","624486","Trustworthy,Untrustworthy","html-keyboard-response","131","238508","0.0-12.0","","990","","<div class='header' style='text-align:left; position: absolute; top: 5%; left: 5%;'><small>Task 2 of 5</small></div><div class='instruxDiv'><p><strong>2) What is the maximum number of points you can choose to send to your partner?</strong></p><p>a) 8</p><p style='color:#00FF00'>b) 5</p><p>c) 3</p><h3 style='color:#00FF00'>Correct!</h3><h3 class='center-content'>The correct response is b).</h3><h3 class='center-content'>The maximum number of points you can choose to send to your partner is 5 points.</h3><p><em>Press SPACEBAR to continue</em></p></div>"," ","","","","","","","","","","",""
"","","","","6092dea4efd6d61350f0fdbf","bdp_trlrn","Wed Mar 15 2023 14:34:48 GMT-0500 (Central Daylight Time)","624486","Trustworthy,Untrustworthy","html-keyboard-response","132","244449","0.0-13.0","","5825","","<div class='header' style='text-align:left; position: absolute; top: 5%; left: 5%;'><small>Task 2 of 5</small></div><div class='instruxDiv'><p><strong>3) What happens to the amount of points you send to your partner?</strong></p><p>a) Nothing</p><p>b) It doubles</p><p>c) It quadruples</p>","B","","","","","","","","","","",""
"","","","","6092dea4efd6d61350f0fdbf","bdp_trlrn","Wed Mar 15 2023 14:34:48 GMT-0500 (Central Daylight Time)","624486","Trustworthy,Untrustworthy","html-keyboard-response","133","246993","0.0-14.0","","2428","","<div class='header' style='text-align:left; position: absolute; top: 5%; left: 5%;'><small>Task 2 of 5</small></div><div class='instruxDiv'><p><strong>3) What happens to the amount of points you send to your partner?</strong></p><p>a) Nothing</p><p style='color:#FF0000'>b) It doubles</p><p>c) It quadruples</p><h3 style='color:#FF0000'>Incorrect!</h3><h3 class='center-content'>The correct response is c).</h3><h3 class='center-content'>The amount of points you send to your partner quadruples.</h3><p><em>Press SPACEBAR to continue</em></p></div>"," ","","","","","","","","","","",""
"","","","","6092dea4efd6d61350f0fdbf","bdp_trlrn","Wed Mar 15 2023 14:34:48 GMT-0500 (Central Daylight Time)","624486","Trustworthy,Untrustworthy","html-keyboard-response","134","257803","0.0-15.0","","10698","","<div class='header' style='text-align:left; position: absolute; top: 5%; left: 5%;'><small>Task 2 of 5</small></div><div class='instruxDiv'><p><strong>4) If you decided to share 4 out of 5 points with your partner, and they decided to share half of the amount they received with you, how many points would you receive back from them on this round?</strong></p><p>a) 16</p><p>b) 0</p><p>c) 8</p>","C","","","","","","","","","","",""
"","","","","6092dea4efd6d61350f0fdbf","bdp_trlrn","Wed Mar 15 2023 14:34:48 GMT-0500 (Central Daylight Time)","624486","Trustworthy,Untrustworthy","html-keyboard-response","135","259067","0.0-16.0","","1150","","<div class='header' style='text-align:left; position: absolute; top: 5%; left: 5%;'><small>Task 2 of 5</small></div><div class='instruxDiv'><p><strong>4) If you decided to share 4 out of 5 points with your partner, and they decided to share half of the amount they received with you, how many points would you receive back from them on this round?</strong></p><p>a) 16</p><p>b) 0</p><p style='color:#00FF00'>c) 8</p><h3 style='color:#00FF00'>Correct!</h3><h3 class='center-content'>The correct response is c).</h3><h3 class='center-content'>If you shared 4 out of 5 points with your partner and they decided to share half of the amount they received with you, you would receive 8 points back (i.e. (4 x 4)/2 = 8).</h3><p><em>Press SPACEBAR to continue</em></p></div>"," ","","","","","","","","","","",""
"","","","","6092dea4efd6d61350f0fdbf","bdp_trlrn","Wed Mar 15 2023 14:34:48 GMT-0500 (Central Daylight Time)","624486","Trustworthy,Untrustworthy","html-keyboard-response","136","264188","0.0-17.0","","null","","<div class='header' style='text-align:left; position: absolute; top: 5%; left: 5%;'><small>Task 2 of 5</small></div><div class='instruxDiv'><p>Thank you for completing the quiz<p>These are the actual partners you will be interacting with in the next block:<p><div class='tc' align='center'><img class='introPic' src='trustrating_stim/white_00761_941201_fb_edt.bmp'><br><strong>Devin</strong></div><div class='bl' align='center'><img class='introPic' src='trustrating_stim/white_mw048.bmp'><br><strong>Lucas</strong></div><div class='br' align='center'><img class='introPic' src='trustrating_stim/white_mw053.bmp'><br><strong>Alex</strong></div></div><p>Across <strong>66 rounds</strong> you will interact with each partner <strong>22 times</strong> (in random order).<p style='align:center; color:white'><font <em>Press SPACEBAR to continue</em></p>","null","","","","","","","","","","",""
"","","","","6092dea4efd6d61350f0fdbf","bdp_trlrn","Wed Mar 15 2023 14:34:48 GMT-0500 (Central Daylight Time)","624486","Trustworthy,Untrustworthy","instructions","137","267750","0.0-18.0","[{""page_index"":0,""viewing_time"":1239},{""page_index"":1,""viewing_time"":2323}]","3562","","","","","","","","","","","","","",""
"","","","decision","6092dea4efd6d61350f0fdbf","bdp_trlrn","Wed Mar 15 2023 14:34:48 GMT-0500 (Central Daylight Time)","624486","Trustworthy,Untrustworthy","html-keyboard-response","138","270980","0.0-19.0-1.0","","3128","","<div class='trialDiv'><img src='trustrating_stim/white_mw048.bmp'><br><font class='baseline'><strong>Lucas</strong><p>Choose number of points to send.</font><div class='respPicDiv'><img src='img/responseButtonOffersNo0L.png' class='respPic'></div></div>","2","1","Lucas","6","Kept","0.2,0.8","10","0.2","trustrating_stim/white_mw048.bmp","4","5","1"
"","","","decisionFB","6092dea4efd6d61350f0fdbf","bdp_trlrn","Wed Mar 15 2023 14:34:48 GMT-0500 (Central Daylight Time)","624486","Trustworthy,Untrustworthy","html-keyboard-response","139","271245","0.0-19.0-2.0","","null","","<div class='trialDiv'><img src='trustrating_stim/white_mw048.bmp'><br><font class='baseline'><strong>Lucas</strong><p>Choose number of points to send.</font><div class='respPicDiv'><img src='img/responseButtonOffersNo0L2.png' class='respPic'></div></div>","null","1","Lucas","6","Kept","0.2,0.8","10","0.2","trustrating_stim/white_mw048.bmp","4","3","1"
"","","","feedback","6092dea4efd6d61350f0fdbf","bdp_trlrn","Wed Mar 15 2023 14:34:48 GMT-0500 (Central Daylight Time)","624486","Trustworthy,Untrustworthy","html-keyboard-response","140","272258","0.0-19.0-3.0","","null","","<div class='trialDiv'><img src='trustrating_stim/white_mw048.bmp'><br><font class='baseline'><strong>Lucas</strong><p>Received: <strong>8</strong></font> &nbsp; &nbsp; &nbsp; &nbsp; &nbsp; &nbsp;<font class='negOutcome'>Shared back: <strong>0</strong></font></font><div class='respPicDiv'><img src='img/responseButtonOffersNo0_wht.png' class='respPic'></div></div>","null","1","Lucas","6","Kept","0.2,0.8","10","0.2","trustrating_stim/white_mw048.bmp","4","3","1"
"","","","decision","6092dea4efd6d61350f0fdbf","bdp_trlrn","Wed Mar 15 2023 14:34:48 GMT-0500 (Central Daylight Time)","624486","Trustworthy,Untrustworthy","html-keyboard-response","141","273697","0.0-19.0-1.1","","1437","","<div class='trialDiv'><img src='trustrating_stim/white_00761_941201_fb_edt.bmp'><br><font class='baseline'><strong>Devin</strong><p>Choose number of points to send.</font><div class='respPicDiv'><img src='img/responseButtonOffersNo0L.png' class='respPic'></div></div>","3","1","Devin","0","Kept","0.2,0.65","8","0.2","trustrating_stim/white_00761_941201_fb_edt.bmp","2.5","8","2"
"","","","decisionFB","6092dea4efd6d61350f0fdbf","bdp_trlrn","Wed Mar 15 2023 14:34:48 GMT-0500 (Central Daylight Time)","624486","Trustworthy,Untrustworthy","html-keyboard-response","142","273958","0.0-19.0-2.1","","null","","<div class='trialDiv'><img src='trustrating_stim/white_00761_941201_fb_edt.bmp'><br><font class='baseline'><strong>Devin</strong><p>Choose number of points to send.</font><div class='respPicDiv'><img src='img/responseButtonOffersNo0L3.png' class='respPic'></div></div>","null","1","Devin","0","Kept","0.2,0.65","8","0.2","trustrating_stim/white_00761_941201_fb_edt.bmp","2.5","5","2"
"","","","feedback","6092dea4efd6d61350f0fdbf","bdp_trlrn","Wed Mar 15 2023 14:34:48 GMT-0500 (Central Daylight Time)","624486","Trustworthy,Untrustworthy","html-keyboard-response","143","274975","0.0-19.0-3.1","","null","","<div class='trialDiv'><img src='trustrating_stim/white_00761_941201_fb_edt.bmp'><br><font class='baseline'><strong>Devin</strong><p>Received: <strong>12</strong></font> &nbsp; &nbsp; &nbsp; &nbsp; &nbsp; &nbsp;<font class='negOutcome'>Shared back: <strong>0</strong></font></font><div class='respPicDiv'><img src='img/responseButtonOffersNo0_wht.png' class='respPic'></div></div>","null","1","Devin","0","Kept","0.2,0.65","8","0.2","trustrating_stim/white_00761_941201_fb_edt.bmp","2.5","5","2"
"","","","decision","6092dea4efd6d61350f0fdbf","bdp_trlrn","Wed Mar 15 2023 14:34:48 GMT-0500 (Central Daylight Time)","624486","Trustworthy,Untrustworthy","html-keyboard-response","144","277586","0.0-19.0-1.2","","2609","","<div class='trialDiv'><img src='trustrating_stim/white_mw053.bmp'><br><font class='baseline'><strong>Alex</strong><p>Choose number of points to send.</font><div class='respPicDiv'><img src='img/responseButtonOffersNo0L.png' class='respPic'></div></div>","3","1","Alex","11","Kept","0.65,0.2","14","0.65","trustrating_stim/white_mw053.bmp","7.5","10","3"
"","","","decisionFB","6092dea4efd6d61350f0fdbf","bdp_trlrn","Wed Mar 15 2023 14:34:48 GMT-0500 (Central Daylight Time)","624486","Trustworthy,Untrustworthy","html-keyboard-response","145","277838","0.0-19.0-2.2","","null","","<div class='trialDiv'><img src='trustrating_stim/white_mw053.bmp'><br><font class='baseline'><strong>Alex</strong><p>Choose number of points to send.</font><div class='respPicDiv'><img src='img/responseButtonOffersNo0L3.png' class='respPic'></div></div>","null","1","Alex","11","Kept","0.65,0.2","14","0.65","trustrating_stim/white_mw053.bmp","7.5","7","3"
"","","","feedback","6092dea4efd6d61350f0fdbf","bdp_trlrn","Wed Mar 15 2023 14:34:48 GMT-0500 (Central Daylight Time)","624486","Trustworthy,Untrustworthy","html-keyboard-response","146","278852","0.0-19.0-3.2","","null","","<div class='trialDiv'><img src='trustrating_stim/white_mw053.bmp'><br><font class='baseline'><strong>Alex</strong><p>Received: <strong>12</strong></font> &nbsp; &nbsp; &nbsp; &nbsp; &nbsp; &nbsp;<font class='negOutcome'>Shared back: <strong>0</strong></font></font><div class='respPicDiv'><img src='img/responseButtonOffersNo0_wht.png' class='respPic'></div></div>","null","1","Alex","11","Kept","0.65,0.2","14","0.65","trustrating_stim/white_mw053.bmp","7.5","7","3"
"","","","decision","6092dea4efd6d61350f0fdbf","bdp_trlrn","Wed Mar 15 2023 14:34:48 GMT-0500 (Central Daylight Time)","624486","Trustworthy,Untrustworthy","html-keyboard-response","147","281068","0.0-19.0-1.3","","2215","","<div class='trialDiv'><img src='trustrating_stim/white_00761_941201_fb_edt.bmp'><br><font class='baseline'><strong>Devin</strong><p>Choose number of points to send.</font><div class='respPicDiv'><img src='img/responseButtonOffersNo0L.png' class='respPic'></div></div>","2","2","Devin","0","Kept","0.2,0.65","8","0.2","trustrating_stim/white_00761_941201_fb_edt.bmp","2.5","12","4"
"","","","decisionFB","6092dea4efd6d61350f0fdbf","bdp_trlrn","Wed Mar 15 2023 14:34:48 GMT-0500 (Central Daylight Time)","624486","Trustworthy,Untrustworthy","html-keyboard-response","148","281334","0.0-19.0-2.3","","null","","<div class='trialDiv'><img src='trustrating_stim/white_00761_941201_fb_edt.bmp'><br><font class='baseline'><strong>Devin</strong><p>Choose number of points to send.</font><div class='respPicDiv'><img src='img/responseButtonOffersNo0L2.png' class='respPic'></div></div>","null","2","Devin","0","Kept","0.2,0.65","8","0.2","trustrating_stim/white_00761_941201_fb_edt.bmp","2.5","10","4"
"","","","feedback","6092dea4efd6d61350f0fdbf","bdp_trlrn","Wed Mar 15 2023 14:34:48 GMT-0500 (Central Daylight Time)","624486","Trustworthy,Untrustworthy","html-keyboard-response","149","282356","0.0-19.0-3.3","","null","","<div class='trialDiv'><img src='trustrating_stim/white_00761_941201_fb_edt.bmp'><br><font class='baseline'><strong>Devin</strong><p>Received: <strong>8</strong></font> &nbsp; &nbsp; &nbsp; &nbsp; &nbsp; &nbsp;<font class='negOutcome'>Shared back: <strong>0</strong></font></font><div class='respPicDiv'><img src='img/responseButtonOffersNo0_wht.png' class='respPic'></div></div>","null","2","Devin","0","Kept","0.2,0.65","8","0.2","trustrating_stim/white_00761_941201_fb_edt.bmp","2.5","10","4"
"","","","decision","6092dea4efd6d61350f0fdbf","bdp_trlrn","Wed Mar 15 2023 14:34:48 GMT-0500 (Central Daylight Time)","624486","Trustworthy,Untrustworthy","html-keyboard-response","150","283873","0.0-19.0-1.4","","1516","","<div class='trialDiv'><img src='trustrating_stim/white_mw053.bmp'><br><font class='baseline'><strong>Alex</strong><p>Choose number of points to send.</font><div class='respPicDiv'><img src='img/responseButtonOffersNo0L.png' class='respPic'></div></div>","3","2","Alex","11","Shared","0.65,0.2","14","0.65","trustrating_stim/white_mw053.bmp","7.5","15","5"
"","","","decisionFB","6092dea4efd6d61350f0fdbf","bdp_trlrn","Wed Mar 15 2023 14:34:48 GMT-0500 (Central Daylight Time)","624486","Trustworthy,Untrustworthy","html-keyboard-response","151","284130","0.0-19.0-2.4","","null","","<div class='trialDiv'><img src='trustrating_stim/white_mw053.bmp'><br><font class='baseline'><strong>Alex</strong><p>Choose number of points to send.</font><div class='respPicDiv'><img src='img/responseButtonOffersNo0L3.png' class='respPic'></div></div>","null","2","Alex","11","Shared","0.65,0.2","14","0.65","trustrating_stim/white_mw053.bmp","7.5","12","5"
"","","","feedback","6092dea4efd6d61350f0fdbf","bdp_trlrn","Wed Mar 15 2023 14:34:48 GMT-0500 (Central Daylight Time)","624486","Trustworthy,Untrustworthy","html-keyboard-response","152","285142","0.0-19.0-3.4","","null","","<div class='trialDiv'><img src='trustrating_stim/white_mw053.bmp'><br><font class='baseline'><strong>Alex</strong><p>Received: <strong>12</strong></font> &nbsp; &nbsp; &nbsp; &nbsp; &nbsp; &nbsp;<font class='posOutcome'>Shared back: <strong>6</strong></font></font><div class='respPicDiv'><img src='img/responseButtonOffersNo0_wht.png' class='respPic'></div></div>","null","2","Alex","11","Shared","0.65,0.2","14","0.65","trustrating_stim/white_mw053.bmp","7.5","18","5"
"","","","decision","6092dea4efd6d61350f0fdbf","bdp_trlrn","Wed Mar 15 2023 14:34:48 GMT-0500 (Central Daylight Time)","624486","Trustworthy,Untrustworthy","html-keyboard-response","153","286426","0.0-19.0-1.5","","1282","","<div class='trialDiv'><img src='trustrating_stim/white_mw048.bmp'><br><font class='baseline'><strong>Lucas</strong><p>Choose number of points to send.</font><div class='respPicDiv'><img src='img/responseButtonOffersNo0L.png' class='respPic'></div></div>","2","2","Lucas","6","Shared","0.2,0.8","10","0.2","trustrating_stim/white_mw048.bmp","4","23","6"
"","","","decisionFB","6092dea4efd6d61350f0fdbf","bdp_trlrn","Wed Mar 15 2023 14:34:48 GMT-0500 (Central Daylight Time)","624486","Trustworthy,Untrustworthy","html-keyboard-response","154","286684","0.0-19.0-2.5","","null","","<div class='trialDiv'><img src='trustrating_stim/white_mw048.bmp'><br><font class='baseline'><strong>Lucas</strong><p>Choose number of points to send.</font><div class='respPicDiv'><img src='img/responseButtonOffersNo0L2.png' class='respPic'></div></div>","null","2","Lucas","6","Shared","0.2,0.8","10","0.2","trustrating_stim/white_mw048.bmp","4","21","6"
"","","","feedback","6092dea4efd6d61350f0fdbf","bdp_trlrn","Wed Mar 15 2023 14:34:48 GMT-0500 (Central Daylight Time)","624486","Trustworthy,Untrustworthy","html-keyboard-response","155","287700","0.0-19.0-3.5","","null","","<div class='trialDiv'><img src='trustrating_stim/white_mw048.bmp'><br><font class='baseline'><strong>Lucas</strong><p>Received: <strong>8</strong></font> &nbsp; &nbsp; &nbsp; &nbsp; &nbsp; &nbsp;<font class='posOutcome'>Shared back: <strong>4</strong></font></font><div class='respPicDiv'><img src='img/responseButtonOffersNo0_wht.png' class='respPic'></div></div>","null","2","Lucas","6","Shared","0.2,0.8","10","0.2","trustrating_stim/white_mw048.bmp","4","25","6"
"","","","decision","6092dea4efd6d61350f0fdbf","bdp_trlrn","Wed Mar 15 2023 14:34:48 GMT-0500 (Central Daylight Time)","624486","Trustworthy,Untrustworthy","html-keyboard-response","156","293763","0.0-19.0-1.6","","6062","","<div class='trialDiv'><img src='trustrating_stim/white_mw053.bmp'><br><font class='baseline'><strong>Alex</strong><p>Choose number of points to send.</font><div class='respPicDiv'><img src='img/responseButtonOffersNo0L.png' class='respPic'></div></div>","5","3","Alex","11","Kept","0.65,0.2","14","0.65","trustrating_stim/white_mw053.bmp","7.5","30","7"
"","","","decisionFB","6092dea4efd6d61350f0fdbf","bdp_trlrn","Wed Mar 15 2023 14:34:48 GMT-0500 (Central Daylight Time)","624486","Trustworthy,Untrustworthy","html-keyboard-response","157","294036","0.0-19.0-2.6","","null","","<div class='trialDiv'><img src='trustrating_stim/white_mw053.bmp'><br><font class='baseline'><strong>Alex</strong><p>Choose number of points to send.</font><div class='respPicDiv'><img src='img/responseButtonOffersNo0L5.png' class='respPic'></div></div>","null","3","Alex","11","Kept","0.65,0.2","14","0.65","trustrating_stim/white_mw053.bmp","7.5","25","7"
"","","","feedback","6092dea4efd6d61350f0fdbf","bdp_trlrn","Wed Mar 15 2023 14:34:48 GMT-0500 (Central Daylight Time)","624486","Trustworthy,Untrustworthy","html-keyboard-response","158","295052","0.0-19.0-3.6","","null","","<div class='trialDiv'><img src='trustrating_stim/white_mw053.bmp'><br><font class='baseline'><strong>Alex</strong><p>Received: <strong>20</strong></font> &nbsp; &nbsp; &nbsp; &nbsp; &nbsp; &nbsp;<font class='negOutcome'>Shared back: <strong>0</strong></font></font><div class='respPicDiv'><img src='img/responseButtonOffersNo0_wht.png' class='respPic'></div></div>","null","3","Alex","11","Kept","0.65,0.2","14","0.65","trustrating_stim/white_mw053.bmp","7.5","25","7"
"","","","decision","6092dea4efd6d61350f0fdbf","bdp_trlrn","Wed Mar 15 2023 14:34:48 GMT-0500 (Central Daylight Time)","624486","Trustworthy,Untrustworthy","html-keyboard-response","159","295270","0.0-19.0-1.7","","218","","<div class='trialDiv'><img src='trustrating_stim/white_00761_941201_fb_edt.bmp'><br><font class='baseline'><strong>Devin</strong><p>Choose number of points to send.</font><div class='respPicDiv'><img src='img/responseButtonOffersNo0L.png' class='respPic'></div></div>","5","3","Devin","0","Kept","0.2,0.65","8","0.2","trustrating_stim/white_00761_941201_fb_edt.bmp","2.5","30","8"
"","","","decisionFB","6092dea4efd6d61350f0fdbf","bdp_trlrn","Wed Mar 15 2023 14:34:48 GMT-0500 (Central Daylight Time)","624486","Trustworthy,Untrustworthy","html-keyboard-response","160","295534","0.0-19.0-2.7","","null","","<div class='trialDiv'><img src='trustrating_stim/white_00761_941201_fb_edt.bmp'><br><font class='baseline'><strong>Devin</strong><p>Choose number of points to send.</font><div class='respPicDiv'><img src='img/responseButtonOffersNo0L5.png' class='respPic'></div></div>","null","3","Devin","0","Kept","0.2,0.65","8","0.2","trustrating_stim/white_00761_941201_fb_edt.bmp","2.5","25","8"
"","","","feedback","6092dea4efd6d61350f0fdbf","bdp_trlrn","Wed Mar 15 2023 14:34:48 GMT-0500 (Central Daylight Time)","624486","Trustworthy,Untrustworthy","html-keyboard-response","161","296536","0.0-19.0-3.7","","null","","<div class='trialDiv'><img src='trustrating_stim/white_00761_941201_fb_edt.bmp'><br><font class='baseline'><strong>Devin</strong><p>Received: <strong>20</strong></font> &nbsp; &nbsp; &nbsp; &nbsp; &nbsp; &nbsp;<font class='negOutcome'>Shared back: <strong>0</strong></font></font><div class='respPicDiv'><img src='img/responseButtonOffersNo0_wht.png' class='respPic'></div></div>","null","3","Devin","0","Kept","0.2,0.65","8","0.2","trustrating_stim/white_00761_941201_fb_edt.bmp","2.5","25","8"
"","","","decision","6092dea4efd6d61350f0fdbf","bdp_trlrn","Wed Mar 15 2023 14:34:48 GMT-0500 (Central Daylight Time)","624486","Trustworthy,Untrustworthy","html-keyboard-response","162","297272","0.0-19.0-1.8","","735","","<div class='trialDiv'><img src='trustrating_stim/white_mw048.bmp'><br><font class='baseline'><strong>Lucas</strong><p>Choose number of points to send.</font><div class='respPicDiv'><img src='img/responseButtonOffersNo0L.png' class='respPic'></div></div>","5","3","Lucas","6","Kept","0.2,0.8","10","0.2","trustrating_stim/white_mw048.bmp","4","30","9"
"","","","decisionFB","6092dea4efd6d61350f0fdbf","bdp_trlrn","Wed Mar 15 2023 14:34:48 GMT-0500 (Central Daylight Time)","624486","Trustworthy,Untrustworthy","html-keyboard-response","163","297527","0.0-19.0-2.8","","null","","<div class='trialDiv'><img src='trustrating_stim/white_mw048.bmp'><br><font class='baseline'><strong>Lucas</strong><p>Choose number of points to send.</font><div class='respPicDiv'><img src='img/responseButtonOffersNo0L5.png' class='respPic'></div></div>","null","3","Lucas","6","Kept","0.2,0.8","10","0.2","trustrating_stim/white_mw048.bmp","4","25","9"
"","","","feedback","6092dea4efd6d61350f0fdbf","bdp_trlrn","Wed Mar 15 2023 14:34:48 GMT-0500 (Central Daylight Time)","624486","Trustworthy,Untrustworthy","html-keyboard-response","164","298540","0.0-19.0-3.8","","null","","<div class='trialDiv'><img src='trustrating_stim/white_mw048.bmp'><br><font class='baseline'><strong>Lucas</strong><p>Received: <strong>20</strong></font> &nbsp; &nbsp; &nbsp; &nbsp; &nbsp; &nbsp;<font class='negOutcome'>Shared back: <strong>0</strong></font></font><div class='respPicDiv'><img src='img/responseButtonOffersNo0_wht.png' class='respPic'></div></div>","null","3","Lucas","6","Kept","0.2,0.8","10","0.2","trustrating_stim/white_mw048.bmp","4","25","9"
"","","","decision","6092dea4efd6d61350f0fdbf","bdp_trlrn","Wed Mar 15 2023 14:34:48 GMT-0500 (Central Daylight Time)","624486","Trustworthy,Untrustworthy","html-keyboard-response","165","301184","0.0-19.0-1.9","","2643","","<div class='trialDiv'><img src='trustrating_stim/white_mw053.bmp'><br><font class='baseline'><strong>Alex</strong><p>Choose number of points to send.</font><div class='respPicDiv'><img src='img/responseButtonOffersNo0L.png' class='respPic'></div></div>","1","4","Alex","11","Shared","0.65,0.2","14","0.65","trustrating_stim/white_mw053.bmp","7.5","30","10"
"","","","decisionFB","6092dea4efd6d61350f0fdbf","bdp_trlrn","Wed Mar 15 2023 14:34:48 GMT-0500 (Central Daylight Time)","624486","Trustworthy,Untrustworthy","html-keyboard-response","166","301442","0.0-19.0-2.9","","null","","<div class='trialDiv'><img src='trustrating_stim/white_mw053.bmp'><br><font class='baseline'><strong>Alex</strong><p>Choose number of points to send.</font><div class='respPicDiv'><img src='img/responseButtonOffersNo0L1.png' class='respPic'></div></div>","null","4","Alex","11","Shared","0.65,0.2","14","0.65","trustrating_stim/white_mw053.bmp","7.5","29","10"
"","","","feedback","6092dea4efd6d61350f0fdbf","bdp_trlrn","Wed Mar 15 2023 14:34:48 GMT-0500 (Central Daylight Time)","624486","Trustworthy,Untrustworthy","html-keyboard-response","167","302456","0.0-19.0-3.9","","null","","<div class='trialDiv'><img src='trustrating_stim/white_mw053.bmp'><br><font class='baseline'><strong>Alex</strong><p>Received: <strong>4</strong></font> &nbsp; &nbsp; &nbsp; &nbsp; &nbsp; &nbsp;<font class='posOutcome'>Shared back: <strong>2</strong></font></font><div class='respPicDiv'><img src='img/responseButtonOffersNo0_wht.png' class='respPic'></div></div>","null","4","Alex","11","Shared","0.65,0.2","14","0.65","trustrating_stim/white_mw053.bmp","7.5","31","10"
"","","","decision","6092dea4efd6d61350f0fdbf","bdp_trlrn","Wed Mar 15 2023 14:34:48 GMT-0500 (Central Daylight Time)","624486","Trustworthy,Untrustworthy","html-keyboard-response","168","303405","0.0-19.0-1.10","","948","","<div class='trialDiv'><img src='trustrating_stim/white_00761_941201_fb_edt.bmp'><br><font class='baseline'><strong>Devin</strong><p>Choose number of points to send.</font><div class='respPicDiv'><img src='img/responseButtonOffersNo0L.png' class='respPic'></div></div>","1","4","Devin","0","Kept","0.2,0.65","8","0.2","trustrating_stim/white_00761_941201_fb_edt.bmp","2.5","36","11"
"","","","decisionFB","6092dea4efd6d61350f0fdbf","bdp_trlrn","Wed Mar 15 2023 14:34:48 GMT-0500 (Central Daylight Time)","624486","Trustworthy,Untrustworthy","html-keyboard-response","169","303671","0.0-19.0-2.10","","null","","<div class='trialDiv'><img src='trustrating_stim/white_00761_941201_fb_edt.bmp'><br><font class='baseline'><strong>Devin</strong><p>Choose number of points to send.</font><div class='respPicDiv'><img src='img/responseButtonOffersNo0L1.png' class='respPic'></div></div>","null","4","Devin","0","Kept","0.2,0.65","8","0.2","trustrating_stim/white_00761_941201_fb_edt.bmp","2.5","35","11"
"","","","feedback","6092dea4efd6d61350f0fdbf","bdp_trlrn","Wed Mar 15 2023 14:34:48 GMT-0500 (Central Daylight Time)","624486","Trustworthy,Untrustworthy","html-keyboard-response","170","304685","0.0-19.0-3.10","","null","","<div class='trialDiv'><img src='trustrating_stim/white_00761_941201_fb_edt.bmp'><br><font class='baseline'><strong>Devin</strong><p>Received: <strong>4</strong></font> &nbsp; &nbsp; &nbsp; &nbsp; &nbsp; &nbsp;<font class='negOutcome'>Shared back: <strong>0</strong></font></font><div class='respPicDiv'><img src='img/responseButtonOffersNo0_wht.png' class='respPic'></div></div>","null","4","Devin","0","Kept","0.2,0.65","8","0.2","trustrating_stim/white_00761_941201_fb_edt.bmp","2.5","35","11"
"","","","decision","6092dea4efd6d61350f0fdbf","bdp_trlrn","Wed Mar 15 2023 14:34:48 GMT-0500 (Central Daylight Time)","624486","Trustworthy,Untrustworthy","html-keyboard-response","171","305361","0.0-19.0-1.11","","675","","<div class='trialDiv'><img src='trustrating_stim/white_mw048.bmp'><br><font class='baseline'><strong>Lucas</strong><p>Choose number of points to send.</font><div class='respPicDiv'><img src='img/responseButtonOffersNo0L.png' class='respPic'></div></div>","1","4","Lucas","6","Kept","0.2,0.8","10","0.2","trustrating_stim/white_mw048.bmp","4","40","12"
"","","","decisionFB","6092dea4efd6d61350f0fdbf","bdp_trlrn","Wed Mar 15 2023 14:34:48 GMT-0500 (Central Daylight Time)","624486","Trustworthy,Untrustworthy","html-keyboard-response","172","305623","0.0-19.0-2.11","","null","","<div class='trialDiv'><img src='trustrating_stim/white_mw048.bmp'><br><font class='baseline'><strong>Lucas</strong><p>Choose number of points to send.</font><div class='respPicDiv'><img src='img/responseButtonOffersNo0L1.png' class='respPic'></div></div>","null","4","Lucas","6","Kept","0.2,0.8","10","0.2","trustrating_stim/white_mw048.bmp","4","39","12"
"","","","feedback","6092dea4efd6d61350f0fdbf","bdp_trlrn","Wed Mar 15 2023 14:34:48 GMT-0500 (Central Daylight Time)","624486","Trustworthy,Untrustworthy","html-keyboard-response","173","306634","0.0-19.0-3.11","","null","","<div class='trialDiv'><img src='trustrating_stim/white_mw048.bmp'><br><font class='baseline'><strong>Lucas</strong><p>Received: <strong>4</strong></font> &nbsp; &nbsp; &nbsp; &nbsp; &nbsp; &nbsp;<font class='negOutcome'>Shared back: <strong>0</strong></font></font><div class='respPicDiv'><img src='img/responseButtonOffersNo0_wht.png' class='respPic'></div></div>","null","4","Lucas","6","Kept","0.2,0.8","10","0.2","trustrating_stim/white_mw048.bmp","4","39","12"
"","","","decision","6092dea4efd6d61350f0fdbf","bdp_trlrn","Wed Mar 15 2023 14:34:48 GMT-0500 (Central Daylight Time)","624486","Trustworthy,Untrustworthy","html-keyboard-response","174","307282","0.0-19.0-1.12","","647","","<div class='trialDiv'><img src='trustrating_stim/white_mw053.bmp'><br><font class='baseline'><strong>Alex</strong><p>Choose number of points to send.</font><div class='respPicDiv'><img src='img/responseButtonOffersNo0L.png' class='respPic'></div></div>","1","5","Alex","11","Kept","0.65,0.2","14","0.65","trustrating_stim/white_mw053.bmp","7.5","44","13"
"","","","decisionFB","6092dea4efd6d61350f0fdbf","bdp_trlrn","Wed Mar 15 2023 14:34:48 GMT-0500 (Central Daylight Time)","624486","Trustworthy,Untrustworthy","html-keyboard-response","175","307540","0.0-19.0-2.12","","null","","<div class='trialDiv'><img src='trustrating_stim/white_mw053.bmp'><br><font class='baseline'><strong>Alex</strong><p>Choose number of points to send.</font><div class='respPicDiv'><img src='img/responseButtonOffersNo0L1.png' class='respPic'></div></div>","null","5","Alex","11","Kept","0.65,0.2","14","0.65","trustrating_stim/white_mw053.bmp","7.5","43","13"
"","","","feedback","6092dea4efd6d61350f0fdbf","bdp_trlrn","Wed Mar 15 2023 14:34:48 GMT-0500 (Central Daylight Time)","624486","Trustworthy,Untrustworthy","html-keyboard-response","176","308543","0.0-19.0-3.12","","null","","<div class='trialDiv'><img src='trustrating_stim/white_mw053.bmp'><br><font class='baseline'><strong>Alex</strong><p>Received: <strong>4</strong></font> &nbsp; &nbsp; &nbsp; &nbsp; &nbsp; &nbsp;<font class='negOutcome'>Shared back: <strong>0</strong></font></font><div class='respPicDiv'><img src='img/responseButtonOffersNo0_wht.png' class='respPic'></div></div>","null","5","Alex","11","Kept","0.65,0.2","14","0.65","trustrating_stim/white_mw053.bmp","7.5","43","13"
"","","","decision","6092dea4efd6d61350f0fdbf","bdp_trlrn","Wed Mar 15 2023 14:34:48 GMT-0500 (Central Daylight Time)","624486","Trustworthy,Untrustworthy","html-keyboard-response","177","308942","0.0-19.0-1.13","","398","","<div class='trialDiv'><img src='trustrating_stim/white_mw048.bmp'><br><font class='baseline'><strong>Lucas</strong><p>Choose number of points to send.</font><div class='respPicDiv'><img src='img/responseButtonOffersNo0L.png' class='respPic'></div></div>","2","5","Lucas","6","Shared","0.2,0.8","10","0.2","trustrating_stim/white_mw048.bmp","4","48","14"
"","","","decisionFB","6092dea4efd6d61350f0fdbf","bdp_trlrn","Wed Mar 15 2023 14:34:48 GMT-0500 (Central Daylight Time)","624486","Trustworthy,Untrustworthy","html-keyboard-response","178","309194","0.0-19.0-2.13","","null","","<div class='trialDiv'><img src='trustrating_stim/white_mw048.bmp'><br><font class='baseline'><strong>Lucas</strong><p>Choose number of points to send.</font><div class='respPicDiv'><img src='img/responseButtonOffersNo0L2.png' class='respPic'></div></div>","null","5","Lucas","6","Shared","0.2,0.8","10","0.2","trustrating_stim/white_mw048.bmp","4","46","14"
"","","","feedback","6092dea4efd6d61350f0fdbf","bdp_trlrn","Wed Mar 15 2023 14:34:48 GMT-0500 (Central Daylight Time)","624486","Trustworthy,Untrustworthy","html-keyboard-response","179","310206","0.0-19.0-3.13","","null","","<div class='trialDiv'><img src='trustrating_stim/white_mw048.bmp'><br><font class='baseline'><strong>Lucas</strong><p>Received: <strong>8</strong></font> &nbsp; &nbsp; &nbsp; &nbsp; &nbsp; &nbsp;<font class='posOutcome'>Shared back: <strong>4</strong></font></font><div class='respPicDiv'><img src='img/responseButtonOffersNo0_wht.png' class='respPic'></div></div>","null","5","Lucas","6","Shared","0.2,0.8","10","0.2","trustrating_stim/white_mw048.bmp","4","50","14"
"","","","decision","6092dea4efd6d61350f0fdbf","bdp_trlrn","Wed Mar 15 2023 14:34:48 GMT-0500 (Central Daylight Time)","624486","Trustworthy,Untrustworthy","html-keyboard-response","180","310887","0.0-19.0-1.14","","680","","<div class='trialDiv'><img src='trustrating_stim/white_00761_941201_fb_edt.bmp'><br><font class='baseline'><strong>Devin</strong><p>Choose number of points to send.</font><div class='respPicDiv'><img src='img/responseButtonOffersNo0L.png' class='respPic'></div></div>","2","5","Devin","0","Kept","0.2,0.65","8","0.2","trustrating_stim/white_00761_941201_fb_edt.bmp","2.5","55","15"
"","","","decisionFB","6092dea4efd6d61350f0fdbf","bdp_trlrn","Wed Mar 15 2023 14:34:48 GMT-0500 (Central Daylight Time)","624486","Trustworthy,Untrustworthy","html-keyboard-response","181","311139","0.0-19.0-2.14","","null","","<div class='trialDiv'><img src='trustrating_stim/white_00761_941201_fb_edt.bmp'><br><font class='baseline'><strong>Devin</strong><p>Choose number of points to send.</font><div class='respPicDiv'><img src='img/responseButtonOffersNo0L2.png' class='respPic'></div></div>","null","5","Devin","0","Kept","0.2,0.65","8","0.2","trustrating_stim/white_00761_941201_fb_edt.bmp","2.5","53","15"
"","","","feedback","6092dea4efd6d61350f0fdbf","bdp_trlrn","Wed Mar 15 2023 14:34:48 GMT-0500 (Central Daylight Time)","624486","Trustworthy,Untrustworthy","html-keyboard-response","182","312154","0.0-19.0-3.14","","null","","<div class='trialDiv'><img src='trustrating_stim/white_00761_941201_fb_edt.bmp'><br><font class='baseline'><strong>Devin</strong><p>Received: <strong>8</strong></font> &nbsp; &nbsp; &nbsp; &nbsp; &nbsp; &nbsp;<font class='negOutcome'>Shared back: <strong>0</strong></font></font><div class='respPicDiv'><img src='img/responseButtonOffersNo0_wht.png' class='respPic'></div></div>","null","5","Devin","0","Kept","0.2,0.65","8","0.2","trustrating_stim/white_00761_941201_fb_edt.bmp","2.5","53","15"
"","","","decision","6092dea4efd6d61350f0fdbf","bdp_trlrn","Wed Mar 15 2023 14:34:48 GMT-0500 (Central Daylight Time)","624486","Trustworthy,Untrustworthy","html-keyboard-response","183","312493","0.0-19.0-1.15","","337","","<div class='trialDiv'><img src='trustrating_stim/white_mw053.bmp'><br><font class='baseline'><strong>Alex</strong><p>Choose number of points to send.</font><div class='respPicDiv'><img src='img/responseButtonOffersNo0L.png' class='respPic'></div></div>","2","6","Alex","11","Kept","0.65,0.2","14","0.65","trustrating_stim/white_mw053.bmp","7.5","58","16"
"","","","decisionFB","6092dea4efd6d61350f0fdbf","bdp_trlrn","Wed Mar 15 2023 14:34:48 GMT-0500 (Central Daylight Time)","624486","Trustworthy,Untrustworthy","html-keyboard-response","184","312746","0.0-19.0-2.15","","null","","<div class='trialDiv'><img src='trustrating_stim/white_mw053.bmp'><br><font class='baseline'><strong>Alex</strong><p>Choose number of points to send.</font><div class='respPicDiv'><img src='img/responseButtonOffersNo0L2.png' class='respPic'></div></div>","null","6","Alex","11","Kept","0.65,0.2","14","0.65","trustrating_stim/white_mw053.bmp","7.5","56","16"
"","","","feedback","6092dea4efd6d61350f0fdbf","bdp_trlrn","Wed Mar 15 2023 14:34:48 GMT-0500 (Central Daylight Time)","624486","Trustworthy,Untrustworthy","html-keyboard-response","185","313761","0.0-19.0-3.15","","null","","<div class='trialDiv'><img src='trustrating_stim/white_mw053.bmp'><br><font class='baseline'><strong>Alex</strong><p>Received: <strong>8</strong></font> &nbsp; &nbsp; &nbsp; &nbsp; &nbsp; &nbsp;<font class='negOutcome'>Shared back: <strong>0</strong></font></font><div class='respPicDiv'><img src='img/responseButtonOffersNo0_wht.png' class='respPic'></div></div>","null","6","Alex","11","Kept","0.65,0.2","14","0.65","trustrating_stim/white_mw053.bmp","7.5","56","16"
"","","","decision","6092dea4efd6d61350f0fdbf","bdp_trlrn","Wed Mar 15 2023 14:34:48 GMT-0500 (Central Daylight Time)","624486","Trustworthy,Untrustworthy","html-keyboard-response","186","314120","0.0-19.0-1.16","","358","","<div class='trialDiv'><img src='trustrating_stim/white_mw048.bmp'><br><font class='baseline'><strong>Lucas</strong><p>Choose number of points to send.</font><div class='respPicDiv'><img src='img/responseButtonOffersNo0L.png' class='respPic'></div></div>","2","6","Lucas","6","Kept","0.2,0.8","10","0.2","trustrating_stim/white_mw048.bmp","4","61","17"
"","","","decisionFB","6092dea4efd6d61350f0fdbf","bdp_trlrn","Wed Mar 15 2023 14:34:48 GMT-0500 (Central Daylight Time)","624486","Trustworthy,Untrustworthy","html-keyboard-response","187","314372","0.0-19.0-2.16","","null","","<div class='trialDiv'><img src='trustrating_stim/white_mw048.bmp'><br><font class='baseline'><strong>Lucas</strong><p>Choose number of points to send.</font><div class='respPicDiv'><img src='img/responseButtonOffersNo0L2.png' class='respPic'></div></div>","null","6","Lucas","6","Kept","0.2,0.8","10","0.2","trustrating_stim/white_mw048.bmp","4","59","17"
"","","","feedback","6092dea4efd6d61350f0fdbf","bdp_trlrn","Wed Mar 15 2023 14:34:48 GMT-0500 (Central Daylight Time)","624486","Trustworthy,Untrustworthy","html-keyboard-response","188","315385","0.0-19.0-3.16","","null","","<div class='trialDiv'><img src='trustrating_stim/white_mw048.bmp'><br><font class='baseline'><strong>Lucas</strong><p>Received: <strong>8</strong></font> &nbsp; &nbsp; &nbsp; &nbsp; &nbsp; &nbsp;<font class='negOutcome'>Shared back: <strong>0</strong></font></font><div class='respPicDiv'><img src='img/responseButtonOffersNo0_wht.png' class='respPic'></div></div>","null","6","Lucas","6","Kept","0.2,0.8","10","0.2","trustrating_stim/white_mw048.bmp","4","59","17"
"","","","decision","6092dea4efd6d61350f0fdbf","bdp_trlrn","Wed Mar 15 2023 14:34:48 GMT-0500 (Central Daylight Time)","624486","Trustworthy,Untrustworthy","html-keyboard-response","189","316203","0.0-19.0-1.17","","817","","<div class='trialDiv'><img src='trustrating_stim/white_00761_941201_fb_edt.bmp'><br><font class='baseline'><strong>Devin</strong><p>Choose number of points to send.</font><div class='respPicDiv'><img src='img/responseButtonOffersNo0L.png' class='respPic'></div></div>","3","6","Devin","0","Kept","0.2,0.65","8","0.2","trustrating_stim/white_00761_941201_fb_edt.bmp","2.5","64","18"
"","","","decisionFB","6092dea4efd6d61350f0fdbf","bdp_trlrn","Wed Mar 15 2023 14:34:48 GMT-0500 (Central Daylight Time)","624486","Trustworthy,Untrustworthy","html-keyboard-response","190","316458","0.0-19.0-2.17","","null","","<div class='trialDiv'><img src='trustrating_stim/white_00761_941201_fb_edt.bmp'><br><font class='baseline'><strong>Devin</strong><p>Choose number of points to send.</font><div class='respPicDiv'><img src='img/responseButtonOffersNo0L3.png' class='respPic'></div></div>","null","6","Devin","0","Kept","0.2,0.65","8","0.2","trustrating_stim/white_00761_941201_fb_edt.bmp","2.5","61","18"
"","","","feedback","6092dea4efd6d61350f0fdbf","bdp_trlrn","Wed Mar 15 2023 14:34:48 GMT-0500 (Central Daylight Time)","624486","Trustworthy,Untrustworthy","html-keyboard-response","191","317469","0.0-19.0-3.17","","null","","<div class='trialDiv'><img src='trustrating_stim/white_00761_941201_fb_edt.bmp'><br><font class='baseline'><strong>Devin</strong><p>Received: <strong>12</strong></font> &nbsp; &nbsp; &nbsp; &nbsp; &nbsp; &nbsp;<font class='negOutcome'>Shared back: <strong>0</strong></font></font><div class='respPicDiv'><img src='img/responseButtonOffersNo0_wht.png' class='respPic'></div></div>","null","6","Devin","0","Kept","0.2,0.65","8","0.2","trustrating_stim/white_00761_941201_fb_edt.bmp","2.5","61","18"
"","","","decision","6092dea4efd6d61350f0fdbf","bdp_trlrn","Wed Mar 15 2023 14:34:48 GMT-0500 (Central Daylight Time)","624486","Trustworthy,Untrustworthy","html-keyboard-response","192","317779","0.0-19.0-1.18","","309","","<div class='trialDiv'><img src='trustrating_stim/white_mw053.bmp'><br><font class='baseline'><strong>Alex</strong><p>Choose number of points to send.</font><div class='respPicDiv'><img src='img/responseButtonOffersNo0L.png' class='respPic'></div></div>","3","7","Alex","11","Kept","0.65,0.2","14","0.65","trustrating_stim/white_mw053.bmp","7.5","66","19"
"","","","decisionFB","6092dea4efd6d61350f0fdbf","bdp_trlrn","Wed Mar 15 2023 14:34:48 GMT-0500 (Central Daylight Time)","624486","Trustworthy,Untrustworthy","html-keyboard-response","193","318032","0.0-19.0-2.18","","null","","<div class='trialDiv'><img src='trustrating_stim/white_mw053.bmp'><br><font class='baseline'><strong>Alex</strong><p>Choose number of points to send.</font><div class='respPicDiv'><img src='img/responseButtonOffersNo0L3.png' class='respPic'></div></div>","null","7","Alex","11","Kept","0.65,0.2","14","0.65","trustrating_stim/white_mw053.bmp","7.5","63","19"
"","","","feedback","6092dea4efd6d61350f0fdbf","bdp_trlrn","Wed Mar 15 2023 14:34:48 GMT-0500 (Central Daylight Time)","624486","Trustworthy,Untrustworthy","html-keyboard-response","194","319041","0.0-19.0-3.18","","null","","<div class='trialDiv'><img src='trustrating_stim/white_mw053.bmp'><br><font class='baseline'><strong>Alex</strong><p>Received: <strong>12</strong></font> &nbsp; &nbsp; &nbsp; &nbsp; &nbsp; &nbsp;<font class='negOutcome'>Shared back: <strong>0</strong></font></font><div class='respPicDiv'><img src='img/responseButtonOffersNo0_wht.png' class='respPic'></div></div>","null","7","Alex","11","Kept","0.65,0.2","14","0.65","trustrating_stim/white_mw053.bmp","7.5","63","19"
"","","","decision","6092dea4efd6d61350f0fdbf","bdp_trlrn","Wed Mar 15 2023 14:34:48 GMT-0500 (Central Daylight Time)","624486","Trustworthy,Untrustworthy","html-keyboard-response","195","319823","0.0-19.0-1.19","","781","","<div class='trialDiv'><img src='trustrating_stim/white_00761_941201_fb_edt.bmp'><br><font class='baseline'><strong>Devin</strong><p>Choose number of points to send.</font><div class='respPicDiv'><img src='img/responseButtonOffersNo0L.png' class='respPic'></div></div>","2","7","Devin","0","Kept","0.2,0.65","8","0.2","trustrating_stim/white_00761_941201_fb_edt.bmp","2.5","68","20"
"","","","decisionFB","6092dea4efd6d61350f0fdbf","bdp_trlrn","Wed Mar 15 2023 14:34:48 GMT-0500 (Central Daylight Time)","624486","Trustworthy,Untrustworthy","html-keyboard-response","196","320083","0.0-19.0-2.19","","null","","<div class='trialDiv'><img src='trustrating_stim/white_00761_941201_fb_edt.bmp'><br><font class='baseline'><strong>Devin</strong><p>Choose number of points to send.</font><div class='respPicDiv'><img src='img/responseButtonOffersNo0L2.png' class='respPic'></div></div>","null","7","Devin","0","Kept","0.2,0.65","8","0.2","trustrating_stim/white_00761_941201_fb_edt.bmp","2.5","66","20"
"","","","feedback","6092dea4efd6d61350f0fdbf","bdp_trlrn","Wed Mar 15 2023 14:34:48 GMT-0500 (Central Daylight Time)","624486","Trustworthy,Untrustworthy","html-keyboard-response","197","321097","0.0-19.0-3.19","","null","","<div class='trialDiv'><img src='trustrating_stim/white_00761_941201_fb_edt.bmp'><br><font class='baseline'><strong>Devin</strong><p>Received: <strong>8</strong></font> &nbsp; &nbsp; &nbsp; &nbsp; &nbsp; &nbsp;<font class='negOutcome'>Shared back: <strong>0</strong></font></font><div class='respPicDiv'><img src='img/responseButtonOffersNo0_wht.png' class='respPic'></div></div>","null","7","Devin","0","Kept","0.2,0.65","8","0.2","trustrating_stim/white_00761_941201_fb_edt.bmp","2.5","66","20"
"","","","decision","6092dea4efd6d61350f0fdbf","bdp_trlrn","Wed Mar 15 2023 14:34:48 GMT-0500 (Central Daylight Time)","624486","Trustworthy,Untrustworthy","html-keyboard-response","198","321398","0.0-19.0-1.20","","301","","<div class='trialDiv'><img src='trustrating_stim/white_mw048.bmp'><br><font class='baseline'><strong>Lucas</strong><p>Choose number of points to send.</font><div class='respPicDiv'><img src='img/responseButtonOffersNo0L.png' class='respPic'></div></div>","1","7","Lucas","6","Kept","0.2,0.8","10","0.2","trustrating_stim/white_mw048.bmp","4","71","21"
"","","","decisionFB","6092dea4efd6d61350f0fdbf","bdp_trlrn","Wed Mar 15 2023 14:34:48 GMT-0500 (Central Daylight Time)","624486","Trustworthy,Untrustworthy","html-keyboard-response","199","321658","0.0-19.0-2.20","","null","","<div class='trialDiv'><img src='trustrating_stim/white_mw048.bmp'><br><font class='baseline'><strong>Lucas</strong><p>Choose number of points to send.</font><div class='respPicDiv'><img src='img/responseButtonOffersNo0L1.png' class='respPic'></div></div>","null","7","Lucas","6","Kept","0.2,0.8","10","0.2","trustrating_stim/white_mw048.bmp","4","70","21"
"","","","feedback","6092dea4efd6d61350f0fdbf","bdp_trlrn","Wed Mar 15 2023 14:34:48 GMT-0500 (Central Daylight Time)","624486","Trustworthy,Untrustworthy","html-keyboard-response","200","322673","0.0-19.0-3.20","","null","","<div class='trialDiv'><img src='trustrating_stim/white_mw048.bmp'><br><font class='baseline'><strong>Lucas</strong><p>Received: <strong>4</strong></font> &nbsp; &nbsp; &nbsp; &nbsp; &nbsp; &nbsp;<font class='negOutcome'>Shared back: <strong>0</strong></font></font><div class='respPicDiv'><img src='img/responseButtonOffersNo0_wht.png' class='respPic'></div></div>","null","7","Lucas","6","Kept","0.2,0.8","10","0.2","trustrating_stim/white_mw048.bmp","4","70","21"
"","","","decision","6092dea4efd6d61350f0fdbf","bdp_trlrn","Wed Mar 15 2023 14:34:48 GMT-0500 (Central Daylight Time)","624486","Trustworthy,Untrustworthy","html-keyboard-response","201","323080","0.0-19.0-1.21","","406","","<div class='trialDiv'><img src='trustrating_stim/white_mw053.bmp'><br><font class='baseline'><strong>Alex</strong><p>Choose number of points to send.</font><div class='respPicDiv'><img src='img/responseButtonOffersNo0L.png' class='respPic'></div></div>","1","8","Alex","11","Kept","0.65,0.2","14","0.65","trustrating_stim/white_mw053.bmp","7.5","75","22"
"","","","decisionFB","6092dea4efd6d61350f0fdbf","bdp_trlrn","Wed Mar 15 2023 14:34:48 GMT-0500 (Central Daylight Time)","624486","Trustworthy,Untrustworthy","html-keyboard-response","202","323340","0.0-19.0-2.21","","null","","<div class='trialDiv'><img src='trustrating_stim/white_mw053.bmp'><br><font class='baseline'><strong>Alex</strong><p>Choose number of points to send.</font><div class='respPicDiv'><img src='img/responseButtonOffersNo0L1.png' class='respPic'></div></div>","null","8","Alex","11","Kept","0.65,0.2","14","0.65","trustrating_stim/white_mw053.bmp","7.5","74","22"
"","","","feedback","6092dea4efd6d61350f0fdbf","bdp_trlrn","Wed Mar 15 2023 14:34:48 GMT-0500 (Central Daylight Time)","624486","Trustworthy,Untrustworthy","html-keyboard-response","203","324353","0.0-19.0-3.21","","null","","<div class='trialDiv'><img src='trustrating_stim/white_mw053.bmp'><br><font class='baseline'><strong>Alex</strong><p>Received: <strong>4</strong></font> &nbsp; &nbsp; &nbsp; &nbsp; &nbsp; &nbsp;<font class='negOutcome'>Shared back: <strong>0</strong></font></font><div class='respPicDiv'><img src='img/responseButtonOffersNo0_wht.png' class='respPic'></div></div>","null","8","Alex","11","Kept","0.65,0.2","14","0.65","trustrating_stim/white_mw053.bmp","7.5","74","22"
"","","","decision","6092dea4efd6d61350f0fdbf","bdp_trlrn","Wed Mar 15 2023 14:34:48 GMT-0500 (Central Daylight Time)","624486","Trustworthy,Untrustworthy","html-keyboard-response","204","324670","0.0-19.0-1.22","","316","","<div class='trialDiv'><img src='trustrating_stim/white_mw048.bmp'><br><font class='baseline'><strong>Lucas</strong><p>Choose number of points to send.</font><div class='respPicDiv'><img src='img/responseButtonOffersNo0L.png' class='respPic'></div></div>","1","8","Lucas","6","Kept","0.2,0.8","10","0.2","trustrating_stim/white_mw048.bmp","4","79","23"
"","","","decisionFB","6092dea4efd6d61350f0fdbf","bdp_trlrn","Wed Mar 15 2023 14:34:48 GMT-0500 (Central Daylight Time)","624486","Trustworthy,Untrustworthy","html-keyboard-response","205","324932","0.0-19.0-2.22","","null","","<div class='trialDiv'><img src='trustrating_stim/white_mw048.bmp'><br><font class='baseline'><strong>Lucas</strong><p>Choose number of points to send.</font><div class='respPicDiv'><img src='img/responseButtonOffersNo0L1.png' class='respPic'></div></div>","null","8","Lucas","6","Kept","0.2,0.8","10","0.2","trustrating_stim/white_mw048.bmp","4","78","23"
"","","","feedback","6092dea4efd6d61350f0fdbf","bdp_trlrn","Wed Mar 15 2023 14:34:48 GMT-0500 (Central Daylight Time)","624486","Trustworthy,Untrustworthy","html-keyboard-response","206","325939","0.0-19.0-3.22","","null","","<div class='trialDiv'><img src='trustrating_stim/white_mw048.bmp'><br><font class='baseline'><strong>Lucas</strong><p>Received: <strong>4</strong></font> &nbsp; &nbsp; &nbsp; &nbsp; &nbsp; &nbsp;<font class='negOutcome'>Shared back: <strong>0</strong></font></font><div class='respPicDiv'><img src='img/responseButtonOffersNo0_wht.png' class='respPic'></div></div>","null","8","Lucas","6","Kept","0.2,0.8","10","0.2","trustrating_stim/white_mw048.bmp","4","78","23"
"","","","decision","6092dea4efd6d61350f0fdbf","bdp_trlrn","Wed Mar 15 2023 14:34:48 GMT-0500 (Central Daylight Time)","624486","Trustworthy,Untrustworthy","html-keyboard-response","207","326316","0.0-19.0-1.23","","376","","<div class='trialDiv'><img src='trustrating_stim/white_00761_941201_fb_edt.bmp'><br><font class='baseline'><strong>Devin</strong><p>Choose number of points to send.</font><div class='respPicDiv'><img src='img/responseButtonOffersNo0L.png' class='respPic'></div></div>","1","8","Devin","0","Shared","0.2,0.65","8","0.2","trustrating_stim/white_00761_941201_fb_edt.bmp","2.5","83","24"
"","","","decisionFB","6092dea4efd6d61350f0fdbf","bdp_trlrn","Wed Mar 15 2023 14:34:48 GMT-0500 (Central Daylight Time)","624486","Trustworthy,Untrustworthy","html-keyboard-response","208","326580","0.0-19.0-2.23","","null","","<div class='trialDiv'><img src='trustrating_stim/white_00761_941201_fb_edt.bmp'><br><font class='baseline'><strong>Devin</strong><p>Choose number of points to send.</font><div class='respPicDiv'><img src='img/responseButtonOffersNo0L1.png' class='respPic'></div></div>","null","8","Devin","0","Shared","0.2,0.65","8","0.2","trustrating_stim/white_00761_941201_fb_edt.bmp","2.5","82","24"
"","","","feedback","6092dea4efd6d61350f0fdbf","bdp_trlrn","Wed Mar 15 2023 14:34:48 GMT-0500 (Central Daylight Time)","624486","Trustworthy,Untrustworthy","html-keyboard-response","209","327584","0.0-19.0-3.23","","null","","<div class='trialDiv'><img src='trustrating_stim/white_00761_941201_fb_edt.bmp'><br><font class='baseline'><strong>Devin</strong><p>Received: <strong>4</strong></font> &nbsp; &nbsp; &nbsp; &nbsp; &nbsp; &nbsp;<font class='posOutcome'>Shared back: <strong>2</strong></font></font><div class='respPicDiv'><img src='img/responseButtonOffersNo0_wht.png' class='respPic'></div></div>","null","8","Devin","0","Shared","0.2,0.65","8","0.2","trustrating_stim/white_00761_941201_fb_edt.bmp","2.5","84","24"
"","","","decision","6092dea4efd6d61350f0fdbf","bdp_trlrn","Wed Mar 15 2023 14:34:48 GMT-0500 (Central Daylight Time)","624486","Trustworthy,Untrustworthy","html-keyboard-response","210","328002","0.0-19.0-1.24","","416","","<div class='trialDiv'><img src='trustrating_stim/white_mw048.bmp'><br><font class='baseline'><strong>Lucas</strong><p>Choose number of points to send.</font><div class='respPicDiv'><img src='img/responseButtonOffersNo0L.png' class='respPic'></div></div>","1","9","Lucas","6","Kept","0.2,0.8","10","0.2","trustrating_stim/white_mw048.bmp","4","89","25"
"","","","decisionFB","6092dea4efd6d61350f0fdbf","bdp_trlrn","Wed Mar 15 2023 14:34:48 GMT-0500 (Central Daylight Time)","624486","Trustworthy,Untrustworthy","html-keyboard-response","211","328266","0.0-19.0-2.24","","null","","<div class='trialDiv'><img src='trustrating_stim/white_mw048.bmp'><br><font class='baseline'><strong>Lucas</strong><p>Choose number of points to send.</font><div class='respPicDiv'><img src='img/responseButtonOffersNo0L1.png' class='respPic'></div></div>","null","9","Lucas","6","Kept","0.2,0.8","10","0.2","trustrating_stim/white_mw048.bmp","4","88","25"
"","","","feedback","6092dea4efd6d61350f0fdbf","bdp_trlrn","Wed Mar 15 2023 14:34:48 GMT-0500 (Central Daylight Time)","624486","Trustworthy,Untrustworthy","html-keyboard-response","212","329275","0.0-19.0-3.24","","null","","<div class='trialDiv'><img src='trustrating_stim/white_mw048.bmp'><br><font class='baseline'><strong>Lucas</strong><p>Received: <strong>4</strong></font> &nbsp; &nbsp; &nbsp; &nbsp; &nbsp; &nbsp;<font class='negOutcome'>Shared back: <strong>0</strong></font></font><div class='respPicDiv'><img src='img/responseButtonOffersNo0_wht.png' class='respPic'></div></div>","null","9","Lucas","6","Kept","0.2,0.8","10","0.2","trustrating_stim/white_mw048.bmp","4","88","25"
"","","","decision","6092dea4efd6d61350f0fdbf","bdp_trlrn","Wed Mar 15 2023 14:34:48 GMT-0500 (Central Daylight Time)","624486","Trustworthy,Untrustworthy","html-keyboard-response","213","329646","0.0-19.0-1.25","","370","","<div class='trialDiv'><img src='trustrating_stim/white_mw053.bmp'><br><font class='baseline'><strong>Alex</strong><p>Choose number of points to send.</font><div class='respPicDiv'><img src='img/responseButtonOffersNo0L.png' class='respPic'></div></div>","1","9","Alex","11","Shared","0.65,0.2","14","0.65","trustrating_stim/white_mw053.bmp","7.5","93","26"
"","","","decisionFB","6092dea4efd6d61350f0fdbf","bdp_trlrn","Wed Mar 15 2023 14:34:48 GMT-0500 (Central Daylight Time)","624486","Trustworthy,Untrustworthy","html-keyboard-response","214","329904","0.0-19.0-2.25","","null","","<div class='trialDiv'><img src='trustrating_stim/white_mw053.bmp'><br><font class='baseline'><strong>Alex</strong><p>Choose number of points to send.</font><div class='respPicDiv'><img src='img/responseButtonOffersNo0L1.png' class='respPic'></div></div>","null","9","Alex","11","Shared","0.65,0.2","14","0.65","trustrating_stim/white_mw053.bmp","7.5","92","26"
"","","","feedback","6092dea4efd6d61350f0fdbf","bdp_trlrn","Wed Mar 15 2023 14:34:48 GMT-0500 (Central Daylight Time)","624486","Trustworthy,Untrustworthy","html-keyboard-response","215","330920","0.0-19.0-3.25","","null","","<div class='trialDiv'><img src='trustrating_stim/white_mw053.bmp'><br><font class='baseline'><strong>Alex</strong><p>Received: <strong>4</strong></font> &nbsp; &nbsp; &nbsp; &nbsp; &nbsp; &nbsp;<font class='posOutcome'>Shared back: <strong>2</strong></font></font><div class='respPicDiv'><img src='img/responseButtonOffersNo0_wht.png' class='respPic'></div></div>","null","9","Alex","11","Shared","0.65,0.2","14","0.65","trustrating_stim/white_mw053.bmp","7.5","94","26"
"","","","decision","6092dea4efd6d61350f0fdbf","bdp_trlrn","Wed Mar 15 2023 14:34:48 GMT-0500 (Central Daylight Time)","624486","Trustworthy,Untrustworthy","html-keyboard-response","216","331257","0.0-19.0-1.26","","336","","<div class='trialDiv'><img src='trustrating_stim/white_00761_941201_fb_edt.bmp'><br><font class='baseline'><strong>Devin</strong><p>Choose number of points to send.</font><div class='respPicDiv'><img src='img/responseButtonOffersNo0L.png' class='respPic'></div></div>","1","9","Devin","0","Shared","0.2,0.65","8","0.2","trustrating_stim/white_00761_941201_fb_edt.bmp","2.5","99","27"
"","","","decisionFB","6092dea4efd6d61350f0fdbf","bdp_trlrn","Wed Mar 15 2023 14:34:48 GMT-0500 (Central Daylight Time)","624486","Trustworthy,Untrustworthy","html-keyboard-response","217","331509","0.0-19.0-2.26","","null","","<div class='trialDiv'><img src='trustrating_stim/white_00761_941201_fb_edt.bmp'><br><font class='baseline'><strong>Devin</strong><p>Choose number of points to send.</font><div class='respPicDiv'><img src='img/responseButtonOffersNo0L1.png' class='respPic'></div></div>","null","9","Devin","0","Shared","0.2,0.65","8","0.2","trustrating_stim/white_00761_941201_fb_edt.bmp","2.5","98","27"
"","","","feedback","6092dea4efd6d61350f0fdbf","bdp_trlrn","Wed Mar 15 2023 14:34:48 GMT-0500 (Central Daylight Time)","624486","Trustworthy,Untrustworthy","html-keyboard-response","218","332517","0.0-19.0-3.26","","null","","<div class='trialDiv'><img src='trustrating_stim/white_00761_941201_fb_edt.bmp'><br><font class='baseline'><strong>Devin</strong><p>Received: <strong>4</strong></font> &nbsp; &nbsp; &nbsp; &nbsp; &nbsp; &nbsp;<font class='posOutcome'>Shared back: <strong>2</strong></font></font><div class='respPicDiv'><img src='img/responseButtonOffersNo0_wht.png' class='respPic'></div></div>","null","9","Devin","0","Shared","0.2,0.65","8","0.2","trustrating_stim/white_00761_941201_fb_edt.bmp","2.5","100","27"
"","","","decision","6092dea4efd6d61350f0fdbf","bdp_trlrn","Wed Mar 15 2023 14:34:48 GMT-0500 (Central Daylight Time)","624486","Trustworthy,Untrustworthy","html-keyboard-response","219","332860","0.0-19.0-1.27","","341","","<div class='trialDiv'><img src='trustrating_stim/white_mw048.bmp'><br><font class='baseline'><strong>Lucas</strong><p>Choose number of points to send.</font><div class='respPicDiv'><img src='img/responseButtonOffersNo0L.png' class='respPic'></div></div>","1","10","Lucas","6","Kept","0.2,0.8","10","0.2","trustrating_stim/white_mw048.bmp","4","105","28"
"","","","decisionFB","6092dea4efd6d61350f0fdbf","bdp_trlrn","Wed Mar 15 2023 14:34:48 GMT-0500 (Central Daylight Time)","624486","Trustworthy,Untrustworthy","html-keyboard-response","220","333117","0.0-19.0-2.27","","null","","<div class='trialDiv'><img src='trustrating_stim/white_mw048.bmp'><br><font class='baseline'><strong>Lucas</strong><p>Choose number of points to send.</font><div class='respPicDiv'><img src='img/responseButtonOffersNo0L1.png' class='respPic'></div></div>","null","10","Lucas","6","Kept","0.2,0.8","10","0.2","trustrating_stim/white_mw048.bmp","4","104","28"
"","","","feedback","6092dea4efd6d61350f0fdbf","bdp_trlrn","Wed Mar 15 2023 14:34:48 GMT-0500 (Central Daylight Time)","624486","Trustworthy,Untrustworthy","html-keyboard-response","221","334124","0.0-19.0-3.27","","null","","<div class='trialDiv'><img src='trustrating_stim/white_mw048.bmp'><br><font class='baseline'><strong>Lucas</strong><p>Received: <strong>4</strong></font> &nbsp; &nbsp; &nbsp; &nbsp; &nbsp; &nbsp;<font class='negOutcome'>Shared back: <strong>0</strong></font></font><div class='respPicDiv'><img src='img/responseButtonOffersNo0_wht.png' class='respPic'></div></div>","null","10","Lucas","6","Kept","0.2,0.8","10","0.2","trustrating_stim/white_mw048.bmp","4","104","28"
