"event","trial","time","trialtype","subject_id","task","startTime","totalTime","labels","trial_type","trial_index","time_elapsed","internal_node_id","view_history","rt","success","stimulus","key_press","aground","name","faceID","outcome","agenttype","agentswpt","agentcurrpshare","face","avgRating","point_total","round"
"focus","0","0","focusevent","627ea14463f25dce42e73d51","bdp_trlrn","Mon Mar 13 2023 13:24:32 GMT-0400 (Eastern Daylight Time)","1325662","Trustworthy,Untrustworthy","","","","","","","","","","","","","","","","","","","",""
"","","","","627ea14463f25dce42e73d51","bdp_trlrn","Mon Mar 13 2023 13:24:32 GMT-0400 (Eastern Daylight Time)","1325662","Trustworthy,Untrustworthy","pavlovia","0","32","0.0-0.0","","","","","","","","","","","","","","","",""
"","","","","627ea14463f25dce42e73d51","bdp_trlrn","Mon Mar 13 2023 13:24:32 GMT-0400 (Eastern Daylight Time)","1325662","Trustworthy,Untrustworthy","instructions","1","21780","0.0-1.0","[{""page_index"":0,""viewing_time"":21747}]","21747","","","","","","","","","","","","","",""
"fullscreenexit","2","28983","fullscreenexit","627ea14463f25dce42e73d51","bdp_trlrn","Mon Mar 13 2023 13:24:32 GMT-0400 (Eastern Daylight Time)","1325662","Trustworthy,Untrustworthy","","","","","","","","","","","","","","","","","","","",""
"","","","","627ea14463f25dce42e73d51","bdp_trlrn","Mon Mar 13 2023 13:24:32 GMT-0400 (Eastern Daylight Time)","1325662","Trustworthy,Untrustworthy","fullscreen","2","29688","0.0-2.0","","","true","","","","","","","","","","","","",""
"","","","fullscreenfail","627ea14463f25dce42e73d51","bdp_trlrn","Mon Mar 13 2023 13:24:32 GMT-0400 (Eastern Daylight Time)","1325662","Trustworthy,Untrustworthy","image-keyboard-response","3","47309","0.0-3.0-0.0","","17615","","","32","","","","","","","","","","",""
"","","","","627ea14463f25dce42e73d51","bdp_trlrn","Mon Mar 13 2023 13:24:32 GMT-0400 (Eastern Daylight Time)","1325662","Trustworthy,Untrustworthy","instructions","4","150882","0.0-4.0","[{""page_index"":0,""viewing_time"":53562},{""page_index"":1,""viewing_time"":49758}]","103320","","","","","","","","","","","","","",""
"","","","","627ea14463f25dce42e73d51","bdp_trlrn","Mon Mar 13 2023 13:24:32 GMT-0400 (Eastern Daylight Time)","1325662","Trustworthy,Untrustworthy","instructions","5","157922","0.0-5.0","[{""page_index"":0,""viewing_time"":7037}]","7038","","","","","","","","","","","","","",""
"","","","rating","627ea14463f25dce42e73d51","bdp_trlrn","Mon Mar 13 2023 13:24:32 GMT-0400 (Eastern Daylight Time)","1325662","Trustworthy,Untrustworthy","image-keyboard-response","6","164787","0.0-6.0-1.0","","6757","","trustrating_stim/white_mw046.bmp","3","","","","","","","","","","",""
"","","","ratingFB","627ea14463f25dce42e73d51","bdp_trlrn","Mon Mar 13 2023 13:24:32 GMT-0400 (Eastern Daylight Time)","1325662","Trustworthy,Untrustworthy","image-keyboard-response","7","165007","0.0-6.0-2.0","","null","","trustrating_stim/white_mw046.bmp","null","","","","","","","","","","",""
"","","","rating","627ea14463f25dce42e73d51","bdp_trlrn","Mon Mar 13 2023 13:24:32 GMT-0400 (Eastern Daylight Time)","1325662","Trustworthy,Untrustworthy","image-keyboard-response","8","170790","0.0-6.0-1.1","","5667","","trustrating_stim/white_00223_940128_fb_edt.bmp","4","","","","","","","","","","",""
"","","","ratingFB","627ea14463f25dce42e73d51","bdp_trlrn","Mon Mar 13 2023 13:24:32 GMT-0400 (Eastern Daylight Time)","1325662","Trustworthy,Untrustworthy","image-keyboard-response","9","171004","0.0-6.0-2.1","","null","","trustrating_stim/white_00223_940128_fb_edt.bmp","null","","","","","","","","","","",""
"","","","rating","627ea14463f25dce42e73d51","bdp_trlrn","Mon Mar 13 2023 13:24:32 GMT-0400 (Eastern Daylight Time)","1325662","Trustworthy,Untrustworthy","image-keyboard-response","10","173324","0.0-6.0-1.2","","2203","","trustrating_stim/white_mw033.bmp","2","","","","","","","","","","",""
"","","","ratingFB","627ea14463f25dce42e73d51","bdp_trlrn","Mon Mar 13 2023 13:24:32 GMT-0400 (Eastern Daylight Time)","1325662","Trustworthy,Untrustworthy","image-keyboard-response","11","173536","0.0-6.0-2.2","","null","","trustrating_stim/white_mw033.bmp","null","","","","","","","","","","",""
"","","","rating","627ea14463f25dce42e73d51","bdp_trlrn","Mon Mar 13 2023 13:24:32 GMT-0400 (Eastern Daylight Time)","1325662","Trustworthy,Untrustworthy","image-keyboard-response","12","175635","0.0-6.0-1.3","","1982","","trustrating_stim/white_00757_941201_fa_edt.bmp","1","","","","","","","","","","",""
"","","","ratingFB","627ea14463f25dce42e73d51","bdp_trlrn","Mon Mar 13 2023 13:24:32 GMT-0400 (Eastern Daylight Time)","1325662","Trustworthy,Untrustworthy","image-keyboard-response","13","175851","0.0-6.0-2.3","","null","","trustrating_stim/white_00757_941201_fa_edt.bmp","null","","","","","","","","","","",""
"","","","rating","627ea14463f25dce42e73d51","bdp_trlrn","Mon Mar 13 2023 13:24:32 GMT-0400 (Eastern Daylight Time)","1325662","Trustworthy,Untrustworthy","image-keyboard-response","14","177095","0.0-6.0-1.4","","1128","","trustrating_stim/white_00761_941201_fb_edt.bmp","2","","","","","","","","","","",""
"","","","ratingFB","627ea14463f25dce42e73d51","bdp_trlrn","Mon Mar 13 2023 13:24:32 GMT-0400 (Eastern Daylight Time)","1325662","Trustworthy,Untrustworthy","image-keyboard-response","15","177299","0.0-6.0-2.4","","null","","trustrating_stim/white_00761_941201_fb_edt.bmp","null","","","","","","","","","","",""
"","","","rating","627ea14463f25dce42e73d51","bdp_trlrn","Mon Mar 13 2023 13:24:32 GMT-0400 (Eastern Daylight Time)","1325662","Trustworthy,Untrustworthy","image-keyboard-response","16","178527","0.0-6.0-1.5","","1112","","trustrating_stim/white_mw084.bmp","2","","","","","","","","","","",""
"","","","ratingFB","627ea14463f25dce42e73d51","bdp_trlrn","Mon Mar 13 2023 13:24:32 GMT-0400 (Eastern Daylight Time)","1325662","Trustworthy,Untrustworthy","image-keyboard-response","17","178732","0.0-6.0-2.5","","null","","trustrating_stim/white_mw084.bmp","null","","","","","","","","","","",""
"","","","rating","627ea14463f25dce42e73d51","bdp_trlrn","Mon Mar 13 2023 13:24:32 GMT-0400 (Eastern Daylight Time)","1325662","Trustworthy,Untrustworthy","image-keyboard-response","18","181893","0.0-6.0-1.6","","3047","","trustrating_stim/white_mw089.bmp","2","","","","","","","","","","",""
"","","","ratingFB","627ea14463f25dce42e73d51","bdp_trlrn","Mon Mar 13 2023 13:24:32 GMT-0400 (Eastern Daylight Time)","1325662","Trustworthy,Untrustworthy","image-keyboard-response","19","182097","0.0-6.0-2.6","","null","","trustrating_stim/white_mw089.bmp","null","","","","","","","","","","",""
"","","","rating","627ea14463f25dce42e73d51","bdp_trlrn","Mon Mar 13 2023 13:24:32 GMT-0400 (Eastern Daylight Time)","1325662","Trustworthy,Untrustworthy","image-keyboard-response","20","183154","0.0-6.0-1.7","","940","","trustrating_stim/white_mw097.bmp","2","","","","","","","","","","",""
"","","","ratingFB","627ea14463f25dce42e73d51","bdp_trlrn","Mon Mar 13 2023 13:24:32 GMT-0400 (Eastern Daylight Time)","1325662","Trustworthy,Untrustworthy","image-keyboard-response","21","183364","0.0-6.0-2.7","","null","","trustrating_stim/white_mw097.bmp","null","","","","","","","","","","",""
"","","","rating","627ea14463f25dce42e73d51","bdp_trlrn","Mon Mar 13 2023 13:24:32 GMT-0400 (Eastern Daylight Time)","1325662","Trustworthy,Untrustworthy","image-keyboard-response","22","185304","0.0-6.0-1.8","","1824","","trustrating_stim/white_00807_941205_fb_edt.bmp","3","","","","","","","","","","",""
"","","","ratingFB","627ea14463f25dce42e73d51","bdp_trlrn","Mon Mar 13 2023 13:24:32 GMT-0400 (Eastern Daylight Time)","1325662","Trustworthy,Untrustworthy","image-keyboard-response","23","185513","0.0-6.0-2.8","","null","","trustrating_stim/white_00807_941205_fb_edt.bmp","null","","","","","","","","","","",""
"","","","rating","627ea14463f25dce42e73d51","bdp_trlrn","Mon Mar 13 2023 13:24:32 GMT-0400 (Eastern Daylight Time)","1325662","Trustworthy,Untrustworthy","image-keyboard-response","24","186380","0.0-6.0-1.9","","751","","trustrating_stim/white_00602_940928_fb_edt.bmp","1","","","","","","","","","","",""
"","","","ratingFB","627ea14463f25dce42e73d51","bdp_trlrn","Mon Mar 13 2023 13:24:32 GMT-0400 (Eastern Daylight Time)","1325662","Trustworthy,Untrustworthy","image-keyboard-response","25","186594","0.0-6.0-2.9","","null","","trustrating_stim/white_00602_940928_fb_edt.bmp","null","","","","","","","","","","",""
"","","","rating","627ea14463f25dce42e73d51","bdp_trlrn","Mon Mar 13 2023 13:24:32 GMT-0400 (Eastern Daylight Time)","1325662","Trustworthy,Untrustworthy","image-keyboard-response","26","187641","0.0-6.0-1.10","","930","","trustrating_stim/white_00577_940928_fa_edt.bmp","2","","","","","","","","","","",""
"","","","ratingFB","627ea14463f25dce42e73d51","bdp_trlrn","Mon Mar 13 2023 13:24:32 GMT-0400 (Eastern Daylight Time)","1325662","Trustworthy,Untrustworthy","image-keyboard-response","27","187844","0.0-6.0-2.10","","null","","trustrating_stim/white_00577_940928_fa_edt.bmp","null","","","","","","","","","","",""
"","","","rating","627ea14463f25dce42e73d51","bdp_trlrn","Mon Mar 13 2023 13:24:32 GMT-0400 (Eastern Daylight Time)","1325662","Trustworthy,Untrustworthy","image-keyboard-response","28","189027","0.0-6.0-1.11","","1068","","trustrating_stim/white_mw066.bmp","3","","","","","","","","","","",""
"","","","ratingFB","627ea14463f25dce42e73d51","bdp_trlrn","Mon Mar 13 2023 13:24:32 GMT-0400 (Eastern Daylight Time)","1325662","Trustworthy,Untrustworthy","image-keyboard-response","29","189249","0.0-6.0-2.11","","null","","trustrating_stim/white_mw066.bmp","null","","","","","","","","","","",""
"","","","rating","627ea14463f25dce42e73d51","bdp_trlrn","Mon Mar 13 2023 13:24:32 GMT-0400 (Eastern Daylight Time)","1325662","Trustworthy,Untrustworthy","image-keyboard-response","30","190089","0.0-6.0-1.12","","728","","trustrating_stim/white_mw056.bmp","1","","","","","","","","","","",""
"","","","ratingFB","627ea14463f25dce42e73d51","bdp_trlrn","Mon Mar 13 2023 13:24:32 GMT-0400 (Eastern Daylight Time)","1325662","Trustworthy,Untrustworthy","image-keyboard-response","31","190293","0.0-6.0-2.12","","null","","trustrating_stim/white_mw056.bmp","null","","","","","","","","","","",""
"","","","rating","627ea14463f25dce42e73d51","bdp_trlrn","Mon Mar 13 2023 13:24:32 GMT-0400 (Eastern Daylight Time)","1325662","Trustworthy,Untrustworthy","image-keyboard-response","32","192937","0.0-6.0-1.13","","2541","","trustrating_stim/white_00659_941121_fa_edt.bmp","4","","","","","","","","","","",""
"","","","ratingFB","627ea14463f25dce42e73d51","bdp_trlrn","Mon Mar 13 2023 13:24:32 GMT-0400 (Eastern Daylight Time)","1325662","Trustworthy,Untrustworthy","image-keyboard-response","33","193141","0.0-6.0-2.13","","null","","trustrating_stim/white_00659_941121_fa_edt.bmp","null","","","","","","","","","","",""
"","","","rating","627ea14463f25dce42e73d51","bdp_trlrn","Mon Mar 13 2023 13:24:32 GMT-0400 (Eastern Daylight Time)","1325662","Trustworthy,Untrustworthy","image-keyboard-response","34","193830","0.0-6.0-1.14","","574","","trustrating_stim/white_00898_960530_fa_edt.bmp","3","","","","","","","","","","",""
"","","","ratingFB","627ea14463f25dce42e73d51","bdp_trlrn","Mon Mar 13 2023 13:24:32 GMT-0400 (Eastern Daylight Time)","1325662","Trustworthy,Untrustworthy","image-keyboard-response","35","194042","0.0-6.0-2.14","","null","","trustrating_stim/white_00898_960530_fa_edt.bmp","null","","","","","","","","","","",""
"","","","rating","627ea14463f25dce42e73d51","bdp_trlrn","Mon Mar 13 2023 13:24:32 GMT-0400 (Eastern Daylight Time)","1325662","Trustworthy,Untrustworthy","image-keyboard-response","36","195149","0.0-6.0-1.15","","991","","trustrating_stim/white_00340_940422_fa_edt.bmp","2","","","","","","","","","","",""
"","","","ratingFB","627ea14463f25dce42e73d51","bdp_trlrn","Mon Mar 13 2023 13:24:32 GMT-0400 (Eastern Daylight Time)","1325662","Trustworthy,Untrustworthy","image-keyboard-response","37","195357","0.0-6.0-2.15","","null","","trustrating_stim/white_00340_940422_fa_edt.bmp","null","","","","","","","","","","",""
"","","","rating","627ea14463f25dce42e73d51","bdp_trlrn","Mon Mar 13 2023 13:24:32 GMT-0400 (Eastern Daylight Time)","1325662","Trustworthy,Untrustworthy","image-keyboard-response","38","196074","0.0-6.0-1.16","","601","","trustrating_stim/white_mw071.bmp","3","","","","","","","","","","",""
"","","","ratingFB","627ea14463f25dce42e73d51","bdp_trlrn","Mon Mar 13 2023 13:24:32 GMT-0400 (Eastern Daylight Time)","1325662","Trustworthy,Untrustworthy","image-keyboard-response","39","196291","0.0-6.0-2.16","","null","","trustrating_stim/white_mw071.bmp","null","","","","","","","","","","",""
"","","","rating","627ea14463f25dce42e73d51","bdp_trlrn","Mon Mar 13 2023 13:24:32 GMT-0400 (Eastern Daylight Time)","1325662","Trustworthy,Untrustworthy","image-keyboard-response","40","196954","0.0-6.0-1.17","","548","","trustrating_stim/white_00299_940422_fa_edt.bmp","2","","","","","","","","","","",""
"","","","ratingFB","627ea14463f25dce42e73d51","bdp_trlrn","Mon Mar 13 2023 13:24:32 GMT-0400 (Eastern Daylight Time)","1325662","Trustworthy,Untrustworthy","image-keyboard-response","41","197156","0.0-6.0-2.17","","null","","trustrating_stim/white_00299_940422_fa_edt.bmp","null","","","","","","","","","","",""
"","","","rating","627ea14463f25dce42e73d51","bdp_trlrn","Mon Mar 13 2023 13:24:32 GMT-0400 (Eastern Daylight Time)","1325662","Trustworthy,Untrustworthy","image-keyboard-response","42","197726","0.0-6.0-1.18","","453","","trustrating_stim/white_mw060.bmp","2","","","","","","","","","","",""
"","","","ratingFB","627ea14463f25dce42e73d51","bdp_trlrn","Mon Mar 13 2023 13:24:32 GMT-0400 (Eastern Daylight Time)","1325662","Trustworthy,Untrustworthy","image-keyboard-response","43","197940","0.0-6.0-2.18","","null","","trustrating_stim/white_mw060.bmp","null","","","","","","","","","","",""
"","","","rating","627ea14463f25dce42e73d51","bdp_trlrn","Mon Mar 13 2023 13:24:32 GMT-0400 (Eastern Daylight Time)","1325662","Trustworthy,Untrustworthy","image-keyboard-response","44","199253","0.0-6.0-1.19","","1195","","trustrating_stim/white_mw053.bmp","2","","","","","","","","","","",""
"","","","ratingFB","627ea14463f25dce42e73d51","bdp_trlrn","Mon Mar 13 2023 13:24:32 GMT-0400 (Eastern Daylight Time)","1325662","Trustworthy,Untrustworthy","image-keyboard-response","45","199455","0.0-6.0-2.19","","null","","trustrating_stim/white_mw053.bmp","null","","","","","","","","","","",""
"","","","rating","627ea14463f25dce42e73d51","bdp_trlrn","Mon Mar 13 2023 13:24:32 GMT-0400 (Eastern Daylight Time)","1325662","Trustworthy,Untrustworthy","image-keyboard-response","46","200217","0.0-6.0-1.20","","645","","trustrating_stim/white_mw063.bmp","3","","","","","","","","","","",""
"","","","ratingFB","627ea14463f25dce42e73d51","bdp_trlrn","Mon Mar 13 2023 13:24:32 GMT-0400 (Eastern Daylight Time)","1325662","Trustworthy,Untrustworthy","image-keyboard-response","47","200421","0.0-6.0-2.20","","null","","trustrating_stim/white_mw063.bmp","null","","","","","","","","","","",""
"","","","rating","627ea14463f25dce42e73d51","bdp_trlrn","Mon Mar 13 2023 13:24:32 GMT-0400 (Eastern Daylight Time)","1325662","Trustworthy,Untrustworthy","image-keyboard-response","48","201331","0.0-6.0-1.21","","794","","trustrating_stim/white_mw049.bmp","1","","","","","","","","","","",""
"","","","ratingFB","627ea14463f25dce42e73d51","bdp_trlrn","Mon Mar 13 2023 13:24:32 GMT-0400 (Eastern Daylight Time)","1325662","Trustworthy,Untrustworthy","image-keyboard-response","49","201541","0.0-6.0-2.21","","null","","trustrating_stim/white_mw049.bmp","null","","","","","","","","","","",""
"","","","rating","627ea14463f25dce42e73d51","bdp_trlrn","Mon Mar 13 2023 13:24:32 GMT-0400 (Eastern Daylight Time)","1325662","Trustworthy,Untrustworthy","image-keyboard-response","50","202490","0.0-6.0-1.22","","836","","trustrating_stim/white_00109_931230_fa_edt.bmp","2","","","","","","","","","","",""
"","","","ratingFB","627ea14463f25dce42e73d51","bdp_trlrn","Mon Mar 13 2023 13:24:32 GMT-0400 (Eastern Daylight Time)","1325662","Trustworthy,Untrustworthy","image-keyboard-response","51","202705","0.0-6.0-2.22","","null","","trustrating_stim/white_00109_931230_fa_edt.bmp","null","","","","","","","","","","",""
"","","","rating","627ea14463f25dce42e73d51","bdp_trlrn","Mon Mar 13 2023 13:24:32 GMT-0400 (Eastern Daylight Time)","1325662","Trustworthy,Untrustworthy","image-keyboard-response","52","203503","0.0-6.0-1.23","","683","","trustrating_stim/white_mw099.bmp","3","","","","","","","","","","",""
"","","","ratingFB","627ea14463f25dce42e73d51","bdp_trlrn","Mon Mar 13 2023 13:24:32 GMT-0400 (Eastern Daylight Time)","1325662","Trustworthy,Untrustworthy","image-keyboard-response","53","203719","0.0-6.0-2.23","","null","","trustrating_stim/white_mw099.bmp","null","","","","","","","","","","",""
"","","","rating","627ea14463f25dce42e73d51","bdp_trlrn","Mon Mar 13 2023 13:24:32 GMT-0400 (Eastern Daylight Time)","1325662","Trustworthy,Untrustworthy","image-keyboard-response","54","204398","0.0-6.0-1.24","","562","","trustrating_stim/white_00785_941205_fb_edt.bmp","1","","","","","","","","","","",""
"","","","ratingFB","627ea14463f25dce42e73d51","bdp_trlrn","Mon Mar 13 2023 13:24:32 GMT-0400 (Eastern Daylight Time)","1325662","Trustworthy,Untrustworthy","image-keyboard-response","55","204602","0.0-6.0-2.24","","null","","trustrating_stim/white_00785_941205_fb_edt.bmp","null","","","","","","","","","","",""
"","","","rating","627ea14463f25dce42e73d51","bdp_trlrn","Mon Mar 13 2023 13:24:32 GMT-0400 (Eastern Daylight Time)","1325662","Trustworthy,Untrustworthy","image-keyboard-response","56","205229","0.0-6.0-1.25","","510","","trustrating_stim/white_00120_931230_fa_edt.bmp","3","","","","","","","","","","",""
"","","","ratingFB","627ea14463f25dce42e73d51","bdp_trlrn","Mon Mar 13 2023 13:24:32 GMT-0400 (Eastern Daylight Time)","1325662","Trustworthy,Untrustworthy","image-keyboard-response","57","205436","0.0-6.0-2.25","","null","","trustrating_stim/white_00120_931230_fa_edt.bmp","null","","","","","","","","","","",""
"","","","rating","627ea14463f25dce42e73d51","bdp_trlrn","Mon Mar 13 2023 13:24:32 GMT-0400 (Eastern Daylight Time)","1325662","Trustworthy,Untrustworthy","image-keyboard-response","58","205949","0.0-6.0-1.26","","397","","trustrating_stim/white_mw048.bmp","2","","","","","","","","","","",""
"","","","ratingFB","627ea14463f25dce42e73d51","bdp_trlrn","Mon Mar 13 2023 13:24:32 GMT-0400 (Eastern Daylight Time)","1325662","Trustworthy,Untrustworthy","image-keyboard-response","59","206152","0.0-6.0-2.26","","null","","trustrating_stim/white_mw048.bmp","null","","","","","","","","","","",""
"","","","rating","627ea14463f25dce42e73d51","bdp_trlrn","Mon Mar 13 2023 13:24:32 GMT-0400 (Eastern Daylight Time)","1325662","Trustworthy,Untrustworthy","image-keyboard-response","60","206547","0.0-6.0-1.27","","278","","trustrating_stim/white_00519_940519_fb_edt.bmp","1","","","","","","","","","","",""
"","","","ratingFB","627ea14463f25dce42e73d51","bdp_trlrn","Mon Mar 13 2023 13:24:32 GMT-0400 (Eastern Daylight Time)","1325662","Trustworthy,Untrustworthy","image-keyboard-response","61","206751","0.0-6.0-2.27","","null","","trustrating_stim/white_00519_940519_fb_edt.bmp","null","","","","","","","","","","",""
"","","","rating","627ea14463f25dce42e73d51","bdp_trlrn","Mon Mar 13 2023 13:24:32 GMT-0400 (Eastern Daylight Time)","1325662","Trustworthy,Untrustworthy","image-keyboard-response","62","207479","0.0-6.0-1.28","","611","","trustrating_stim/white_00129_931230_fb_edt.bmp","1","","","","","","","","","","",""
"","","","ratingFB","627ea14463f25dce42e73d51","bdp_trlrn","Mon Mar 13 2023 13:24:32 GMT-0400 (Eastern Daylight Time)","1325662","Trustworthy,Untrustworthy","image-keyboard-response","63","207683","0.0-6.0-2.28","","null","","trustrating_stim/white_00129_931230_fb_edt.bmp","null","","","","","","","","","","",""
"","","","rating","627ea14463f25dce42e73d51","bdp_trlrn","Mon Mar 13 2023 13:24:32 GMT-0400 (Eastern Daylight Time)","1325662","Trustworthy,Untrustworthy","image-keyboard-response","64","208282","0.0-6.0-1.29","","481","","trustrating_stim/white_mw035.bmp","2","","","","","","","","","","",""
"","","","ratingFB","627ea14463f25dce42e73d51","bdp_trlrn","Mon Mar 13 2023 13:24:32 GMT-0400 (Eastern Daylight Time)","1325662","Trustworthy,Untrustworthy","image-keyboard-response","65","208484","0.0-6.0-2.29","","null","","trustrating_stim/white_mw035.bmp","null","","","","","","","","","","",""
"","","","rating","627ea14463f25dce42e73d51","bdp_trlrn","Mon Mar 13 2023 13:24:32 GMT-0400 (Eastern Daylight Time)","1325662","Trustworthy,Untrustworthy","image-keyboard-response","66","209022","0.0-6.0-1.30","","421","","trustrating_stim/white_mw060.bmp","2","","","","","","","","","","",""
"","","","ratingFB","627ea14463f25dce42e73d51","bdp_trlrn","Mon Mar 13 2023 13:24:32 GMT-0400 (Eastern Daylight Time)","1325662","Trustworthy,Untrustworthy","image-keyboard-response","67","209235","0.0-6.0-2.30","","null","","trustrating_stim/white_mw060.bmp","null","","","","","","","","","","",""
"","","","rating","627ea14463f25dce42e73d51","bdp_trlrn","Mon Mar 13 2023 13:24:32 GMT-0400 (Eastern Daylight Time)","1325662","Trustworthy,Untrustworthy","image-keyboard-response","68","209724","0.0-6.0-1.31","","374","","trustrating_stim/white_mw099.bmp","3","","","","","","","","","","",""
"","","","ratingFB","627ea14463f25dce42e73d51","bdp_trlrn","Mon Mar 13 2023 13:24:32 GMT-0400 (Eastern Daylight Time)","1325662","Trustworthy,Untrustworthy","image-keyboard-response","69","209934","0.0-6.0-2.31","","null","","trustrating_stim/white_mw099.bmp","null","","","","","","","","","","",""
"","","","rating","627ea14463f25dce42e73d51","bdp_trlrn","Mon Mar 13 2023 13:24:32 GMT-0400 (Eastern Daylight Time)","1325662","Trustworthy,Untrustworthy","image-keyboard-response","70","210373","0.0-6.0-1.32","","322","","trustrating_stim/white_00120_931230_fa_edt.bmp","3","","","","","","","","","","",""
"","","","ratingFB","627ea14463f25dce42e73d51","bdp_trlrn","Mon Mar 13 2023 13:24:32 GMT-0400 (Eastern Daylight Time)","1325662","Trustworthy,Untrustworthy","image-keyboard-response","71","210584","0.0-6.0-2.32","","null","","trustrating_stim/white_00120_931230_fa_edt.bmp","null","","","","","","","","","","",""
"","","","rating","627ea14463f25dce42e73d51","bdp_trlrn","Mon Mar 13 2023 13:24:32 GMT-0400 (Eastern Daylight Time)","1325662","Trustworthy,Untrustworthy","image-keyboard-response","72","211031","0.0-6.0-1.33","","332","","trustrating_stim/white_00129_931230_fb_edt.bmp","1","","","","","","","","","","",""
"","","","ratingFB","627ea14463f25dce42e73d51","bdp_trlrn","Mon Mar 13 2023 13:24:32 GMT-0400 (Eastern Daylight Time)","1325662","Trustworthy,Untrustworthy","image-keyboard-response","73","211232","0.0-6.0-2.33","","null","","trustrating_stim/white_00129_931230_fb_edt.bmp","null","","","","","","","","","","",""
"","","","rating","627ea14463f25dce42e73d51","bdp_trlrn","Mon Mar 13 2023 13:24:32 GMT-0400 (Eastern Daylight Time)","1325662","Trustworthy,Untrustworthy","image-keyboard-response","74","211633","0.0-6.0-1.34","","284","","trustrating_stim/white_mw033.bmp","3","","","","","","","","","","",""
"","","","ratingFB","627ea14463f25dce42e73d51","bdp_trlrn","Mon Mar 13 2023 13:24:32 GMT-0400 (Eastern Daylight Time)","1325662","Trustworthy,Untrustworthy","image-keyboard-response","75","211850","0.0-6.0-2.34","","null","","trustrating_stim/white_mw033.bmp","null","","","","","","","","","","",""
"","","","rating","627ea14463f25dce42e73d51","bdp_trlrn","Mon Mar 13 2023 13:24:32 GMT-0400 (Eastern Daylight Time)","1325662","Trustworthy,Untrustworthy","image-keyboard-response","76","212312","0.0-6.0-1.35","","346","","trustrating_stim/white_mw066.bmp","1","","","","","","","","","","",""
"","","","ratingFB","627ea14463f25dce42e73d51","bdp_trlrn","Mon Mar 13 2023 13:24:32 GMT-0400 (Eastern Daylight Time)","1325662","Trustworthy,Untrustworthy","image-keyboard-response","77","212515","0.0-6.0-2.35","","null","","trustrating_stim/white_mw066.bmp","null","","","","","","","","","","",""
"","","","rating","627ea14463f25dce42e73d51","bdp_trlrn","Mon Mar 13 2023 13:24:32 GMT-0400 (Eastern Daylight Time)","1325662","Trustworthy,Untrustworthy","image-keyboard-response","78","212990","0.0-6.0-1.36","","358","","trustrating_stim/white_00757_941201_fa_edt.bmp","3","","","","","","","","","","",""
"","","","ratingFB","627ea14463f25dce42e73d51","bdp_trlrn","Mon Mar 13 2023 13:24:32 GMT-0400 (Eastern Daylight Time)","1325662","Trustworthy,Untrustworthy","image-keyboard-response","79","213201","0.0-6.0-2.36","","null","","trustrating_stim/white_00757_941201_fa_edt.bmp","null","","","","","","","","","","",""
"","","","rating","627ea14463f25dce42e73d51","bdp_trlrn","Mon Mar 13 2023 13:24:32 GMT-0400 (Eastern Daylight Time)","1325662","Trustworthy,Untrustworthy","image-keyboard-response","80","213703","0.0-6.0-1.37","","388","","trustrating_stim/white_00602_940928_fb_edt.bmp","1","","","","","","","","","","",""
"","","","ratingFB","627ea14463f25dce42e73d51","bdp_trlrn","Mon Mar 13 2023 13:24:32 GMT-0400 (Eastern Daylight Time)","1325662","Trustworthy,Untrustworthy","image-keyboard-response","81","213919","0.0-6.0-2.37","","null","","trustrating_stim/white_00602_940928_fb_edt.bmp","null","","","","","","","","","","",""
"","","","rating","627ea14463f25dce42e73d51","bdp_trlrn","Mon Mar 13 2023 13:24:32 GMT-0400 (Eastern Daylight Time)","1325662","Trustworthy,Untrustworthy","image-keyboard-response","82","214522","0.0-6.0-1.38","","491","","trustrating_stim/white_mw049.bmp","2","","","","","","","","","","",""
"","","","ratingFB","627ea14463f25dce42e73d51","bdp_trlrn","Mon Mar 13 2023 13:24:32 GMT-0400 (Eastern Daylight Time)","1325662","Trustworthy,Untrustworthy","image-keyboard-response","83","214731","0.0-6.0-2.38","","null","","trustrating_stim/white_mw049.bmp","null","","","","","","","","","","",""
"","","","rating","627ea14463f25dce42e73d51","bdp_trlrn","Mon Mar 13 2023 13:24:32 GMT-0400 (Eastern Daylight Time)","1325662","Trustworthy,Untrustworthy","image-keyboard-response","84","215317","0.0-6.0-1.39","","469","","trustrating_stim/white_00223_940128_fb_edt.bmp","1","","","","","","","","","","",""
"","","","ratingFB","627ea14463f25dce42e73d51","bdp_trlrn","Mon Mar 13 2023 13:24:32 GMT-0400 (Eastern Daylight Time)","1325662","Trustworthy,Untrustworthy","image-keyboard-response","85","215532","0.0-6.0-2.39","","null","","trustrating_stim/white_00223_940128_fb_edt.bmp","null","","","","","","","","","","",""
"","","","rating","627ea14463f25dce42e73d51","bdp_trlrn","Mon Mar 13 2023 13:24:32 GMT-0400 (Eastern Daylight Time)","1325662","Trustworthy,Untrustworthy","image-keyboard-response","86","216046","0.0-6.0-1.40","","399","","trustrating_stim/white_mw035.bmp","2","","","","","","","","","","",""
"","","","ratingFB","627ea14463f25dce42e73d51","bdp_trlrn","Mon Mar 13 2023 13:24:32 GMT-0400 (Eastern Daylight Time)","1325662","Trustworthy,Untrustworthy","image-keyboard-response","87","216263","0.0-6.0-2.40","","null","","trustrating_stim/white_mw035.bmp","null","","","","","","","","","","",""
"","","","rating","627ea14463f25dce42e73d51","bdp_trlrn","Mon Mar 13 2023 13:24:32 GMT-0400 (Eastern Daylight Time)","1325662","Trustworthy,Untrustworthy","image-keyboard-response","88","217470","0.0-6.0-1.41","","1090","","trustrating_stim/white_00807_941205_fb_edt.bmp","2","","","","","","","","","","",""
"","","","ratingFB","627ea14463f25dce42e73d51","bdp_trlrn","Mon Mar 13 2023 13:24:32 GMT-0400 (Eastern Daylight Time)","1325662","Trustworthy,Untrustworthy","image-keyboard-response","89","217679","0.0-6.0-2.41","","null","","trustrating_stim/white_00807_941205_fb_edt.bmp","null","","","","","","","","","","",""
"","","","rating","627ea14463f25dce42e73d51","bdp_trlrn","Mon Mar 13 2023 13:24:32 GMT-0400 (Eastern Daylight Time)","1325662","Trustworthy,Untrustworthy","image-keyboard-response","90","218437","0.0-6.0-1.42","","641","","trustrating_stim/white_mw063.bmp","2","","","","","","","","","","",""
"","","","ratingFB","627ea14463f25dce42e73d51","bdp_trlrn","Mon Mar 13 2023 13:24:32 GMT-0400 (Eastern Daylight Time)","1325662","Trustworthy,Untrustworthy","image-keyboard-response","91","218653","0.0-6.0-2.42","","null","","trustrating_stim/white_mw063.bmp","null","","","","","","","","","","",""
"","","","rating","627ea14463f25dce42e73d51","bdp_trlrn","Mon Mar 13 2023 13:24:32 GMT-0400 (Eastern Daylight Time)","1325662","Trustworthy,Untrustworthy","image-keyboard-response","92","219249","0.0-6.0-1.43","","487","","trustrating_stim/white_00659_941121_fa_edt.bmp","1","","","","","","","","","","",""
"","","","ratingFB","627ea14463f25dce42e73d51","bdp_trlrn","Mon Mar 13 2023 13:24:32 GMT-0400 (Eastern Daylight Time)","1325662","Trustworthy,Untrustworthy","image-keyboard-response","93","219462","0.0-6.0-2.43","","null","","trustrating_stim/white_00659_941121_fa_edt.bmp","null","","","","","","","","","","",""
"","","","rating","627ea14463f25dce42e73d51","bdp_trlrn","Mon Mar 13 2023 13:24:32 GMT-0400 (Eastern Daylight Time)","1325662","Trustworthy,Untrustworthy","image-keyboard-response","94","220099","0.0-6.0-1.44","","521","","trustrating_stim/white_mw056.bmp","2","","","","","","","","","","",""
"","","","ratingFB","627ea14463f25dce42e73d51","bdp_trlrn","Mon Mar 13 2023 13:24:32 GMT-0400 (Eastern Daylight Time)","1325662","Trustworthy,Untrustworthy","image-keyboard-response","95","220313","0.0-6.0-2.44","","null","","trustrating_stim/white_mw056.bmp","null","","","","","","","","","","",""
"","","","rating","627ea14463f25dce42e73d51","bdp_trlrn","Mon Mar 13 2023 13:24:32 GMT-0400 (Eastern Daylight Time)","1325662","Trustworthy,Untrustworthy","image-keyboard-response","96","221033","0.0-6.0-1.45","","605","","trustrating_stim/white_00340_940422_fa_edt.bmp","2","","","","","","","","","","",""
"","","","ratingFB","627ea14463f25dce42e73d51","bdp_trlrn","Mon Mar 13 2023 13:24:32 GMT-0400 (Eastern Daylight Time)","1325662","Trustworthy,Untrustworthy","image-keyboard-response","97","221248","0.0-6.0-2.45","","null","","trustrating_stim/white_00340_940422_fa_edt.bmp","null","","","","","","","","","","",""
"","","","rating","627ea14463f25dce42e73d51","bdp_trlrn","Mon Mar 13 2023 13:24:32 GMT-0400 (Eastern Daylight Time)","1325662","Trustworthy,Untrustworthy","image-keyboard-response","98","221845","0.0-6.0-1.46","","484","","trustrating_stim/white_mw084.bmp","2","","","","","","","","","","",""
"","","","ratingFB","627ea14463f25dce42e73d51","bdp_trlrn","Mon Mar 13 2023 13:24:32 GMT-0400 (Eastern Daylight Time)","1325662","Trustworthy,Untrustworthy","image-keyboard-response","99","222056","0.0-6.0-2.46","","null","","trustrating_stim/white_mw084.bmp","null","","","","","","","","","","",""
"","","","rating","627ea14463f25dce42e73d51","bdp_trlrn","Mon Mar 13 2023 13:24:32 GMT-0400 (Eastern Daylight Time)","1325662","Trustworthy,Untrustworthy","image-keyboard-response","100","222565","0.0-6.0-1.47","","405","","trustrating_stim/white_mw053.bmp","3","","","","","","","","","","",""
"","","","ratingFB","627ea14463f25dce42e73d51","bdp_trlrn","Mon Mar 13 2023 13:24:32 GMT-0400 (Eastern Daylight Time)","1325662","Trustworthy,Untrustworthy","image-keyboard-response","101","222777","0.0-6.0-2.47","","null","","trustrating_stim/white_mw053.bmp","null","","","","","","","","","","",""
"","","","rating","627ea14463f25dce42e73d51","bdp_trlrn","Mon Mar 13 2023 13:24:32 GMT-0400 (Eastern Daylight Time)","1325662","Trustworthy,Untrustworthy","image-keyboard-response","102","223153","0.0-6.0-1.48","","260","","trustrating_stim/white_00785_941205_fb_edt.bmp","2","","","","","","","","","","",""
"","","","ratingFB","627ea14463f25dce42e73d51","bdp_trlrn","Mon Mar 13 2023 13:24:32 GMT-0400 (Eastern Daylight Time)","1325662","Trustworthy,Untrustworthy","image-keyboard-response","103","223358","0.0-6.0-2.48","","null","","trustrating_stim/white_00785_941205_fb_edt.bmp","null","","","","","","","","","","",""
"","","","rating","627ea14463f25dce42e73d51","bdp_trlrn","Mon Mar 13 2023 13:24:32 GMT-0400 (Eastern Daylight Time)","1325662","Trustworthy,Untrustworthy","image-keyboard-response","104","223702","0.0-6.0-1.49","","225","","trustrating_stim/white_00299_940422_fa_edt.bmp","2","","","","","","","","","","",""
"","","","ratingFB","627ea14463f25dce42e73d51","bdp_trlrn","Mon Mar 13 2023 13:24:32 GMT-0400 (Eastern Daylight Time)","1325662","Trustworthy,Untrustworthy","image-keyboard-response","105","223910","0.0-6.0-2.49","","null","","trustrating_stim/white_00299_940422_fa_edt.bmp","null","","","","","","","","","","",""
"","","","rating","627ea14463f25dce42e73d51","bdp_trlrn","Mon Mar 13 2023 13:24:32 GMT-0400 (Eastern Daylight Time)","1325662","Trustworthy,Untrustworthy","image-keyboard-response","106","224273","0.0-6.0-1.50","","247","","trustrating_stim/white_mw089.bmp","2","","","","","","","","","","",""
"","","","ratingFB","627ea14463f25dce42e73d51","bdp_trlrn","Mon Mar 13 2023 13:24:32 GMT-0400 (Eastern Daylight Time)","1325662","Trustworthy,Untrustworthy","image-keyboard-response","107","224475","0.0-6.0-2.50","","null","","trustrating_stim/white_mw089.bmp","null","","","","","","","","","","",""
"","","","rating","627ea14463f25dce42e73d51","bdp_trlrn","Mon Mar 13 2023 13:24:32 GMT-0400 (Eastern Daylight Time)","1325662","Trustworthy,Untrustworthy","image-keyboard-response","108","224812","0.0-6.0-1.51","","219","","trustrating_stim/white_mw097.bmp","2","","","","","","","","","","",""
"","","","ratingFB","627ea14463f25dce42e73d51","bdp_trlrn","Mon Mar 13 2023 13:24:32 GMT-0400 (Eastern Daylight Time)","1325662","Trustworthy,Untrustworthy","image-keyboard-response","109","225026","0.0-6.0-2.51","","null","","trustrating_stim/white_mw097.bmp","null","","","","","","","","","","",""
"","","","rating","627ea14463f25dce42e73d51","bdp_trlrn","Mon Mar 13 2023 13:24:32 GMT-0400 (Eastern Daylight Time)","1325662","Trustworthy,Untrustworthy","image-keyboard-response","110","225359","0.0-6.0-1.52","","217","","trustrating_stim/white_00109_931230_fa_edt.bmp","2","","","","","","","","","","",""
"","","","ratingFB","627ea14463f25dce42e73d51","bdp_trlrn","Mon Mar 13 2023 13:24:32 GMT-0400 (Eastern Daylight Time)","1325662","Trustworthy,Untrustworthy","image-keyboard-response","111","225577","0.0-6.0-2.52","","null","","trustrating_stim/white_00109_931230_fa_edt.bmp","null","","","","","","","","","","",""
"","","","rating","627ea14463f25dce42e73d51","bdp_trlrn","Mon Mar 13 2023 13:24:32 GMT-0400 (Eastern Daylight Time)","1325662","Trustworthy,Untrustworthy","image-keyboard-response","112","228378","0.0-6.0-1.53","","2685","","trustrating_stim/white_00577_940928_fa_edt.bmp","2","","","","","","","","","","",""
"","","","ratingFB","627ea14463f25dce42e73d51","bdp_trlrn","Mon Mar 13 2023 13:24:32 GMT-0400 (Eastern Daylight Time)","1325662","Trustworthy,Untrustworthy","image-keyboard-response","113","228592","0.0-6.0-2.53","","null","","trustrating_stim/white_00577_940928_fa_edt.bmp","null","","","","","","","","","","",""
"","","","rating","627ea14463f25dce42e73d51","bdp_trlrn","Mon Mar 13 2023 13:24:32 GMT-0400 (Eastern Daylight Time)","1325662","Trustworthy,Untrustworthy","image-keyboard-response","114","229723","0.0-6.0-1.54","","1014","","trustrating_stim/white_00519_940519_fb_edt.bmp","2","","","","","","","","","","",""
"","","","ratingFB","627ea14463f25dce42e73d51","bdp_trlrn","Mon Mar 13 2023 13:24:32 GMT-0400 (Eastern Daylight Time)","1325662","Trustworthy,Untrustworthy","image-keyboard-response","115","229945","0.0-6.0-2.54","","null","","trustrating_stim/white_00519_940519_fb_edt.bmp","null","","","","","","","","","","",""
"","","","rating","627ea14463f25dce42e73d51","bdp_trlrn","Mon Mar 13 2023 13:24:32 GMT-0400 (Eastern Daylight Time)","1325662","Trustworthy,Untrustworthy","image-keyboard-response","116","232908","0.0-6.0-1.55","","2851","","trustrating_stim/white_mw048.bmp","3","","","","","","","","","","",""
"","","","ratingFB","627ea14463f25dce42e73d51","bdp_trlrn","Mon Mar 13 2023 13:24:32 GMT-0400 (Eastern Daylight Time)","1325662","Trustworthy,Untrustworthy","image-keyboard-response","117","233123","0.0-6.0-2.55","","null","","trustrating_stim/white_mw048.bmp","null","","","","","","","","","","",""
"","","","rating","627ea14463f25dce42e73d51","bdp_trlrn","Mon Mar 13 2023 13:24:32 GMT-0400 (Eastern Daylight Time)","1325662","Trustworthy,Untrustworthy","image-keyboard-response","118","234691","0.0-6.0-1.56","","1452","","trustrating_stim/white_mw046.bmp","2","","","","","","","","","","",""
"","","","ratingFB","627ea14463f25dce42e73d51","bdp_trlrn","Mon Mar 13 2023 13:24:32 GMT-0400 (Eastern Daylight Time)","1325662","Trustworthy,Untrustworthy","image-keyboard-response","119","234904","0.0-6.0-2.56","","null","","trustrating_stim/white_mw046.bmp","null","","","","","","","","","","",""
"","","","rating","627ea14463f25dce42e73d51","bdp_trlrn","Mon Mar 13 2023 13:24:32 GMT-0400 (Eastern Daylight Time)","1325662","Trustworthy,Untrustworthy","image-keyboard-response","120","236093","0.0-6.0-1.57","","1072","","trustrating_stim/white_00761_941201_fb_edt.bmp","3","","","","","","","","","","",""
"","","","ratingFB","627ea14463f25dce42e73d51","bdp_trlrn","Mon Mar 13 2023 13:24:32 GMT-0400 (Eastern Daylight Time)","1325662","Trustworthy,Untrustworthy","image-keyboard-response","121","236303","0.0-6.0-2.57","","null","","trustrating_stim/white_00761_941201_fb_edt.bmp","null","","","","","","","","","","",""
"","","","rating","627ea14463f25dce42e73d51","bdp_trlrn","Mon Mar 13 2023 13:24:32 GMT-0400 (Eastern Daylight Time)","1325662","Trustworthy,Untrustworthy","image-keyboard-response","122","237318","0.0-6.0-1.58","","896","","trustrating_stim/white_00898_960530_fa_edt.bmp","2","","","","","","","","","","",""
"","","","ratingFB","627ea14463f25dce42e73d51","bdp_trlrn","Mon Mar 13 2023 13:24:32 GMT-0400 (Eastern Daylight Time)","1325662","Trustworthy,Untrustworthy","image-keyboard-response","123","237519","0.0-6.0-2.58","","null","","trustrating_stim/white_00898_960530_fa_edt.bmp","null","","","","","","","","","","",""
"","","","rating","627ea14463f25dce42e73d51","bdp_trlrn","Mon Mar 13 2023 13:24:32 GMT-0400 (Eastern Daylight Time)","1325662","Trustworthy,Untrustworthy","image-keyboard-response","124","238643","0.0-6.0-1.59","","1006","","trustrating_stim/white_mw071.bmp","3","","","","","","","","","","",""
"","","","ratingFB","627ea14463f25dce42e73d51","bdp_trlrn","Mon Mar 13 2023 13:24:32 GMT-0400 (Eastern Daylight Time)","1325662","Trustworthy,Untrustworthy","image-keyboard-response","125","238853","0.0-6.0-2.59","","null","","trustrating_stim/white_mw071.bmp","null","","","","","","","","","","",""
"","","","","627ea14463f25dce42e73d51","bdp_trlrn","Mon Mar 13 2023 13:24:32 GMT-0400 (Eastern Daylight Time)","1325662","Trustworthy,Untrustworthy","instructions","126","243516","0.0-7.0","[{""page_index"":0,""viewing_time"":4547}]","4547","","","","","","","","","","","","","",""
"","","","","627ea14463f25dce42e73d51","bdp_trlrn","Mon Mar 13 2023 13:24:32 GMT-0400 (Eastern Daylight Time)","1325662","Trustworthy,Untrustworthy","instructions","127","735280","0.0-8.0","[{""page_index"":0,""viewing_time"":73},{""page_index"":1,""viewing_time"":123696},{""page_index"":2,""viewing_time"":87035},{""page_index"":3,""viewing_time"":75579},{""page_index"":4,""viewing_time"":47137},{""page_index"":5,""viewing_time"":17775},{""page_index"":6,""viewing_time"":110472},{""page_index"":7,""viewing_time"":29879}]","491647","","","","","","","","","","","","","",""
"","","","","627ea14463f25dce42e73d51","bdp_trlrn","Mon Mar 13 2023 13:24:32 GMT-0400 (Eastern Daylight Time)","1325662","Trustworthy,Untrustworthy","html-keyboard-response","128","762873","0.0-9.0","","27592","","<div class='header' style='text-align:left; position: absolute; top: 5%; left: 5%;'><small>Task 2 of 5</small></div><div class='instruxDiv'><p><strong>1) What is the minimum number of points you can choose to send to your partner?</strong></p><p>a) 0</p><p>b) 1</p><p>c) 5</p>","A","","","","","","","","","","",""
"","","","","627ea14463f25dce42e73d51","bdp_trlrn","Mon Mar 13 2023 13:24:32 GMT-0400 (Eastern Daylight Time)","1325662","Trustworthy,Untrustworthy","html-keyboard-response","129","773867","0.0-10.0","","10889","","<div class='header' style='text-align:left; position: absolute; top: 5%; left: 5%;'><small>Task 2 of 5</small></div><div class='instruxDiv'><p><strong>1) What is the minimum number of points you can choose to send to your partner?</strong></p><p style='color:#FF0000'>a) 0</p><p>b) 1</p><p>c) 5</p><h3 style='color:#FF0000'>Incorrect!</h3><h3 class='center-content'>The correct response is b).</h3><h3 class='center-content'>The minimum number of points you can choose to send to your partner is 1 point.</h3><p><em>Press SPACEBAR to continue</em></p></div>"," ","","","","","","","","","","",""
"","","","","627ea14463f25dce42e73d51","bdp_trlrn","Mon Mar 13 2023 13:24:32 GMT-0400 (Eastern Daylight Time)","1325662","Trustworthy,Untrustworthy","html-keyboard-response","130","778222","0.0-11.0","","4250","","<div class='header' style='text-align:left; position: absolute; top: 5%; left: 5%;'><small>Task 2 of 5</small></div><div class='instruxDiv'><p><strong>2) What is the maximum number of points you can choose to send to your partner?</strong></p><p>a) 8</p><p>b) 5</p><p>c) 3</p>","B","","","","","","","","","","",""
"","","","","627ea14463f25dce42e73d51","bdp_trlrn","Mon Mar 13 2023 13:24:32 GMT-0400 (Eastern Daylight Time)","1325662","Trustworthy,Untrustworthy","html-keyboard-response","131","782385","0.0-12.0","","4048","","<div class='header' style='text-align:left; position: absolute; top: 5%; left: 5%;'><small>Task 2 of 5</small></div><div class='instruxDiv'><p><strong>2) What is the maximum number of points you can choose to send to your partner?</strong></p><p>a) 8</p><p style='color:#00FF00'>b) 5</p><p>c) 3</p><h3 style='color:#00FF00'>Correct!</h3><h3 class='center-content'>The correct response is b).</h3><h3 class='center-content'>The maximum number of points you can choose to send to your partner is 5 points.</h3><p><em>Press SPACEBAR to continue</em></p></div>"," ","","","","","","","","","","",""
"","","","","627ea14463f25dce42e73d51","bdp_trlrn","Mon Mar 13 2023 13:24:32 GMT-0400 (Eastern Daylight Time)","1325662","Trustworthy,Untrustworthy","html-keyboard-response","132","795397","0.0-13.0","","12901","","<div class='header' style='text-align:left; position: absolute; top: 5%; left: 5%;'><small>Task 2 of 5</small></div><div class='instruxDiv'><p><strong>3) What happens to the amount of points you send to your partner?</strong></p><p>a) Nothing</p><p>b) It doubles</p><p>c) It quadruples</p>","C","","","","","","","","","","",""
"","","","","627ea14463f25dce42e73d51","bdp_trlrn","Mon Mar 13 2023 13:24:32 GMT-0400 (Eastern Daylight Time)","1325662","Trustworthy,Untrustworthy","html-keyboard-response","133","802178","0.0-14.0","","6666","","<div class='header' style='text-align:left; position: absolute; top: 5%; left: 5%;'><small>Task 2 of 5</small></div><div class='instruxDiv'><p><strong>3) What happens to the amount of points you send to your partner?</strong></p><p>a) Nothing</p><p>b) It doubles</p><p style='color:#00FF00'>c) It quadruples</p><h3 style='color:#00FF00'>Correct!</h3><h3 class='center-content'>The correct response is c).</h3><h3 class='center-content'>The amount of points you send to your partner quadruples.</h3><p><em>Press SPACEBAR to continue</em></p></div>"," ","","","","","","","","","","",""
"","","","","627ea14463f25dce42e73d51","bdp_trlrn","Mon Mar 13 2023 13:24:32 GMT-0400 (Eastern Daylight Time)","1325662","Trustworthy,Untrustworthy","html-keyboard-response","134","879735","0.0-15.0","","77444","","<div class='header' style='text-align:left; position: absolute; top: 5%; left: 5%;'><small>Task 2 of 5</small></div><div class='instruxDiv'><p><strong>4) If you decided to share 4 out of 5 points with your partner, and they decided to share half of the amount they received with you, how many points would you receive back from them on this round?</strong></p><p>a) 16</p><p>b) 0</p><p>c) 8</p>","C","","","","","","","","","","",""
"","","","","627ea14463f25dce42e73d51","bdp_trlrn","Mon Mar 13 2023 13:24:32 GMT-0400 (Eastern Daylight Time)","1325662","Trustworthy,Untrustworthy","html-keyboard-response","135","882532","0.0-16.0","","2695","","<div class='header' style='text-align:left; position: absolute; top: 5%; left: 5%;'><small>Task 2 of 5</small></div><div class='instruxDiv'><p><strong>4) If you decided to share 4 out of 5 points with your partner, and they decided to share half of the amount they received with you, how many points would you receive back from them on this round?</strong></p><p>a) 16</p><p>b) 0</p><p style='color:#00FF00'>c) 8</p><h3 style='color:#00FF00'>Correct!</h3><h3 class='center-content'>The correct response is c).</h3><h3 class='center-content'>If you shared 4 out of 5 points with your partner and they decided to share half of the amount they received with you, you would receive 8 points back (i.e. (4 x 4)/2 = 8).</h3><p><em>Press SPACEBAR to continue</em></p></div>"," ","","","","","","","","","","",""
"","","","","627ea14463f25dce42e73d51","bdp_trlrn","Mon Mar 13 2023 13:24:32 GMT-0400 (Eastern Daylight Time)","1325662","Trustworthy,Untrustworthy","html-keyboard-response","136","887640","0.0-17.0","","null","","<div class='header' style='text-align:left; position: absolute; top: 5%; left: 5%;'><small>Task 2 of 5</small></div><div class='instruxDiv'><p>Thank you for completing the quiz<p>These are the actual partners you will be interacting with in the next block:<p><div class='tc' align='center'><img class='introPic' src='trustrating_stim/white_00129_931230_fb_edt.bmp'><br><strong>Aaron</strong></div><div class='bl' align='center'><img class='introPic' src='trustrating_stim/white_mw089.bmp'><br><strong>Marcus</strong></div><div class='br' align='center'><img class='introPic' src='trustrating_stim/white_mw099.bmp'><br><strong>Jonathan</strong></div></div><p>Across <strong>66 rounds</strong> you will interact with each partner <strong>22 times</strong> (in random order).<p style='align:center; color:white'><font <em>Press SPACEBAR to continue</em></p>","null","","","","","","","","","","",""
"","","","","627ea14463f25dce42e73d51","bdp_trlrn","Mon Mar 13 2023 13:24:32 GMT-0400 (Eastern Daylight Time)","1325662","Trustworthy,Untrustworthy","instructions","137","928507","0.0-18.0","[{""page_index"":0,""viewing_time"":33739},{""page_index"":1,""viewing_time"":7125}]","40865","","","","","","","","","","","","","",""
"","","","decision","627ea14463f25dce42e73d51","bdp_trlrn","Mon Mar 13 2023 13:24:32 GMT-0400 (Eastern Daylight Time)","1325662","Trustworthy,Untrustworthy","html-keyboard-response","138","934119","0.0-19.0-1.0","","5505","","<div class='trialDiv'><img src='trustrating_stim/white_00129_931230_fb_edt.bmp'><br><font class='baseline'><strong>Aaron</strong><p>Choose number of points to send.</font><div class='respPicDiv'><img src='img/responseButtonOffersNo0L.png' class='respPic'></div></div>","3","1","Aaron","1","Shared","0.35,0.8","10","0.35","trustrating_stim/white_00129_931230_fb_edt.bmp","1","5","1"
"","","","decisionFB","627ea14463f25dce42e73d51","bdp_trlrn","Mon Mar 13 2023 13:24:32 GMT-0400 (Eastern Daylight Time)","1325662","Trustworthy,Untrustworthy","html-keyboard-response","139","934375","0.0-19.0-2.0","","null","","<div class='trialDiv'><img src='trustrating_stim/white_00129_931230_fb_edt.bmp'><br><font class='baseline'><strong>Aaron</strong><p>Choose number of points to send.</font><div class='respPicDiv'><img src='img/responseButtonOffersNo0L3.png' class='respPic'></div></div>","null","1","Aaron","1","Shared","0.35,0.8","10","0.35","trustrating_stim/white_00129_931230_fb_edt.bmp","1","2","1"
"","","","feedback","627ea14463f25dce42e73d51","bdp_trlrn","Mon Mar 13 2023 13:24:32 GMT-0400 (Eastern Daylight Time)","1325662","Trustworthy,Untrustworthy","html-keyboard-response","140","935392","0.0-19.0-3.0","","null","","<div class='trialDiv'><img src='trustrating_stim/white_00129_931230_fb_edt.bmp'><br><font class='baseline'><strong>Aaron</strong><p>Received: <strong>12</strong></font> &nbsp; &nbsp; &nbsp; &nbsp; &nbsp; &nbsp;<font class='posOutcome'>Shared back: <strong>6</strong></font></font><div class='respPicDiv'><img src='img/responseButtonOffersNo0_wht.png' class='respPic'></div></div>","null","1","Aaron","1","Shared","0.35,0.8","10","0.35","trustrating_stim/white_00129_931230_fb_edt.bmp","1","8","1"
"","","","decision","627ea14463f25dce42e73d51","bdp_trlrn","Mon Mar 13 2023 13:24:32 GMT-0400 (Eastern Daylight Time)","1325662","Trustworthy,Untrustworthy","html-keyboard-response","141","938375","0.0-19.0-1.1","","2982","","<div class='trialDiv'><img src='trustrating_stim/white_mw089.bmp'><br><font class='baseline'><strong>Marcus</strong><p>Choose number of points to send.</font><div class='respPicDiv'><img src='img/responseButtonOffersNo0L.png' class='respPic'></div></div>","4","1","Marcus","7","Shared","0.65,0.35","8","0.65","trustrating_stim/white_mw089.bmp","2","13","2"
"","","","decisionFB","627ea14463f25dce42e73d51","bdp_trlrn","Mon Mar 13 2023 13:24:32 GMT-0400 (Eastern Daylight Time)","1325662","Trustworthy,Untrustworthy","html-keyboard-response","142","938641","0.0-19.0-2.1","","null","","<div class='trialDiv'><img src='trustrating_stim/white_mw089.bmp'><br><font class='baseline'><strong>Marcus</strong><p>Choose number of points to send.</font><div class='respPicDiv'><img src='img/responseButtonOffersNo0L4.png' class='respPic'></div></div>","null","1","Marcus","7","Shared","0.65,0.35","8","0.65","trustrating_stim/white_mw089.bmp","2","9","2"
"","","","feedback","627ea14463f25dce42e73d51","bdp_trlrn","Mon Mar 13 2023 13:24:32 GMT-0400 (Eastern Daylight Time)","1325662","Trustworthy,Untrustworthy","html-keyboard-response","143","939644","0.0-19.0-3.1","","null","","<div class='trialDiv'><img src='trustrating_stim/white_mw089.bmp'><br><font class='baseline'><strong>Marcus</strong><p>Received: <strong>16</strong></font> &nbsp; &nbsp; &nbsp; &nbsp; &nbsp; &nbsp;<font class='posOutcome'>Shared back: <strong>8</strong></font></font><div class='respPicDiv'><img src='img/responseButtonOffersNo0_wht.png' class='respPic'></div></div>","null","1","Marcus","7","Shared","0.65,0.35","8","0.65","trustrating_stim/white_mw089.bmp","2","17","2"
"","","","decision","627ea14463f25dce42e73d51","bdp_trlrn","Mon Mar 13 2023 13:24:32 GMT-0400 (Eastern Daylight Time)","1325662","Trustworthy,Untrustworthy","html-keyboard-response","144","943478","0.0-19.0-1.2","","3833","","<div class='trialDiv'><img src='trustrating_stim/white_mw099.bmp'><br><font class='baseline'><strong>Jonathan</strong><p>Choose number of points to send.</font><div class='respPicDiv'><img src='img/responseButtonOffersNo0L.png' class='respPic'></div></div>","5","1","Jonathan","10","Shared","0.65,0.2","8","0.65","trustrating_stim/white_mw099.bmp","3","22","3"
"","","","decisionFB","627ea14463f25dce42e73d51","bdp_trlrn","Mon Mar 13 2023 13:24:32 GMT-0400 (Eastern Daylight Time)","1325662","Trustworthy,Untrustworthy","html-keyboard-response","145","943737","0.0-19.0-2.2","","null","","<div class='trialDiv'><img src='trustrating_stim/white_mw099.bmp'><br><font class='baseline'><strong>Jonathan</strong><p>Choose number of points to send.</font><div class='respPicDiv'><img src='img/responseButtonOffersNo0L5.png' class='respPic'></div></div>","null","1","Jonathan","10","Shared","0.65,0.2","8","0.65","trustrating_stim/white_mw099.bmp","3","17","3"
"","","","feedback","627ea14463f25dce42e73d51","bdp_trlrn","Mon Mar 13 2023 13:24:32 GMT-0400 (Eastern Daylight Time)","1325662","Trustworthy,Untrustworthy","html-keyboard-response","146","944761","0.0-19.0-3.2","","null","","<div class='trialDiv'><img src='trustrating_stim/white_mw099.bmp'><br><font class='baseline'><strong>Jonathan</strong><p>Received: <strong>20</strong></font> &nbsp; &nbsp; &nbsp; &nbsp; &nbsp; &nbsp;<font class='posOutcome'>Shared back: <strong>10</strong></font></font><div class='respPicDiv'><img src='img/responseButtonOffersNo0_wht.png' class='respPic'></div></div>","null","1","Jonathan","10","Shared","0.65,0.2","8","0.65","trustrating_stim/white_mw099.bmp","3","27","3"
"","","","decision","627ea14463f25dce42e73d51","bdp_trlrn","Mon Mar 13 2023 13:24:32 GMT-0400 (Eastern Daylight Time)","1325662","Trustworthy,Untrustworthy","html-keyboard-response","147","946434","0.0-19.0-1.3","","1672","","<div class='trialDiv'><img src='trustrating_stim/white_mw089.bmp'><br><font class='baseline'><strong>Marcus</strong><p>Choose number of points to send.</font><div class='respPicDiv'><img src='img/responseButtonOffersNo0L.png' class='respPic'></div></div>","5","2","Marcus","7","Shared","0.65,0.35","8","0.65","trustrating_stim/white_mw089.bmp","2","32","4"
"","","","decisionFB","627ea14463f25dce42e73d51","bdp_trlrn","Mon Mar 13 2023 13:24:32 GMT-0400 (Eastern Daylight Time)","1325662","Trustworthy,Untrustworthy","html-keyboard-response","148","946710","0.0-19.0-2.3","","null","","<div class='trialDiv'><img src='trustrating_stim/white_mw089.bmp'><br><font class='baseline'><strong>Marcus</strong><p>Choose number of points to send.</font><div class='respPicDiv'><img src='img/responseButtonOffersNo0L5.png' class='respPic'></div></div>","null","2","Marcus","7","Shared","0.65,0.35","8","0.65","trustrating_stim/white_mw089.bmp","2","27","4"
"","","","feedback","627ea14463f25dce42e73d51","bdp_trlrn","Mon Mar 13 2023 13:24:32 GMT-0400 (Eastern Daylight Time)","1325662","Trustworthy,Untrustworthy","html-keyboard-response","149","947715","0.0-19.0-3.3","","null","","<div class='trialDiv'><img src='trustrating_stim/white_mw089.bmp'><br><font class='baseline'><strong>Marcus</strong><p>Received: <strong>20</strong></font> &nbsp; &nbsp; &nbsp; &nbsp; &nbsp; &nbsp;<font class='posOutcome'>Shared back: <strong>10</strong></font></font><div class='respPicDiv'><img src='img/responseButtonOffersNo0_wht.png' class='respPic'></div></div>","null","2","Marcus","7","Shared","0.65,0.35","8","0.65","trustrating_stim/white_mw089.bmp","2","37","4"
"","","","decision","627ea14463f25dce42e73d51","bdp_trlrn","Mon Mar 13 2023 13:24:32 GMT-0400 (Eastern Daylight Time)","1325662","Trustworthy,Untrustworthy","html-keyboard-response","150","949772","0.0-19.0-1.4","","2057","","<div class='trialDiv'><img src='trustrating_stim/white_00129_931230_fb_edt.bmp'><br><font class='baseline'><strong>Aaron</strong><p>Choose number of points to send.</font><div class='respPicDiv'><img src='img/responseButtonOffersNo0L.png' class='respPic'></div></div>","4","2","Aaron","1","Kept","0.35,0.8","10","0.35","trustrating_stim/white_00129_931230_fb_edt.bmp","1","42","5"
"","","","decisionFB","627ea14463f25dce42e73d51","bdp_trlrn","Mon Mar 13 2023 13:24:32 GMT-0400 (Eastern Daylight Time)","1325662","Trustworthy,Untrustworthy","html-keyboard-response","151","950037","0.0-19.0-2.4","","null","","<div class='trialDiv'><img src='trustrating_stim/white_00129_931230_fb_edt.bmp'><br><font class='baseline'><strong>Aaron</strong><p>Choose number of points to send.</font><div class='respPicDiv'><img src='img/responseButtonOffersNo0L4.png' class='respPic'></div></div>","null","2","Aaron","1","Kept","0.35,0.8","10","0.35","trustrating_stim/white_00129_931230_fb_edt.bmp","1","38","5"
"","","","feedback","627ea14463f25dce42e73d51","bdp_trlrn","Mon Mar 13 2023 13:24:32 GMT-0400 (Eastern Daylight Time)","1325662","Trustworthy,Untrustworthy","html-keyboard-response","152","951046","0.0-19.0-3.4","","null","","<div class='trialDiv'><img src='trustrating_stim/white_00129_931230_fb_edt.bmp'><br><font class='baseline'><strong>Aaron</strong><p>Received: <strong>16</strong></font> &nbsp; &nbsp; &nbsp; &nbsp; &nbsp; &nbsp;<font class='negOutcome'>Shared back: <strong>0</strong></font></font><div class='respPicDiv'><img src='img/responseButtonOffersNo0_wht.png' class='respPic'></div></div>","null","2","Aaron","1","Kept","0.35,0.8","10","0.35","trustrating_stim/white_00129_931230_fb_edt.bmp","1","38","5"
"","","","decision","627ea14463f25dce42e73d51","bdp_trlrn","Mon Mar 13 2023 13:24:32 GMT-0400 (Eastern Daylight Time)","1325662","Trustworthy,Untrustworthy","html-keyboard-response","153","953640","0.0-19.0-1.5","","2593","","<div class='trialDiv'><img src='trustrating_stim/white_mw099.bmp'><br><font class='baseline'><strong>Jonathan</strong><p>Choose number of points to send.</font><div class='respPicDiv'><img src='img/responseButtonOffersNo0L.png' class='respPic'></div></div>","5","2","Jonathan","10","Shared","0.65,0.2","8","0.65","trustrating_stim/white_mw099.bmp","3","43","6"
"","","","decisionFB","627ea14463f25dce42e73d51","bdp_trlrn","Mon Mar 13 2023 13:24:32 GMT-0400 (Eastern Daylight Time)","1325662","Trustworthy,Untrustworthy","html-keyboard-response","154","953894","0.0-19.0-2.5","","null","","<div class='trialDiv'><img src='trustrating_stim/white_mw099.bmp'><br><font class='baseline'><strong>Jonathan</strong><p>Choose number of points to send.</font><div class='respPicDiv'><img src='img/responseButtonOffersNo0L5.png' class='respPic'></div></div>","null","2","Jonathan","10","Shared","0.65,0.2","8","0.65","trustrating_stim/white_mw099.bmp","3","38","6"
"","","","feedback","627ea14463f25dce42e73d51","bdp_trlrn","Mon Mar 13 2023 13:24:32 GMT-0400 (Eastern Daylight Time)","1325662","Trustworthy,Untrustworthy","html-keyboard-response","155","954920","0.0-19.0-3.5","","null","","<div class='trialDiv'><img src='trustrating_stim/white_mw099.bmp'><br><font class='baseline'><strong>Jonathan</strong><p>Received: <strong>20</strong></font> &nbsp; &nbsp; &nbsp; &nbsp; &nbsp; &nbsp;<font class='posOutcome'>Shared back: <strong>10</strong></font></font><div class='respPicDiv'><img src='img/responseButtonOffersNo0_wht.png' class='respPic'></div></div>","null","2","Jonathan","10","Shared","0.65,0.2","8","0.65","trustrating_stim/white_mw099.bmp","3","48","6"
"","","","decision","627ea14463f25dce42e73d51","bdp_trlrn","Mon Mar 13 2023 13:24:32 GMT-0400 (Eastern Daylight Time)","1325662","Trustworthy,Untrustworthy","html-keyboard-response","156","955366","0.0-19.0-1.6","","446","","<div class='trialDiv'><img src='trustrating_stim/white_00129_931230_fb_edt.bmp'><br><font class='baseline'><strong>Aaron</strong><p>Choose number of points to send.</font><div class='respPicDiv'><img src='img/responseButtonOffersNo0L.png' class='respPic'></div></div>","5","3","Aaron","1","Kept","0.35,0.8","10","0.35","trustrating_stim/white_00129_931230_fb_edt.bmp","1","53","7"
"","","","decisionFB","627ea14463f25dce42e73d51","bdp_trlrn","Mon Mar 13 2023 13:24:32 GMT-0400 (Eastern Daylight Time)","1325662","Trustworthy,Untrustworthy","html-keyboard-response","157","955622","0.0-19.0-2.6","","null","","<div class='trialDiv'><img src='trustrating_stim/white_00129_931230_fb_edt.bmp'><br><font class='baseline'><strong>Aaron</strong><p>Choose number of points to send.</font><div class='respPicDiv'><img src='img/responseButtonOffersNo0L5.png' class='respPic'></div></div>","null","3","Aaron","1","Kept","0.35,0.8","10","0.35","trustrating_stim/white_00129_931230_fb_edt.bmp","1","48","7"
"","","","feedback","627ea14463f25dce42e73d51","bdp_trlrn","Mon Mar 13 2023 13:24:32 GMT-0400 (Eastern Daylight Time)","1325662","Trustworthy,Untrustworthy","html-keyboard-response","158","956626","0.0-19.0-3.6","","null","","<div class='trialDiv'><img src='trustrating_stim/white_00129_931230_fb_edt.bmp'><br><font class='baseline'><strong>Aaron</strong><p>Received: <strong>20</strong></font> &nbsp; &nbsp; &nbsp; &nbsp; &nbsp; &nbsp;<font class='negOutcome'>Shared back: <strong>0</strong></font></font><div class='respPicDiv'><img src='img/responseButtonOffersNo0_wht.png' class='respPic'></div></div>","null","3","Aaron","1","Kept","0.35,0.8","10","0.35","trustrating_stim/white_00129_931230_fb_edt.bmp","1","48","7"
"","","","decision","627ea14463f25dce42e73d51","bdp_trlrn","Mon Mar 13 2023 13:24:32 GMT-0400 (Eastern Daylight Time)","1325662","Trustworthy,Untrustworthy","html-keyboard-response","159","957265","0.0-19.0-1.7","","637","","<div class='trialDiv'><img src='trustrating_stim/white_mw099.bmp'><br><font class='baseline'><strong>Jonathan</strong><p>Choose number of points to send.</font><div class='respPicDiv'><img src='img/responseButtonOffersNo0L.png' class='respPic'></div></div>","3","3","Jonathan","10","Shared","0.65,0.2","8","0.65","trustrating_stim/white_mw099.bmp","3","53","8"
"","","","decisionFB","627ea14463f25dce42e73d51","bdp_trlrn","Mon Mar 13 2023 13:24:32 GMT-0400 (Eastern Daylight Time)","1325662","Trustworthy,Untrustworthy","html-keyboard-response","160","957527","0.0-19.0-2.7","","null","","<div class='trialDiv'><img src='trustrating_stim/white_mw099.bmp'><br><font class='baseline'><strong>Jonathan</strong><p>Choose number of points to send.</font><div class='respPicDiv'><img src='img/responseButtonOffersNo0L3.png' class='respPic'></div></div>","null","3","Jonathan","10","Shared","0.65,0.2","8","0.65","trustrating_stim/white_mw099.bmp","3","50","8"
"","","","feedback","627ea14463f25dce42e73d51","bdp_trlrn","Mon Mar 13 2023 13:24:32 GMT-0400 (Eastern Daylight Time)","1325662","Trustworthy,Untrustworthy","html-keyboard-response","161","958536","0.0-19.0-3.7","","null","","<div class='trialDiv'><img src='trustrating_stim/white_mw099.bmp'><br><font class='baseline'><strong>Jonathan</strong><p>Received: <strong>12</strong></font> &nbsp; &nbsp; &nbsp; &nbsp; &nbsp; &nbsp;<font class='posOutcome'>Shared back: <strong>6</strong></font></font><div class='respPicDiv'><img src='img/responseButtonOffersNo0_wht.png' class='respPic'></div></div>","null","3","Jonathan","10","Shared","0.65,0.2","8","0.65","trustrating_stim/white_mw099.bmp","3","56","8"
"","","","decision","627ea14463f25dce42e73d51","bdp_trlrn","Mon Mar 13 2023 13:24:32 GMT-0400 (Eastern Daylight Time)","1325662","Trustworthy,Untrustworthy","html-keyboard-response","162","959814","0.0-19.0-1.8","","1275","","<div class='trialDiv'><img src='trustrating_stim/white_mw089.bmp'><br><font class='baseline'><strong>Marcus</strong><p>Choose number of points to send.</font><div class='respPicDiv'><img src='img/responseButtonOffersNo0L.png' class='respPic'></div></div>","4","3","Marcus","7","Kept","0.65,0.35","8","0.65","trustrating_stim/white_mw089.bmp","2","61","9"
"","","","decisionFB","627ea14463f25dce42e73d51","bdp_trlrn","Mon Mar 13 2023 13:24:32 GMT-0400 (Eastern Daylight Time)","1325662","Trustworthy,Untrustworthy","html-keyboard-response","163","960065","0.0-19.0-2.8","","null","","<div class='trialDiv'><img src='trustrating_stim/white_mw089.bmp'><br><font class='baseline'><strong>Marcus</strong><p>Choose number of points to send.</font><div class='respPicDiv'><img src='img/responseButtonOffersNo0L4.png' class='respPic'></div></div>","null","3","Marcus","7","Kept","0.65,0.35","8","0.65","trustrating_stim/white_mw089.bmp","2","57","9"
"","","","feedback","627ea14463f25dce42e73d51","bdp_trlrn","Mon Mar 13 2023 13:24:32 GMT-0400 (Eastern Daylight Time)","1325662","Trustworthy,Untrustworthy","html-keyboard-response","164","961067","0.0-19.0-3.8","","null","","<div class='trialDiv'><img src='trustrating_stim/white_mw089.bmp'><br><font class='baseline'><strong>Marcus</strong><p>Received: <strong>16</strong></font> &nbsp; &nbsp; &nbsp; &nbsp; &nbsp; &nbsp;<font class='negOutcome'>Shared back: <strong>0</strong></font></font><div class='respPicDiv'><img src='img/responseButtonOffersNo0_wht.png' class='respPic'></div></div>","null","3","Marcus","7","Kept","0.65,0.35","8","0.65","trustrating_stim/white_mw089.bmp","2","57","9"
"","","","decision","627ea14463f25dce42e73d51","bdp_trlrn","Mon Mar 13 2023 13:24:32 GMT-0400 (Eastern Daylight Time)","1325662","Trustworthy,Untrustworthy","html-keyboard-response","165","961493","0.0-19.0-1.9","","425","","<div class='trialDiv'><img src='trustrating_stim/white_mw099.bmp'><br><font class='baseline'><strong>Jonathan</strong><p>Choose number of points to send.</font><div class='respPicDiv'><img src='img/responseButtonOffersNo0L.png' class='respPic'></div></div>","5","4","Jonathan","10","Shared","0.65,0.2","8","0.65","trustrating_stim/white_mw099.bmp","3","62","10"
"","","","decisionFB","627ea14463f25dce42e73d51","bdp_trlrn","Mon Mar 13 2023 13:24:32 GMT-0400 (Eastern Daylight Time)","1325662","Trustworthy,Untrustworthy","html-keyboard-response","166","961760","0.0-19.0-2.9","","null","","<div class='trialDiv'><img src='trustrating_stim/white_mw099.bmp'><br><font class='baseline'><strong>Jonathan</strong><p>Choose number of points to send.</font><div class='respPicDiv'><img src='img/responseButtonOffersNo0L5.png' class='respPic'></div></div>","null","4","Jonathan","10","Shared","0.65,0.2","8","0.65","trustrating_stim/white_mw099.bmp","3","57","10"
"","","","feedback","627ea14463f25dce42e73d51","bdp_trlrn","Mon Mar 13 2023 13:24:32 GMT-0400 (Eastern Daylight Time)","1325662","Trustworthy,Untrustworthy","html-keyboard-response","167","962769","0.0-19.0-3.9","","null","","<div class='trialDiv'><img src='trustrating_stim/white_mw099.bmp'><br><font class='baseline'><strong>Jonathan</strong><p>Received: <strong>20</strong></font> &nbsp; &nbsp; &nbsp; &nbsp; &nbsp; &nbsp;<font class='posOutcome'>Shared back: <strong>10</strong></font></font><div class='respPicDiv'><img src='img/responseButtonOffersNo0_wht.png' class='respPic'></div></div>","null","4","Jonathan","10","Shared","0.65,0.2","8","0.65","trustrating_stim/white_mw099.bmp","3","67","10"
"","","","decision","627ea14463f25dce42e73d51","bdp_trlrn","Mon Mar 13 2023 13:24:32 GMT-0400 (Eastern Daylight Time)","1325662","Trustworthy,Untrustworthy","html-keyboard-response","168","963298","0.0-19.0-1.10","","528","","<div class='trialDiv'><img src='trustrating_stim/white_00129_931230_fb_edt.bmp'><br><font class='baseline'><strong>Aaron</strong><p>Choose number of points to send.</font><div class='respPicDiv'><img src='img/responseButtonOffersNo0L.png' class='respPic'></div></div>","5","4","Aaron","1","Kept","0.35,0.8","10","0.35","trustrating_stim/white_00129_931230_fb_edt.bmp","1","72","11"
"","","","decisionFB","627ea14463f25dce42e73d51","bdp_trlrn","Mon Mar 13 2023 13:24:32 GMT-0400 (Eastern Daylight Time)","1325662","Trustworthy,Untrustworthy","html-keyboard-response","169","963561","0.0-19.0-2.10","","null","","<div class='trialDiv'><img src='trustrating_stim/white_00129_931230_fb_edt.bmp'><br><font class='baseline'><strong>Aaron</strong><p>Choose number of points to send.</font><div class='respPicDiv'><img src='img/responseButtonOffersNo0L5.png' class='respPic'></div></div>","null","4","Aaron","1","Kept","0.35,0.8","10","0.35","trustrating_stim/white_00129_931230_fb_edt.bmp","1","67","11"
"","","","feedback","627ea14463f25dce42e73d51","bdp_trlrn","Mon Mar 13 2023 13:24:32 GMT-0400 (Eastern Daylight Time)","1325662","Trustworthy,Untrustworthy","html-keyboard-response","170","964578","0.0-19.0-3.10","","null","","<div class='trialDiv'><img src='trustrating_stim/white_00129_931230_fb_edt.bmp'><br><font class='baseline'><strong>Aaron</strong><p>Received: <strong>20</strong></font> &nbsp; &nbsp; &nbsp; &nbsp; &nbsp; &nbsp;<font class='negOutcome'>Shared back: <strong>0</strong></font></font><div class='respPicDiv'><img src='img/responseButtonOffersNo0_wht.png' class='respPic'></div></div>","null","4","Aaron","1","Kept","0.35,0.8","10","0.35","trustrating_stim/white_00129_931230_fb_edt.bmp","1","67","11"
"","","","decision","627ea14463f25dce42e73d51","bdp_trlrn","Mon Mar 13 2023 13:24:32 GMT-0400 (Eastern Daylight Time)","1325662","Trustworthy,Untrustworthy","html-keyboard-response","171","964962","0.0-19.0-1.11","","383","","<div class='trialDiv'><img src='trustrating_stim/white_mw089.bmp'><br><font class='baseline'><strong>Marcus</strong><p>Choose number of points to send.</font><div class='respPicDiv'><img src='img/responseButtonOffersNo0L.png' class='respPic'></div></div>","5","4","Marcus","7","Kept","0.65,0.35","8","0.65","trustrating_stim/white_mw089.bmp","2","72","12"
"","","","decisionFB","627ea14463f25dce42e73d51","bdp_trlrn","Mon Mar 13 2023 13:24:32 GMT-0400 (Eastern Daylight Time)","1325662","Trustworthy,Untrustworthy","html-keyboard-response","172","965218","0.0-19.0-2.11","","null","","<div class='trialDiv'><img src='trustrating_stim/white_mw089.bmp'><br><font class='baseline'><strong>Marcus</strong><p>Choose number of points to send.</font><div class='respPicDiv'><img src='img/responseButtonOffersNo0L5.png' class='respPic'></div></div>","null","4","Marcus","7","Kept","0.65,0.35","8","0.65","trustrating_stim/white_mw089.bmp","2","67","12"
"","","","feedback","627ea14463f25dce42e73d51","bdp_trlrn","Mon Mar 13 2023 13:24:32 GMT-0400 (Eastern Daylight Time)","1325662","Trustworthy,Untrustworthy","html-keyboard-response","173","966219","0.0-19.0-3.11","","null","","<div class='trialDiv'><img src='trustrating_stim/white_mw089.bmp'><br><font class='baseline'><strong>Marcus</strong><p>Received: <strong>20</strong></font> &nbsp; &nbsp; &nbsp; &nbsp; &nbsp; &nbsp;<font class='negOutcome'>Shared back: <strong>0</strong></font></font><div class='respPicDiv'><img src='img/responseButtonOffersNo0_wht.png' class='respPic'></div></div>","null","4","Marcus","7","Kept","0.65,0.35","8","0.65","trustrating_stim/white_mw089.bmp","2","67","12"
"","","","decision","627ea14463f25dce42e73d51","bdp_trlrn","Mon Mar 13 2023 13:24:32 GMT-0400 (Eastern Daylight Time)","1325662","Trustworthy,Untrustworthy","html-keyboard-response","174","967331","0.0-19.0-1.12","","1109","","<div class='trialDiv'><img src='trustrating_stim/white_mw099.bmp'><br><font class='baseline'><strong>Jonathan</strong><p>Choose number of points to send.</font><div class='respPicDiv'><img src='img/responseButtonOffersNo0L.png' class='respPic'></div></div>","2","5","Jonathan","10","Shared","0.65,0.2","8","0.65","trustrating_stim/white_mw099.bmp","3","72","13"
"","","","decisionFB","627ea14463f25dce42e73d51","bdp_trlrn","Mon Mar 13 2023 13:24:32 GMT-0400 (Eastern Daylight Time)","1325662","Trustworthy,Untrustworthy","html-keyboard-response","175","967587","0.0-19.0-2.12","","null","","<div class='trialDiv'><img src='trustrating_stim/white_mw099.bmp'><br><font class='baseline'><strong>Jonathan</strong><p>Choose number of points to send.</font><div class='respPicDiv'><img src='img/responseButtonOffersNo0L2.png' class='respPic'></div></div>","null","5","Jonathan","10","Shared","0.65,0.2","8","0.65","trustrating_stim/white_mw099.bmp","3","70","13"
"","","","feedback","627ea14463f25dce42e73d51","bdp_trlrn","Mon Mar 13 2023 13:24:32 GMT-0400 (Eastern Daylight Time)","1325662","Trustworthy,Untrustworthy","html-keyboard-response","176","968591","0.0-19.0-3.12","","null","","<div class='trialDiv'><img src='trustrating_stim/white_mw099.bmp'><br><font class='baseline'><strong>Jonathan</strong><p>Received: <strong>8</strong></font> &nbsp; &nbsp; &nbsp; &nbsp; &nbsp; &nbsp;<font class='posOutcome'>Shared back: <strong>4</strong></font></font><div class='respPicDiv'><img src='img/responseButtonOffersNo0_wht.png' class='respPic'></div></div>","null","5","Jonathan","10","Shared","0.65,0.2","8","0.65","trustrating_stim/white_mw099.bmp","3","74","13"
"","","","decision","627ea14463f25dce42e73d51","bdp_trlrn","Mon Mar 13 2023 13:24:32 GMT-0400 (Eastern Daylight Time)","1325662","Trustworthy,Untrustworthy","html-keyboard-response","177","973706","0.0-19.0-1.13","","5113","","<div class='trialDiv'><img src='trustrating_stim/white_mw089.bmp'><br><font class='baseline'><strong>Marcus</strong><p>Choose number of points to send.</font><div class='respPicDiv'><img src='img/responseButtonOffersNo0L.png' class='respPic'></div></div>","5","5","Marcus","7","Kept","0.65,0.35","8","0.65","trustrating_stim/white_mw089.bmp","2","79","14"
"","","","decisionFB","627ea14463f25dce42e73d51","bdp_trlrn","Mon Mar 13 2023 13:24:32 GMT-0400 (Eastern Daylight Time)","1325662","Trustworthy,Untrustworthy","html-keyboard-response","178","973972","0.0-19.0-2.13","","null","","<div class='trialDiv'><img src='trustrating_stim/white_mw089.bmp'><br><font class='baseline'><strong>Marcus</strong><p>Choose number of points to send.</font><div class='respPicDiv'><img src='img/responseButtonOffersNo0L5.png' class='respPic'></div></div>","null","5","Marcus","7","Kept","0.65,0.35","8","0.65","trustrating_stim/white_mw089.bmp","2","74","14"
"","","","feedback","627ea14463f25dce42e73d51","bdp_trlrn","Mon Mar 13 2023 13:24:32 GMT-0400 (Eastern Daylight Time)","1325662","Trustworthy,Untrustworthy","html-keyboard-response","179","974974","0.0-19.0-3.13","","null","","<div class='trialDiv'><img src='trustrating_stim/white_mw089.bmp'><br><font class='baseline'><strong>Marcus</strong><p>Received: <strong>20</strong></font> &nbsp; &nbsp; &nbsp; &nbsp; &nbsp; &nbsp;<font class='negOutcome'>Shared back: <strong>0</strong></font></font><div class='respPicDiv'><img src='img/responseButtonOffersNo0_wht.png' class='respPic'></div></div>","null","5","Marcus","7","Kept","0.65,0.35","8","0.65","trustrating_stim/white_mw089.bmp","2","74","14"
"","","","decision","627ea14463f25dce42e73d51","bdp_trlrn","Mon Mar 13 2023 13:24:32 GMT-0400 (Eastern Daylight Time)","1325662","Trustworthy,Untrustworthy","html-keyboard-response","180","976116","0.0-19.0-1.14","","1141","","<div class='trialDiv'><img src='trustrating_stim/white_00129_931230_fb_edt.bmp'><br><font class='baseline'><strong>Aaron</strong><p>Choose number of points to send.</font><div class='respPicDiv'><img src='img/responseButtonOffersNo0L.png' class='respPic'></div></div>","5","5","Aaron","1","Kept","0.35,0.8","10","0.35","trustrating_stim/white_00129_931230_fb_edt.bmp","1","79","15"
"","","","decisionFB","627ea14463f25dce42e73d51","bdp_trlrn","Mon Mar 13 2023 13:24:32 GMT-0400 (Eastern Daylight Time)","1325662","Trustworthy,Untrustworthy","html-keyboard-response","181","976369","0.0-19.0-2.14","","null","","<div class='trialDiv'><img src='trustrating_stim/white_00129_931230_fb_edt.bmp'><br><font class='baseline'><strong>Aaron</strong><p>Choose number of points to send.</font><div class='respPicDiv'><img src='img/responseButtonOffersNo0L5.png' class='respPic'></div></div>","null","5","Aaron","1","Kept","0.35,0.8","10","0.35","trustrating_stim/white_00129_931230_fb_edt.bmp","1","74","15"
"","","","feedback","627ea14463f25dce42e73d51","bdp_trlrn","Mon Mar 13 2023 13:24:32 GMT-0400 (Eastern Daylight Time)","1325662","Trustworthy,Untrustworthy","html-keyboard-response","182","977381","0.0-19.0-3.14","","null","","<div class='trialDiv'><img src='trustrating_stim/white_00129_931230_fb_edt.bmp'><br><font class='baseline'><strong>Aaron</strong><p>Received: <strong>20</strong></font> &nbsp; &nbsp; &nbsp; &nbsp; &nbsp; &nbsp;<font class='negOutcome'>Shared back: <strong>0</strong></font></font><div class='respPicDiv'><img src='img/responseButtonOffersNo0_wht.png' class='respPic'></div></div>","null","5","Aaron","1","Kept","0.35,0.8","10","0.35","trustrating_stim/white_00129_931230_fb_edt.bmp","1","74","15"
"","","","decision","627ea14463f25dce42e73d51","bdp_trlrn","Mon Mar 13 2023 13:24:32 GMT-0400 (Eastern Daylight Time)","1325662","Trustworthy,Untrustworthy","html-keyboard-response","183","979584","0.0-19.0-1.15","","2201","","<div class='trialDiv'><img src='trustrating_stim/white_mw089.bmp'><br><font class='baseline'><strong>Marcus</strong><p>Choose number of points to send.</font><div class='respPicDiv'><img src='img/responseButtonOffersNo0L.png' class='respPic'></div></div>","2","6","Marcus","7","Shared","0.65,0.35","8","0.65","trustrating_stim/white_mw089.bmp","2","79","16"
"","","","decisionFB","627ea14463f25dce42e73d51","bdp_trlrn","Mon Mar 13 2023 13:24:32 GMT-0400 (Eastern Daylight Time)","1325662","Trustworthy,Untrustworthy","html-keyboard-response","184","979845","0.0-19.0-2.15","","null","","<div class='trialDiv'><img src='trustrating_stim/white_mw089.bmp'><br><font class='baseline'><strong>Marcus</strong><p>Choose number of points to send.</font><div class='respPicDiv'><img src='img/responseButtonOffersNo0L2.png' class='respPic'></div></div>","null","6","Marcus","7","Shared","0.65,0.35","8","0.65","trustrating_stim/white_mw089.bmp","2","77","16"
"","","","feedback","627ea14463f25dce42e73d51","bdp_trlrn","Mon Mar 13 2023 13:24:32 GMT-0400 (Eastern Daylight Time)","1325662","Trustworthy,Untrustworthy","html-keyboard-response","185","980860","0.0-19.0-3.15","","null","","<div class='trialDiv'><img src='trustrating_stim/white_mw089.bmp'><br><font class='baseline'><strong>Marcus</strong><p>Received: <strong>8</strong></font> &nbsp; &nbsp; &nbsp; &nbsp; &nbsp; &nbsp;<font class='posOutcome'>Shared back: <strong>4</strong></font></font><div class='respPicDiv'><img src='img/responseButtonOffersNo0_wht.png' class='respPic'></div></div>","null","6","Marcus","7","Shared","0.65,0.35","8","0.65","trustrating_stim/white_mw089.bmp","2","81","16"
"","","","decision","627ea14463f25dce42e73d51","bdp_trlrn","Mon Mar 13 2023 13:24:32 GMT-0400 (Eastern Daylight Time)","1325662","Trustworthy,Untrustworthy","html-keyboard-response","186","982072","0.0-19.0-1.16","","1211","","<div class='trialDiv'><img src='trustrating_stim/white_00129_931230_fb_edt.bmp'><br><font class='baseline'><strong>Aaron</strong><p>Choose number of points to send.</font><div class='respPicDiv'><img src='img/responseButtonOffersNo0L.png' class='respPic'></div></div>","3","6","Aaron","1","Kept","0.35,0.8","10","0.35","trustrating_stim/white_00129_931230_fb_edt.bmp","1","86","17"
"","","","decisionFB","627ea14463f25dce42e73d51","bdp_trlrn","Mon Mar 13 2023 13:24:32 GMT-0400 (Eastern Daylight Time)","1325662","Trustworthy,Untrustworthy","html-keyboard-response","187","982335","0.0-19.0-2.16","","null","","<div class='trialDiv'><img src='trustrating_stim/white_00129_931230_fb_edt.bmp'><br><font class='baseline'><strong>Aaron</strong><p>Choose number of points to send.</font><div class='respPicDiv'><img src='img/responseButtonOffersNo0L3.png' class='respPic'></div></div>","null","6","Aaron","1","Kept","0.35,0.8","10","0.35","trustrating_stim/white_00129_931230_fb_edt.bmp","1","83","17"
"","","","feedback","627ea14463f25dce42e73d51","bdp_trlrn","Mon Mar 13 2023 13:24:32 GMT-0400 (Eastern Daylight Time)","1325662","Trustworthy,Untrustworthy","html-keyboard-response","188","983338","0.0-19.0-3.16","","null","","<div class='trialDiv'><img src='trustrating_stim/white_00129_931230_fb_edt.bmp'><br><font class='baseline'><strong>Aaron</strong><p>Received: <strong>12</strong></font> &nbsp; &nbsp; &nbsp; &nbsp; &nbsp; &nbsp;<font class='negOutcome'>Shared back: <strong>0</strong></font></font><div class='respPicDiv'><img src='img/responseButtonOffersNo0_wht.png' class='respPic'></div></div>","null","6","Aaron","1","Kept","0.35,0.8","10","0.35","trustrating_stim/white_00129_931230_fb_edt.bmp","1","83","17"
"","","","decision","627ea14463f25dce42e73d51","bdp_trlrn","Mon Mar 13 2023 13:24:32 GMT-0400 (Eastern Daylight Time)","1325662","Trustworthy,Untrustworthy","html-keyboard-response","189","985694","0.0-19.0-1.17","","2353","","<div class='trialDiv'><img src='trustrating_stim/white_mw099.bmp'><br><font class='baseline'><strong>Jonathan</strong><p>Choose number of points to send.</font><div class='respPicDiv'><img src='img/responseButtonOffersNo0L.png' class='respPic'></div></div>","4","6","Jonathan","10","Shared","0.65,0.2","8","0.65","trustrating_stim/white_mw099.bmp","3","88","18"
"","","","decisionFB","627ea14463f25dce42e73d51","bdp_trlrn","Mon Mar 13 2023 13:24:32 GMT-0400 (Eastern Daylight Time)","1325662","Trustworthy,Untrustworthy","html-keyboard-response","190","985949","0.0-19.0-2.17","","null","","<div class='trialDiv'><img src='trustrating_stim/white_mw099.bmp'><br><font class='baseline'><strong>Jonathan</strong><p>Choose number of points to send.</font><div class='respPicDiv'><img src='img/responseButtonOffersNo0L4.png' class='respPic'></div></div>","null","6","Jonathan","10","Shared","0.65,0.2","8","0.65","trustrating_stim/white_mw099.bmp","3","84","18"
"","","","feedback","627ea14463f25dce42e73d51","bdp_trlrn","Mon Mar 13 2023 13:24:32 GMT-0400 (Eastern Daylight Time)","1325662","Trustworthy,Untrustworthy","html-keyboard-response","191","986951","0.0-19.0-3.17","","null","","<div class='trialDiv'><img src='trustrating_stim/white_mw099.bmp'><br><font class='baseline'><strong>Jonathan</strong><p>Received: <strong>16</strong></font> &nbsp; &nbsp; &nbsp; &nbsp; &nbsp; &nbsp;<font class='posOutcome'>Shared back: <strong>8</strong></font></font><div class='respPicDiv'><img src='img/responseButtonOffersNo0_wht.png' class='respPic'></div></div>","null","6","Jonathan","10","Shared","0.65,0.2","8","0.65","trustrating_stim/white_mw099.bmp","3","92","18"
"","","","decision","627ea14463f25dce42e73d51","bdp_trlrn","Mon Mar 13 2023 13:24:32 GMT-0400 (Eastern Daylight Time)","1325662","Trustworthy,Untrustworthy","html-keyboard-response","192","988553","0.0-19.0-1.18","","1600","","<div class='trialDiv'><img src='trustrating_stim/white_mw089.bmp'><br><font class='baseline'><strong>Marcus</strong><p>Choose number of points to send.</font><div class='respPicDiv'><img src='img/responseButtonOffersNo0L.png' class='respPic'></div></div>","3","7","Marcus","7","Shared","0.65,0.35","8","0.65","trustrating_stim/white_mw089.bmp","2","97","19"
"","","","decisionFB","627ea14463f25dce42e73d51","bdp_trlrn","Mon Mar 13 2023 13:24:32 GMT-0400 (Eastern Daylight Time)","1325662","Trustworthy,Untrustworthy","html-keyboard-response","193","988814","0.0-19.0-2.18","","null","","<div class='trialDiv'><img src='trustrating_stim/white_mw089.bmp'><br><font class='baseline'><strong>Marcus</strong><p>Choose number of points to send.</font><div class='respPicDiv'><img src='img/responseButtonOffersNo0L3.png' class='respPic'></div></div>","null","7","Marcus","7","Shared","0.65,0.35","8","0.65","trustrating_stim/white_mw089.bmp","2","94","19"
"","","","feedback","627ea14463f25dce42e73d51","bdp_trlrn","Mon Mar 13 2023 13:24:32 GMT-0400 (Eastern Daylight Time)","1325662","Trustworthy,Untrustworthy","html-keyboard-response","194","989816","0.0-19.0-3.18","","null","","<div class='trialDiv'><img src='trustrating_stim/white_mw089.bmp'><br><font class='baseline'><strong>Marcus</strong><p>Received: <strong>12</strong></font> &nbsp; &nbsp; &nbsp; &nbsp; &nbsp; &nbsp;<font class='posOutcome'>Shared back: <strong>6</strong></font></font><div class='respPicDiv'><img src='img/responseButtonOffersNo0_wht.png' class='respPic'></div></div>","null","7","Marcus","7","Shared","0.65,0.35","8","0.65","trustrating_stim/white_mw089.bmp","2","100","19"
"","","","decision","627ea14463f25dce42e73d51","bdp_trlrn","Mon Mar 13 2023 13:24:32 GMT-0400 (Eastern Daylight Time)","1325662","Trustworthy,Untrustworthy","html-keyboard-response","195","991220","0.0-19.0-1.19","","1403","","<div class='trialDiv'><img src='trustrating_stim/white_00129_931230_fb_edt.bmp'><br><font class='baseline'><strong>Aaron</strong><p>Choose number of points to send.</font><div class='respPicDiv'><img src='img/responseButtonOffersNo0L.png' class='respPic'></div></div>","4","7","Aaron","1","Kept","0.35,0.8","10","0.35","trustrating_stim/white_00129_931230_fb_edt.bmp","1","105","20"
"","","","decisionFB","627ea14463f25dce42e73d51","bdp_trlrn","Mon Mar 13 2023 13:24:32 GMT-0400 (Eastern Daylight Time)","1325662","Trustworthy,Untrustworthy","html-keyboard-response","196","991473","0.0-19.0-2.19","","null","","<div class='trialDiv'><img src='trustrating_stim/white_00129_931230_fb_edt.bmp'><br><font class='baseline'><strong>Aaron</strong><p>Choose number of points to send.</font><div class='respPicDiv'><img src='img/responseButtonOffersNo0L4.png' class='respPic'></div></div>","null","7","Aaron","1","Kept","0.35,0.8","10","0.35","trustrating_stim/white_00129_931230_fb_edt.bmp","1","101","20"
"","","","feedback","627ea14463f25dce42e73d51","bdp_trlrn","Mon Mar 13 2023 13:24:32 GMT-0400 (Eastern Daylight Time)","1325662","Trustworthy,Untrustworthy","html-keyboard-response","197","992486","0.0-19.0-3.19","","null","","<div class='trialDiv'><img src='trustrating_stim/white_00129_931230_fb_edt.bmp'><br><font class='baseline'><strong>Aaron</strong><p>Received: <strong>16</strong></font> &nbsp; &nbsp; &nbsp; &nbsp; &nbsp; &nbsp;<font class='negOutcome'>Shared back: <strong>0</strong></font></font><div class='respPicDiv'><img src='img/responseButtonOffersNo0_wht.png' class='respPic'></div></div>","null","7","Aaron","1","Kept","0.35,0.8","10","0.35","trustrating_stim/white_00129_931230_fb_edt.bmp","1","101","20"
"","","","decision","627ea14463f25dce42e73d51","bdp_trlrn","Mon Mar 13 2023 13:24:32 GMT-0400 (Eastern Daylight Time)","1325662","Trustworthy,Untrustworthy","html-keyboard-response","198","993660","0.0-19.0-1.20","","1172","","<div class='trialDiv'><img src='trustrating_stim/white_mw099.bmp'><br><font class='baseline'><strong>Jonathan</strong><p>Choose number of points to send.</font><div class='respPicDiv'><img src='img/responseButtonOffersNo0L.png' class='respPic'></div></div>","5","7","Jonathan","10","Shared","0.65,0.2","8","0.65","trustrating_stim/white_mw099.bmp","3","106","21"
"","","","decisionFB","627ea14463f25dce42e73d51","bdp_trlrn","Mon Mar 13 2023 13:24:32 GMT-0400 (Eastern Daylight Time)","1325662","Trustworthy,Untrustworthy","html-keyboard-response","199","993922","0.0-19.0-2.20","","null","","<div class='trialDiv'><img src='trustrating_stim/white_mw099.bmp'><br><font class='baseline'><strong>Jonathan</strong><p>Choose number of points to send.</font><div class='respPicDiv'><img src='img/responseButtonOffersNo0L5.png' class='respPic'></div></div>","null","7","Jonathan","10","Shared","0.65,0.2","8","0.65","trustrating_stim/white_mw099.bmp","3","101","21"
"","","","feedback","627ea14463f25dce42e73d51","bdp_trlrn","Mon Mar 13 2023 13:24:32 GMT-0400 (Eastern Daylight Time)","1325662","Trustworthy,Untrustworthy","html-keyboard-response","200","994933","0.0-19.0-3.20","","null","","<div class='trialDiv'><img src='trustrating_stim/white_mw099.bmp'><br><font class='baseline'><strong>Jonathan</strong><p>Received: <strong>20</strong></font> &nbsp; &nbsp; &nbsp; &nbsp; &nbsp; &nbsp;<font class='posOutcome'>Shared back: <strong>10</strong></font></font><div class='respPicDiv'><img src='img/responseButtonOffersNo0_wht.png' class='respPic'></div></div>","null","7","Jonathan","10","Shared","0.65,0.2","8","0.65","trustrating_stim/white_mw099.bmp","3","111","21"
"","","","decision","627ea14463f25dce42e73d51","bdp_trlrn","Mon Mar 13 2023 13:24:32 GMT-0400 (Eastern Daylight Time)","1325662","Trustworthy,Untrustworthy","html-keyboard-response","201","996078","0.0-19.0-1.21","","1145","","<div class='trialDiv'><img src='trustrating_stim/white_mw089.bmp'><br><font class='baseline'><strong>Marcus</strong><p>Choose number of points to send.</font><div class='respPicDiv'><img src='img/responseButtonOffersNo0L.png' class='respPic'></div></div>","3","8","Marcus","7","Kept","0.65,0.35","8","0.65","trustrating_stim/white_mw089.bmp","2","116","22"
"","","","decisionFB","627ea14463f25dce42e73d51","bdp_trlrn","Mon Mar 13 2023 13:24:32 GMT-0400 (Eastern Daylight Time)","1325662","Trustworthy,Untrustworthy","html-keyboard-response","202","996330","0.0-19.0-2.21","","null","","<div class='trialDiv'><img src='trustrating_stim/white_mw089.bmp'><br><font class='baseline'><strong>Marcus</strong><p>Choose number of points to send.</font><div class='respPicDiv'><img src='img/responseButtonOffersNo0L3.png' class='respPic'></div></div>","null","8","Marcus","7","Kept","0.65,0.35","8","0.65","trustrating_stim/white_mw089.bmp","2","113","22"
"","","","feedback","627ea14463f25dce42e73d51","bdp_trlrn","Mon Mar 13 2023 13:24:32 GMT-0400 (Eastern Daylight Time)","1325662","Trustworthy,Untrustworthy","html-keyboard-response","203","997336","0.0-19.0-3.21","","null","","<div class='trialDiv'><img src='trustrating_stim/white_mw089.bmp'><br><font class='baseline'><strong>Marcus</strong><p>Received: <strong>12</strong></font> &nbsp; &nbsp; &nbsp; &nbsp; &nbsp; &nbsp;<font class='negOutcome'>Shared back: <strong>0</strong></font></font><div class='respPicDiv'><img src='img/responseButtonOffersNo0_wht.png' class='respPic'></div></div>","null","8","Marcus","7","Kept","0.65,0.35","8","0.65","trustrating_stim/white_mw089.bmp","2","113","22"
"","","","decision","627ea14463f25dce42e73d51","bdp_trlrn","Mon Mar 13 2023 13:24:32 GMT-0400 (Eastern Daylight Time)","1325662","Trustworthy,Untrustworthy","html-keyboard-response","204","998318","0.0-19.0-1.22","","981","","<div class='trialDiv'><img src='trustrating_stim/white_mw099.bmp'><br><font class='baseline'><strong>Jonathan</strong><p>Choose number of points to send.</font><div class='respPicDiv'><img src='img/responseButtonOffersNo0L.png' class='respPic'></div></div>","5","8","Jonathan","10","Kept","0.65,0.2","8","0.65","trustrating_stim/white_mw099.bmp","3","118","23"
"","","","decisionFB","627ea14463f25dce42e73d51","bdp_trlrn","Mon Mar 13 2023 13:24:32 GMT-0400 (Eastern Daylight Time)","1325662","Trustworthy,Untrustworthy","html-keyboard-response","205","998570","0.0-19.0-2.22","","null","","<div class='trialDiv'><img src='trustrating_stim/white_mw099.bmp'><br><font class='baseline'><strong>Jonathan</strong><p>Choose number of points to send.</font><div class='respPicDiv'><img src='img/responseButtonOffersNo0L5.png' class='respPic'></div></div>","null","8","Jonathan","10","Kept","0.65,0.2","8","0.65","trustrating_stim/white_mw099.bmp","3","113","23"
"","","","feedback","627ea14463f25dce42e73d51","bdp_trlrn","Mon Mar 13 2023 13:24:32 GMT-0400 (Eastern Daylight Time)","1325662","Trustworthy,Untrustworthy","html-keyboard-response","206","999583","0.0-19.0-3.22","","null","","<div class='trialDiv'><img src='trustrating_stim/white_mw099.bmp'><br><font class='baseline'><strong>Jonathan</strong><p>Received: <strong>20</strong></font> &nbsp; &nbsp; &nbsp; &nbsp; &nbsp; &nbsp;<font class='negOutcome'>Shared back: <strong>0</strong></font></font><div class='respPicDiv'><img src='img/responseButtonOffersNo0_wht.png' class='respPic'></div></div>","null","8","Jonathan","10","Kept","0.65,0.2","8","0.65","trustrating_stim/white_mw099.bmp","3","113","23"
"","","","decision","627ea14463f25dce42e73d51","bdp_trlrn","Mon Mar 13 2023 13:24:32 GMT-0400 (Eastern Daylight Time)","1325662","Trustworthy,Untrustworthy","html-keyboard-response","207","1000277","0.0-19.0-1.23","","693","","<div class='trialDiv'><img src='trustrating_stim/white_00129_931230_fb_edt.bmp'><br><font class='baseline'><strong>Aaron</strong><p>Choose number of points to send.</font><div class='respPicDiv'><img src='img/responseButtonOffersNo0L.png' class='respPic'></div></div>","3","8","Aaron","1","Kept","0.35,0.8","10","0.35","trustrating_stim/white_00129_931230_fb_edt.bmp","1","118","24"
"","","","decisionFB","627ea14463f25dce42e73d51","bdp_trlrn","Mon Mar 13 2023 13:24:32 GMT-0400 (Eastern Daylight Time)","1325662","Trustworthy,Untrustworthy","html-keyboard-response","208","1000539","0.0-19.0-2.23","","null","","<div class='trialDiv'><img src='trustrating_stim/white_00129_931230_fb_edt.bmp'><br><font class='baseline'><strong>Aaron</strong><p>Choose number of points to send.</font><div class='respPicDiv'><img src='img/responseButtonOffersNo0L3.png' class='respPic'></div></div>","null","8","Aaron","1","Kept","0.35,0.8","10","0.35","trustrating_stim/white_00129_931230_fb_edt.bmp","1","115","24"
"","","","feedback","627ea14463f25dce42e73d51","bdp_trlrn","Mon Mar 13 2023 13:24:32 GMT-0400 (Eastern Daylight Time)","1325662","Trustworthy,Untrustworthy","html-keyboard-response","209","1001550","0.0-19.0-3.23","","null","","<div class='trialDiv'><img src='trustrating_stim/white_00129_931230_fb_edt.bmp'><br><font class='baseline'><strong>Aaron</strong><p>Received: <strong>12</strong></font> &nbsp; &nbsp; &nbsp; &nbsp; &nbsp; &nbsp;<font class='negOutcome'>Shared back: <strong>0</strong></font></font><div class='respPicDiv'><img src='img/responseButtonOffersNo0_wht.png' class='respPic'></div></div>","null","8","Aaron","1","Kept","0.35,0.8","10","0.35","trustrating_stim/white_00129_931230_fb_edt.bmp","1","115","24"
"","","","decision","627ea14463f25dce42e73d51","bdp_trlrn","Mon Mar 13 2023 13:24:32 GMT-0400 (Eastern Daylight Time)","1325662","Trustworthy,Untrustworthy","html-keyboard-response","210","1001913","0.0-19.0-1.24","","363","","<div class='trialDiv'><img src='trustrating_stim/white_mw099.bmp'><br><font class='baseline'><strong>Jonathan</strong><p>Choose number of points to send.</font><div class='respPicDiv'><img src='img/responseButtonOffersNo0L.png' class='respPic'></div></div>","5","9","Jonathan","10","Kept","0.65,0.2","8","0.65","trustrating_stim/white_mw099.bmp","3","120","25"
"","","","decisionFB","627ea14463f25dce42e73d51","bdp_trlrn","Mon Mar 13 2023 13:24:32 GMT-0400 (Eastern Daylight Time)","1325662","Trustworthy,Untrustworthy","html-keyboard-response","211","1002167","0.0-19.0-2.24","","null","","<div class='trialDiv'><img src='trustrating_stim/white_mw099.bmp'><br><font class='baseline'><strong>Jonathan</strong><p>Choose number of points to send.</font><div class='respPicDiv'><img src='img/responseButtonOffersNo0L5.png' class='respPic'></div></div>","null","9","Jonathan","10","Kept","0.65,0.2","8","0.65","trustrating_stim/white_mw099.bmp","3","115","25"
"","","","feedback","627ea14463f25dce42e73d51","bdp_trlrn","Mon Mar 13 2023 13:24:32 GMT-0400 (Eastern Daylight Time)","1325662","Trustworthy,Untrustworthy","html-keyboard-response","212","1003182","0.0-19.0-3.24","","null","","<div class='trialDiv'><img src='trustrating_stim/white_mw099.bmp'><br><font class='baseline'><strong>Jonathan</strong><p>Received: <strong>20</strong></font> &nbsp; &nbsp; &nbsp; &nbsp; &nbsp; &nbsp;<font class='negOutcome'>Shared back: <strong>0</strong></font></font><div class='respPicDiv'><img src='img/responseButtonOffersNo0_wht.png' class='respPic'></div></div>","null","9","Jonathan","10","Kept","0.65,0.2","8","0.65","trustrating_stim/white_mw099.bmp","3","115","25"
"","","","decision","627ea14463f25dce42e73d51","bdp_trlrn","Mon Mar 13 2023 13:24:32 GMT-0400 (Eastern Daylight Time)","1325662","Trustworthy,Untrustworthy","html-keyboard-response","213","1003634","0.0-19.0-1.25","","451","","<div class='trialDiv'><img src='trustrating_stim/white_00129_931230_fb_edt.bmp'><br><font class='baseline'><strong>Aaron</strong><p>Choose number of points to send.</font><div class='respPicDiv'><img src='img/responseButtonOffersNo0L.png' class='respPic'></div></div>","3","9","Aaron","1","Kept","0.35,0.8","10","0.35","trustrating_stim/white_00129_931230_fb_edt.bmp","1","120","26"
"","","","decisionFB","627ea14463f25dce42e73d51","bdp_trlrn","Mon Mar 13 2023 13:24:32 GMT-0400 (Eastern Daylight Time)","1325662","Trustworthy,Untrustworthy","html-keyboard-response","214","1003891","0.0-19.0-2.25","","null","","<div class='trialDiv'><img src='trustrating_stim/white_00129_931230_fb_edt.bmp'><br><font class='baseline'><strong>Aaron</strong><p>Choose number of points to send.</font><div class='respPicDiv'><img src='img/responseButtonOffersNo0L3.png' class='respPic'></div></div>","null","9","Aaron","1","Kept","0.35,0.8","10","0.35","trustrating_stim/white_00129_931230_fb_edt.bmp","1","117","26"
"","","","feedback","627ea14463f25dce42e73d51","bdp_trlrn","Mon Mar 13 2023 13:24:32 GMT-0400 (Eastern Daylight Time)","1325662","Trustworthy,Untrustworthy","html-keyboard-response","215","1004901","0.0-19.0-3.25","","null","","<div class='trialDiv'><img src='trustrating_stim/white_00129_931230_fb_edt.bmp'><br><font class='baseline'><strong>Aaron</strong><p>Received: <strong>12</strong></font> &nbsp; &nbsp; &nbsp; &nbsp; &nbsp; &nbsp;<font class='negOutcome'>Shared back: <strong>0</strong></font></font><div class='respPicDiv'><img src='img/responseButtonOffersNo0_wht.png' class='respPic'></div></div>","null","9","Aaron","1","Kept","0.35,0.8","10","0.35","trustrating_stim/white_00129_931230_fb_edt.bmp","1","117","26"
"","","","decision","627ea14463f25dce42e73d51","bdp_trlrn","Mon Mar 13 2023 13:24:32 GMT-0400 (Eastern Daylight Time)","1325662","Trustworthy,Untrustworthy","html-keyboard-response","216","1006133","0.0-19.0-1.26","","1232","","<div class='trialDiv'><img src='trustrating_stim/white_mw089.bmp'><br><font class='baseline'><strong>Marcus</strong><p>Choose number of points to send.</font><div class='respPicDiv'><img src='img/responseButtonOffersNo0L.png' class='respPic'></div></div>","5","9","Marcus","7","Shared","0.65,0.35","8","0.65","trustrating_stim/white_mw089.bmp","2","122","27"
"","","","decisionFB","627ea14463f25dce42e73d51","bdp_trlrn","Mon Mar 13 2023 13:24:32 GMT-0400 (Eastern Daylight Time)","1325662","Trustworthy,Untrustworthy","html-keyboard-response","217","1006390","0.0-19.0-2.26","","null","","<div class='trialDiv'><img src='trustrating_stim/white_mw089.bmp'><br><font class='baseline'><strong>Marcus</strong><p>Choose number of points to send.</font><div class='respPicDiv'><img src='img/responseButtonOffersNo0L5.png' class='respPic'></div></div>","null","9","Marcus","7","Shared","0.65,0.35","8","0.65","trustrating_stim/white_mw089.bmp","2","117","27"
"","","","feedback","627ea14463f25dce42e73d51","bdp_trlrn","Mon Mar 13 2023 13:24:32 GMT-0400 (Eastern Daylight Time)","1325662","Trustworthy,Untrustworthy","html-keyboard-response","218","1007395","0.0-19.0-3.26","","null","","<div class='trialDiv'><img src='trustrating_stim/white_mw089.bmp'><br><font class='baseline'><strong>Marcus</strong><p>Received: <strong>20</strong></font> &nbsp; &nbsp; &nbsp; &nbsp; &nbsp; &nbsp;<font class='posOutcome'>Shared back: <strong>10</strong></font></font><div class='respPicDiv'><img src='img/responseButtonOffersNo0_wht.png' class='respPic'></div></div>","null","9","Marcus","7","Shared","0.65,0.35","8","0.65","trustrating_stim/white_mw089.bmp","2","127","27"
"","","","decision","627ea14463f25dce42e73d51","bdp_trlrn","Mon Mar 13 2023 13:24:32 GMT-0400 (Eastern Daylight Time)","1325662","Trustworthy,Untrustworthy","html-keyboard-response","219","1009883","0.0-19.0-1.27","","2486","","<div class='trialDiv'><img src='trustrating_stim/white_mw099.bmp'><br><font class='baseline'><strong>Jonathan</strong><p>Choose number of points to send.</font><div class='respPicDiv'><img src='img/responseButtonOffersNo0L.png' class='respPic'></div></div>","5","10","Jonathan","10","Kept","0.65,0.2","8","0.65","trustrating_stim/white_mw099.bmp","3","132","28"
"","","","decisionFB","627ea14463f25dce42e73d51","bdp_trlrn","Mon Mar 13 2023 13:24:32 GMT-0400 (Eastern Daylight Time)","1325662","Trustworthy,Untrustworthy","html-keyboard-response","220","1010149","0.0-19.0-2.27","","null","","<div class='trialDiv'><img src='trustrating_stim/white_mw099.bmp'><br><font class='baseline'><strong>Jonathan</strong><p>Choose number of points to send.</font><div class='respPicDiv'><img src='img/responseButtonOffersNo0L5.png' class='respPic'></div></div>","null","10","Jonathan","10","Kept","0.65,0.2","8","0.65","trustrating_stim/white_mw099.bmp","3","127","28"
