"event","trial","time","trialtype","numBlurs","subject_id","task","startTime","totalTime","labels","trial_type","trial_index","time_elapsed","internal_node_id","view_history","rt","success","stimulus","key_press","aground","name","face","outcome","agenttype","agentswpt","agentcurrpshare","point_total","round"
"blur","0","0","blurevent","1","608f2aa883599160c8b87a79","bdp_trlrn","Tue May 11 2021 19:41:49 GMT-0700 (Pacific Daylight Time)","494232","Untrustworthy,Trustworthy","","","","","","","","","","","","","","","","","",""
"","","","","","608f2aa883599160c8b87a79","bdp_trlrn","Tue May 11 2021 19:41:49 GMT-0700 (Pacific Daylight Time)","494232","Untrustworthy,Trustworthy","pavlovia","0","16","0.0-0.0","","","","","","","","","","","","","",""
"focus","1","8670","focusevent","","608f2aa883599160c8b87a79","bdp_trlrn","Tue May 11 2021 19:41:49 GMT-0700 (Pacific Daylight Time)","494232","Untrustworthy,Trustworthy","","","","","","","","","","","","","","","","","",""
"","","","","","608f2aa883599160c8b87a79","bdp_trlrn","Tue May 11 2021 19:41:49 GMT-0700 (Pacific Daylight Time)","494232","Untrustworthy,Trustworthy","instructions","1","11352","0.0-1.0","[{""page_index"":0,""viewing_time"":11332}]","11333","","","","","","","","","","","",""
"fullscreenenter","2","13518","fullscreenenter","","608f2aa883599160c8b87a79","bdp_trlrn","Tue May 11 2021 19:41:49 GMT-0700 (Pacific Daylight Time)","494232","Untrustworthy,Trustworthy","","","","","","","","","","","","","","","","","",""
"","","","","","608f2aa883599160c8b87a79","bdp_trlrn","Tue May 11 2021 19:41:49 GMT-0700 (Pacific Daylight Time)","494232","Untrustworthy,Trustworthy","fullscreen","2","14470","0.0-2.0","","","true","","","","","","","","","","",""
"","","","","","608f2aa883599160c8b87a79","bdp_trlrn","Tue May 11 2021 19:41:49 GMT-0700 (Pacific Daylight Time)","494232","Untrustworthy,Trustworthy","instructions","3","44160","0.0-4.0","[{""page_index"":0,""viewing_time"":25704},{""page_index"":1,""viewing_time"":3983}]","29687","","","","","","","","","","","",""
"","","","","","608f2aa883599160c8b87a79","bdp_trlrn","Tue May 11 2021 19:41:49 GMT-0700 (Pacific Daylight Time)","494232","Untrustworthy,Trustworthy","instructions","4","45545","0.0-5.0","[{""page_index"":0,""viewing_time"":1383}]","1383","","","","","","","","","","","",""
"","","","rating","","608f2aa883599160c8b87a79","bdp_trlrn","Tue May 11 2021 19:41:49 GMT-0700 (Pacific Daylight Time)","494232","Untrustworthy,Trustworthy","image-keyboard-response","5","47701","0.0-6.0-1.0","","2046","","trustrating_stim/white_mw066.bmp","7","","","","","","","","",""
"","","","ratingFB","","608f2aa883599160c8b87a79","bdp_trlrn","Tue May 11 2021 19:41:49 GMT-0700 (Pacific Daylight Time)","494232","Untrustworthy,Trustworthy","image-keyboard-response","6","47906","0.0-6.0-2.0","","null","","trustrating_stim/white_mw066.bmp","null","","","","","","","","",""
"","","","rating","","608f2aa883599160c8b87a79","bdp_trlrn","Tue May 11 2021 19:41:49 GMT-0700 (Pacific Daylight Time)","494232","Untrustworthy,Trustworthy","image-keyboard-response","7","49539","0.0-6.0-1.1","","1527","","trustrating_stim/white_mw022.bmp","6","","","","","","","","",""
"","","","ratingFB","","608f2aa883599160c8b87a79","bdp_trlrn","Tue May 11 2021 19:41:49 GMT-0700 (Pacific Daylight Time)","494232","Untrustworthy,Trustworthy","image-keyboard-response","8","49754","0.0-6.0-2.1","","null","","trustrating_stim/white_mw022.bmp","null","","","","","","","","",""
"","","","rating","","608f2aa883599160c8b87a79","bdp_trlrn","Tue May 11 2021 19:41:49 GMT-0700 (Pacific Daylight Time)","494232","Untrustworthy,Trustworthy","image-keyboard-response","9","51984","0.0-6.0-1.2","","2124","","trustrating_stim/white_00602_940928_fb_edt.bmp","7","","","","","","","","",""
"","","","ratingFB","","608f2aa883599160c8b87a79","bdp_trlrn","Tue May 11 2021 19:41:49 GMT-0700 (Pacific Daylight Time)","494232","Untrustworthy,Trustworthy","image-keyboard-response","10","52194","0.0-6.0-2.2","","null","","trustrating_stim/white_00602_940928_fb_edt.bmp","null","","","","","","","","",""
"","","","rating","","608f2aa883599160c8b87a79","bdp_trlrn","Tue May 11 2021 19:41:49 GMT-0700 (Pacific Daylight Time)","494232","Untrustworthy,Trustworthy","image-keyboard-response","11","54280","0.0-6.0-1.3","","1980","","trustrating_stim/white_00223_940128_fb_edt.bmp","4","","","","","","","","",""
"","","","ratingFB","","608f2aa883599160c8b87a79","bdp_trlrn","Tue May 11 2021 19:41:49 GMT-0700 (Pacific Daylight Time)","494232","Untrustworthy,Trustworthy","image-keyboard-response","12","54490","0.0-6.0-2.3","","null","","trustrating_stim/white_00223_940128_fb_edt.bmp","null","","","","","","","","",""
"","","","rating","","608f2aa883599160c8b87a79","bdp_trlrn","Tue May 11 2021 19:41:49 GMT-0700 (Pacific Daylight Time)","494232","Untrustworthy,Trustworthy","image-keyboard-response","13","56479","0.0-6.0-1.4","","1883","","trustrating_stim/white_mw046.bmp","8","","","","","","","","",""
"","","","ratingFB","","608f2aa883599160c8b87a79","bdp_trlrn","Tue May 11 2021 19:41:49 GMT-0700 (Pacific Daylight Time)","494232","Untrustworthy,Trustworthy","image-keyboard-response","14","56682","0.0-6.0-2.4","","null","","trustrating_stim/white_mw046.bmp","null","","","","","","","","",""
"","","","rating","","608f2aa883599160c8b87a79","bdp_trlrn","Tue May 11 2021 19:41:49 GMT-0700 (Pacific Daylight Time)","494232","Untrustworthy,Trustworthy","image-keyboard-response","15","58580","0.0-6.0-1.5","","1793","","trustrating_stim/white_mw013.bmp","6","","","","","","","","",""
"","","","ratingFB","","608f2aa883599160c8b87a79","bdp_trlrn","Tue May 11 2021 19:41:49 GMT-0700 (Pacific Daylight Time)","494232","Untrustworthy,Trustworthy","image-keyboard-response","16","58788","0.0-6.0-2.5","","null","","trustrating_stim/white_mw013.bmp","null","","","","","","","","",""
"","","","rating","","608f2aa883599160c8b87a79","bdp_trlrn","Tue May 11 2021 19:41:49 GMT-0700 (Pacific Daylight Time)","494232","Untrustworthy,Trustworthy","image-keyboard-response","17","60885","0.0-6.0-1.6","","1991","","trustrating_stim/white_mw084.bmp","3","","","","","","","","",""
"","","","ratingFB","","608f2aa883599160c8b87a79","bdp_trlrn","Tue May 11 2021 19:41:49 GMT-0700 (Pacific Daylight Time)","494232","Untrustworthy,Trustworthy","image-keyboard-response","18","61092","0.0-6.0-2.6","","null","","trustrating_stim/white_mw084.bmp","null","","","","","","","","",""
"","","","rating","","608f2aa883599160c8b87a79","bdp_trlrn","Tue May 11 2021 19:41:49 GMT-0700 (Pacific Daylight Time)","494232","Untrustworthy,Trustworthy","image-keyboard-response","19","62386","0.0-6.0-1.7","","1188","","trustrating_stim/white_mw035.bmp","2","","","","","","","","",""
"","","","ratingFB","","608f2aa883599160c8b87a79","bdp_trlrn","Tue May 11 2021 19:41:49 GMT-0700 (Pacific Daylight Time)","494232","Untrustworthy,Trustworthy","image-keyboard-response","20","62591","0.0-6.0-2.7","","null","","trustrating_stim/white_mw035.bmp","null","","","","","","","","",""
"","","","rating","","608f2aa883599160c8b87a79","bdp_trlrn","Tue May 11 2021 19:41:49 GMT-0700 (Pacific Daylight Time)","494232","Untrustworthy,Trustworthy","image-keyboard-response","21","64005","0.0-6.0-1.8","","1310","","trustrating_stim/white_mw004.bmp","2","","","","","","","","",""
"","","","ratingFB","","608f2aa883599160c8b87a79","bdp_trlrn","Tue May 11 2021 19:41:49 GMT-0700 (Pacific Daylight Time)","494232","Untrustworthy,Trustworthy","image-keyboard-response","22","64216","0.0-6.0-2.8","","null","","trustrating_stim/white_mw004.bmp","null","","","","","","","","",""
"","","","rating","","608f2aa883599160c8b87a79","bdp_trlrn","Tue May 11 2021 19:41:49 GMT-0700 (Pacific Daylight Time)","494232","Untrustworthy,Trustworthy","image-keyboard-response","23","65820","0.0-6.0-1.9","","1498","","trustrating_stim/white_mw051.bmp","3","","","","","","","","",""
"","","","ratingFB","","608f2aa883599160c8b87a79","bdp_trlrn","Tue May 11 2021 19:41:49 GMT-0700 (Pacific Daylight Time)","494232","Untrustworthy,Trustworthy","image-keyboard-response","24","66026","0.0-6.0-2.9","","null","","trustrating_stim/white_mw051.bmp","null","","","","","","","","",""
"","","","rating","","608f2aa883599160c8b87a79","bdp_trlrn","Tue May 11 2021 19:41:49 GMT-0700 (Pacific Daylight Time)","494232","Untrustworthy,Trustworthy","image-keyboard-response","25","67131","0.0-6.0-1.10","","999","","trustrating_stim/white_mw057.bmp","1","","","","","","","","",""
"","","","ratingFB","","608f2aa883599160c8b87a79","bdp_trlrn","Tue May 11 2021 19:41:49 GMT-0700 (Pacific Daylight Time)","494232","Untrustworthy,Trustworthy","image-keyboard-response","26","67338","0.0-6.0-2.10","","null","","trustrating_stim/white_mw057.bmp","null","","","","","","","","",""
"","","","rating","","608f2aa883599160c8b87a79","bdp_trlrn","Tue May 11 2021 19:41:49 GMT-0700 (Pacific Daylight Time)","494232","Untrustworthy,Trustworthy","image-keyboard-response","27","68981","0.0-6.0-1.11","","1537","","trustrating_stim/white_00657_941121_fa_edt.bmp","6","","","","","","","","",""
"","","","ratingFB","","608f2aa883599160c8b87a79","bdp_trlrn","Tue May 11 2021 19:41:49 GMT-0700 (Pacific Daylight Time)","494232","Untrustworthy,Trustworthy","image-keyboard-response","28","69187","0.0-6.0-2.11","","null","","trustrating_stim/white_00657_941121_fa_edt.bmp","null","","","","","","","","",""
"","","","rating","","608f2aa883599160c8b87a79","bdp_trlrn","Tue May 11 2021 19:41:49 GMT-0700 (Pacific Daylight Time)","494232","Untrustworthy,Trustworthy","image-keyboard-response","29","70798","0.0-6.0-1.12","","1507","","trustrating_stim/white_mw097.bmp","2","","","","","","","","",""
"","","","ratingFB","","608f2aa883599160c8b87a79","bdp_trlrn","Tue May 11 2021 19:41:49 GMT-0700 (Pacific Daylight Time)","494232","Untrustworthy,Trustworthy","image-keyboard-response","30","71002","0.0-6.0-2.12","","null","","trustrating_stim/white_mw097.bmp","null","","","","","","","","",""
"","","","rating","","608f2aa883599160c8b87a79","bdp_trlrn","Tue May 11 2021 19:41:49 GMT-0700 (Pacific Daylight Time)","494232","Untrustworthy,Trustworthy","image-keyboard-response","31","72859","0.0-6.0-1.13","","1751","","trustrating_stim/white_00109_931230_fa_edt.bmp","5","","","","","","","","",""
"","","","ratingFB","","608f2aa883599160c8b87a79","bdp_trlrn","Tue May 11 2021 19:41:49 GMT-0700 (Pacific Daylight Time)","494232","Untrustworthy,Trustworthy","image-keyboard-response","32","73067","0.0-6.0-2.13","","null","","trustrating_stim/white_00109_931230_fa_edt.bmp","null","","","","","","","","",""
"","","","rating","","608f2aa883599160c8b87a79","bdp_trlrn","Tue May 11 2021 19:41:49 GMT-0700 (Pacific Daylight Time)","494232","Untrustworthy,Trustworthy","image-keyboard-response","33","74322","0.0-6.0-1.14","","1150","","trustrating_stim/white_mw043.bmp","2","","","","","","","","",""
"","","","ratingFB","","608f2aa883599160c8b87a79","bdp_trlrn","Tue May 11 2021 19:41:49 GMT-0700 (Pacific Daylight Time)","494232","Untrustworthy,Trustworthy","image-keyboard-response","34","74530","0.0-6.0-2.14","","null","","trustrating_stim/white_mw043.bmp","null","","","","","","","","",""
"","","","rating","","608f2aa883599160c8b87a79","bdp_trlrn","Tue May 11 2021 19:41:49 GMT-0700 (Pacific Daylight Time)","494232","Untrustworthy,Trustworthy","image-keyboard-response","35","75647","0.0-6.0-1.15","","1011","","trustrating_stim/white_mw071.bmp","2","","","","","","","","",""
"","","","ratingFB","","608f2aa883599160c8b87a79","bdp_trlrn","Tue May 11 2021 19:41:49 GMT-0700 (Pacific Daylight Time)","494232","Untrustworthy,Trustworthy","image-keyboard-response","36","75850","0.0-6.0-2.15","","null","","trustrating_stim/white_mw071.bmp","null","","","","","","","","",""
"","","","rating","","608f2aa883599160c8b87a79","bdp_trlrn","Tue May 11 2021 19:41:49 GMT-0700 (Pacific Daylight Time)","494232","Untrustworthy,Trustworthy","image-keyboard-response","37","77909","0.0-6.0-1.16","","1953","","trustrating_stim/white_mw089.bmp","3","","","","","","","","",""
"","","","ratingFB","","608f2aa883599160c8b87a79","bdp_trlrn","Tue May 11 2021 19:41:49 GMT-0700 (Pacific Daylight Time)","494232","Untrustworthy,Trustworthy","image-keyboard-response","38","78114","0.0-6.0-2.16","","null","","trustrating_stim/white_mw089.bmp","null","","","","","","","","",""
"","","","rating","","608f2aa883599160c8b87a79","bdp_trlrn","Tue May 11 2021 19:41:49 GMT-0700 (Pacific Daylight Time)","494232","Untrustworthy,Trustworthy","image-keyboard-response","39","79631","0.0-6.0-1.17","","1411","","trustrating_stim/white_mw085.bmp","2","","","","","","","","",""
"","","","ratingFB","","608f2aa883599160c8b87a79","bdp_trlrn","Tue May 11 2021 19:41:49 GMT-0700 (Pacific Daylight Time)","494232","Untrustworthy,Trustworthy","image-keyboard-response","40","79834","0.0-6.0-2.17","","null","","trustrating_stim/white_mw085.bmp","null","","","","","","","","",""
"","","","rating","","608f2aa883599160c8b87a79","bdp_trlrn","Tue May 11 2021 19:41:49 GMT-0700 (Pacific Daylight Time)","494232","Untrustworthy,Trustworthy","image-keyboard-response","41","81904","0.0-6.0-1.18","","1964","","trustrating_stim/white_mw006.bmp","4","","","","","","","","",""
"","","","ratingFB","","608f2aa883599160c8b87a79","bdp_trlrn","Tue May 11 2021 19:41:49 GMT-0700 (Pacific Daylight Time)","494232","Untrustworthy,Trustworthy","image-keyboard-response","42","82114","0.0-6.0-2.18","","null","","trustrating_stim/white_mw006.bmp","null","","","","","","","","",""
"","","","rating","","608f2aa883599160c8b87a79","bdp_trlrn","Tue May 11 2021 19:41:49 GMT-0700 (Pacific Daylight Time)","494232","Untrustworthy,Trustworthy","image-keyboard-response","43","83105","0.0-6.0-1.19","","885","","trustrating_stim/white_mw019.bmp","6","","","","","","","","",""
"","","","ratingFB","","608f2aa883599160c8b87a79","bdp_trlrn","Tue May 11 2021 19:41:49 GMT-0700 (Pacific Daylight Time)","494232","Untrustworthy,Trustworthy","image-keyboard-response","44","83314","0.0-6.0-2.19","","null","","trustrating_stim/white_mw019.bmp","null","","","","","","","","",""
"","","","rating","","608f2aa883599160c8b87a79","bdp_trlrn","Tue May 11 2021 19:41:49 GMT-0700 (Pacific Daylight Time)","494232","Untrustworthy,Trustworthy","image-keyboard-response","45","84705","0.0-6.0-1.20","","1286","","trustrating_stim/white_mw082.bmp","2","","","","","","","","",""
"","","","ratingFB","","608f2aa883599160c8b87a79","bdp_trlrn","Tue May 11 2021 19:41:49 GMT-0700 (Pacific Daylight Time)","494232","Untrustworthy,Trustworthy","image-keyboard-response","46","84914","0.0-6.0-2.20","","null","","trustrating_stim/white_mw082.bmp","null","","","","","","","","",""
"","","","rating","","608f2aa883599160c8b87a79","bdp_trlrn","Tue May 11 2021 19:41:49 GMT-0700 (Pacific Daylight Time)","494232","Untrustworthy,Trustworthy","image-keyboard-response","47","87294","0.0-6.0-1.21","","2271","","trustrating_stim/white_mw044.bmp","4","","","","","","","","",""
"","","","ratingFB","","608f2aa883599160c8b87a79","bdp_trlrn","Tue May 11 2021 19:41:49 GMT-0700 (Pacific Daylight Time)","494232","Untrustworthy,Trustworthy","image-keyboard-response","48","87499","0.0-6.0-2.21","","null","","trustrating_stim/white_mw044.bmp","null","","","","","","","","",""
"","","","rating","","608f2aa883599160c8b87a79","bdp_trlrn","Tue May 11 2021 19:41:49 GMT-0700 (Pacific Daylight Time)","494232","Untrustworthy,Trustworthy","image-keyboard-response","49","88500","0.0-6.0-1.22","","895","","trustrating_stim/white_00761_941201_fb_edt.bmp","3","","","","","","","","",""
"","","","ratingFB","","608f2aa883599160c8b87a79","bdp_trlrn","Tue May 11 2021 19:41:49 GMT-0700 (Pacific Daylight Time)","494232","Untrustworthy,Trustworthy","image-keyboard-response","50","88708","0.0-6.0-2.22","","null","","trustrating_stim/white_00761_941201_fb_edt.bmp","null","","","","","","","","",""
"","","","rating","","608f2aa883599160c8b87a79","bdp_trlrn","Tue May 11 2021 19:41:49 GMT-0700 (Pacific Daylight Time)","494232","Untrustworthy,Trustworthy","image-keyboard-response","51","90817","0.0-6.0-1.23","","2003","","trustrating_stim/white_mw072.bmp","3","","","","","","","","",""
"","","","ratingFB","","608f2aa883599160c8b87a79","bdp_trlrn","Tue May 11 2021 19:41:49 GMT-0700 (Pacific Daylight Time)","494232","Untrustworthy,Trustworthy","image-keyboard-response","52","91021","0.0-6.0-2.23","","null","","trustrating_stim/white_mw072.bmp","null","","","","","","","","",""
"","","","rating","","608f2aa883599160c8b87a79","bdp_trlrn","Tue May 11 2021 19:41:49 GMT-0700 (Pacific Daylight Time)","494232","Untrustworthy,Trustworthy","image-keyboard-response","53","92354","0.0-6.0-1.24","","1228","","trustrating_stim/white_00960_960627_fb_edt.bmp","2","","","","","","","","",""
"","","","ratingFB","","608f2aa883599160c8b87a79","bdp_trlrn","Tue May 11 2021 19:41:49 GMT-0700 (Pacific Daylight Time)","494232","Untrustworthy,Trustworthy","image-keyboard-response","54","92565","0.0-6.0-2.24","","null","","trustrating_stim/white_00960_960627_fb_edt.bmp","null","","","","","","","","",""
"","","","rating","","608f2aa883599160c8b87a79","bdp_trlrn","Tue May 11 2021 19:41:49 GMT-0700 (Pacific Daylight Time)","494232","Untrustworthy,Trustworthy","image-keyboard-response","55","93538","0.0-6.0-1.25","","868","","trustrating_stim/white_mw054.bmp","2","","","","","","","","",""
"","","","ratingFB","","608f2aa883599160c8b87a79","bdp_trlrn","Tue May 11 2021 19:41:49 GMT-0700 (Pacific Daylight Time)","494232","Untrustworthy,Trustworthy","image-keyboard-response","56","93749","0.0-6.0-2.25","","null","","trustrating_stim/white_mw054.bmp","null","","","","","","","","",""
"","","","rating","","608f2aa883599160c8b87a79","bdp_trlrn","Tue May 11 2021 19:41:49 GMT-0700 (Pacific Daylight Time)","494232","Untrustworthy,Trustworthy","image-keyboard-response","57","95129","0.0-6.0-1.26","","1274","","trustrating_stim/white_00658_941121_fb_edt.bmp","7","","","","","","","","",""
"","","","ratingFB","","608f2aa883599160c8b87a79","bdp_trlrn","Tue May 11 2021 19:41:49 GMT-0700 (Pacific Daylight Time)","494232","Untrustworthy,Trustworthy","image-keyboard-response","58","95336","0.0-6.0-2.26","","null","","trustrating_stim/white_00658_941121_fb_edt.bmp","null","","","","","","","","",""
"","","","rating","","608f2aa883599160c8b87a79","bdp_trlrn","Tue May 11 2021 19:41:49 GMT-0700 (Pacific Daylight Time)","494232","Untrustworthy,Trustworthy","image-keyboard-response","59","97173","0.0-6.0-1.27","","1731","","trustrating_stim/white_00253_940128_fa_edt.bmp","5","","","","","","","","",""
"","","","ratingFB","","608f2aa883599160c8b87a79","bdp_trlrn","Tue May 11 2021 19:41:49 GMT-0700 (Pacific Daylight Time)","494232","Untrustworthy,Trustworthy","image-keyboard-response","60","97376","0.0-6.0-2.27","","null","","trustrating_stim/white_00253_940128_fa_edt.bmp","null","","","","","","","","",""
"","","","rating","","608f2aa883599160c8b87a79","bdp_trlrn","Tue May 11 2021 19:41:49 GMT-0700 (Pacific Daylight Time)","494232","Untrustworthy,Trustworthy","image-keyboard-response","61","98469","0.0-6.0-1.28","","987","","trustrating_stim/white_mw012.bmp","3","","","","","","","","",""
"","","","ratingFB","","608f2aa883599160c8b87a79","bdp_trlrn","Tue May 11 2021 19:41:49 GMT-0700 (Pacific Daylight Time)","494232","Untrustworthy,Trustworthy","image-keyboard-response","62","98672","0.0-6.0-2.28","","null","","trustrating_stim/white_mw012.bmp","null","","","","","","","","",""
"","","","rating","","608f2aa883599160c8b87a79","bdp_trlrn","Tue May 11 2021 19:41:49 GMT-0700 (Pacific Daylight Time)","494232","Untrustworthy,Trustworthy","image-keyboard-response","63","99942","0.0-6.0-1.29","","1163","","trustrating_stim/white_00897_960530_fb_edt.bmp","2","","","","","","","","",""
"","","","ratingFB","","608f2aa883599160c8b87a79","bdp_trlrn","Tue May 11 2021 19:41:49 GMT-0700 (Pacific Daylight Time)","494232","Untrustworthy,Trustworthy","image-keyboard-response","64","100145","0.0-6.0-2.29","","null","","trustrating_stim/white_00897_960530_fb_edt.bmp","null","","","","","","","","",""
"","","","rating","","608f2aa883599160c8b87a79","bdp_trlrn","Tue May 11 2021 19:41:49 GMT-0700 (Pacific Daylight Time)","494232","Untrustworthy,Trustworthy","image-keyboard-response","65","102387","0.0-6.0-1.30","","2135","","trustrating_stim/white_mw025.bmp","4","","","","","","","","",""
"","","","ratingFB","","608f2aa883599160c8b87a79","bdp_trlrn","Tue May 11 2021 19:41:49 GMT-0700 (Pacific Daylight Time)","494232","Untrustworthy,Trustworthy","image-keyboard-response","66","102594","0.0-6.0-2.30","","null","","trustrating_stim/white_mw025.bmp","null","","","","","","","","",""
"","","","rating","","608f2aa883599160c8b87a79","bdp_trlrn","Tue May 11 2021 19:41:49 GMT-0700 (Pacific Daylight Time)","494232","Untrustworthy,Trustworthy","image-keyboard-response","67","103551","0.0-6.0-1.31","","851","","trustrating_stim/white_mw040.bmp","3","","","","","","","","",""
"","","","ratingFB","","608f2aa883599160c8b87a79","bdp_trlrn","Tue May 11 2021 19:41:49 GMT-0700 (Pacific Daylight Time)","494232","Untrustworthy,Trustworthy","image-keyboard-response","68","103761","0.0-6.0-2.31","","null","","trustrating_stim/white_mw040.bmp","null","","","","","","","","",""
"","","","rating","","608f2aa883599160c8b87a79","bdp_trlrn","Tue May 11 2021 19:41:49 GMT-0700 (Pacific Daylight Time)","494232","Untrustworthy,Trustworthy","image-keyboard-response","69","104906","0.0-6.0-1.32","","1040","","trustrating_stim/white_mw080.bmp","2","","","","","","","","",""
"","","","ratingFB","","608f2aa883599160c8b87a79","bdp_trlrn","Tue May 11 2021 19:41:49 GMT-0700 (Pacific Daylight Time)","494232","Untrustworthy,Trustworthy","image-keyboard-response","70","105113","0.0-6.0-2.32","","null","","trustrating_stim/white_mw080.bmp","null","","","","","","","","",""
"","","","rating","","608f2aa883599160c8b87a79","bdp_trlrn","Tue May 11 2021 19:41:49 GMT-0700 (Pacific Daylight Time)","494232","Untrustworthy,Trustworthy","image-keyboard-response","71","107760","0.0-6.0-1.33","","2541","","trustrating_stim/white_00757_941201_fa_edt.bmp","1","","","","","","","","",""
"","","","ratingFB","","608f2aa883599160c8b87a79","bdp_trlrn","Tue May 11 2021 19:41:49 GMT-0700 (Pacific Daylight Time)","494232","Untrustworthy,Trustworthy","image-keyboard-response","72","107969","0.0-6.0-2.33","","null","","trustrating_stim/white_00757_941201_fa_edt.bmp","null","","","","","","","","",""
"","","","rating","","608f2aa883599160c8b87a79","bdp_trlrn","Tue May 11 2021 19:41:49 GMT-0700 (Pacific Daylight Time)","494232","Untrustworthy,Trustworthy","image-keyboard-response","73","109229","0.0-6.0-1.34","","1154","","trustrating_stim/white_mw099.bmp","1","","","","","","","","",""
"","","","ratingFB","","608f2aa883599160c8b87a79","bdp_trlrn","Tue May 11 2021 19:41:49 GMT-0700 (Pacific Daylight Time)","494232","Untrustworthy,Trustworthy","image-keyboard-response","74","109433","0.0-6.0-2.34","","null","","trustrating_stim/white_mw099.bmp","null","","","","","","","","",""
"","","","rating","","608f2aa883599160c8b87a79","bdp_trlrn","Tue May 11 2021 19:41:49 GMT-0700 (Pacific Daylight Time)","494232","Untrustworthy,Trustworthy","image-keyboard-response","75","110837","0.0-6.0-1.35","","1298","","trustrating_stim/white_mw016.bmp","1","","","","","","","","",""
"","","","ratingFB","","608f2aa883599160c8b87a79","bdp_trlrn","Tue May 11 2021 19:41:49 GMT-0700 (Pacific Daylight Time)","494232","Untrustworthy,Trustworthy","image-keyboard-response","76","111044","0.0-6.0-2.35","","null","","trustrating_stim/white_mw016.bmp","null","","","","","","","","",""
"","","","rating","","608f2aa883599160c8b87a79","bdp_trlrn","Tue May 11 2021 19:41:49 GMT-0700 (Pacific Daylight Time)","494232","Untrustworthy,Trustworthy","image-keyboard-response","77","112595","0.0-6.0-1.36","","1446","","trustrating_stim/white_00807_941205_fb_edt.bmp","4","","","","","","","","",""
"","","","ratingFB","","608f2aa883599160c8b87a79","bdp_trlrn","Tue May 11 2021 19:41:49 GMT-0700 (Pacific Daylight Time)","494232","Untrustworthy,Trustworthy","image-keyboard-response","78","112804","0.0-6.0-2.36","","null","","trustrating_stim/white_00807_941205_fb_edt.bmp","null","","","","","","","","",""
"","","","rating","","608f2aa883599160c8b87a79","bdp_trlrn","Tue May 11 2021 19:41:49 GMT-0700 (Pacific Daylight Time)","494232","Untrustworthy,Trustworthy","image-keyboard-response","79","114511","0.0-6.0-1.37","","1603","","trustrating_stim/white_mw058.bmp","3","","","","","","","","",""
"","","","ratingFB","","608f2aa883599160c8b87a79","bdp_trlrn","Tue May 11 2021 19:41:49 GMT-0700 (Pacific Daylight Time)","494232","Untrustworthy,Trustworthy","image-keyboard-response","80","114716","0.0-6.0-2.37","","null","","trustrating_stim/white_mw058.bmp","null","","","","","","","","",""
"","","","rating","","608f2aa883599160c8b87a79","bdp_trlrn","Tue May 11 2021 19:41:49 GMT-0700 (Pacific Daylight Time)","494232","Untrustworthy,Trustworthy","image-keyboard-response","81","116064","0.0-6.0-1.38","","1243","","trustrating_stim/white_00785_941205_fb_edt.bmp","2","","","","","","","","",""
"","","","ratingFB","","608f2aa883599160c8b87a79","bdp_trlrn","Tue May 11 2021 19:41:49 GMT-0700 (Pacific Daylight Time)","494232","Untrustworthy,Trustworthy","image-keyboard-response","82","116270","0.0-6.0-2.38","","null","","trustrating_stim/white_00785_941205_fb_edt.bmp","null","","","","","","","","",""
"","","","rating","","608f2aa883599160c8b87a79","bdp_trlrn","Tue May 11 2021 19:41:49 GMT-0700 (Pacific Daylight Time)","494232","Untrustworthy,Trustworthy","image-keyboard-response","83","117936","0.0-6.0-1.39","","1562","","trustrating_stim/white_00120_931230_fa_edt.bmp","6","","","","","","","","",""
"","","","ratingFB","","608f2aa883599160c8b87a79","bdp_trlrn","Tue May 11 2021 19:41:49 GMT-0700 (Pacific Daylight Time)","494232","Untrustworthy,Trustworthy","image-keyboard-response","84","118150","0.0-6.0-2.39","","null","","trustrating_stim/white_00120_931230_fa_edt.bmp","null","","","","","","","","",""
"","","","","","608f2aa883599160c8b87a79","bdp_trlrn","Tue May 11 2021 19:41:49 GMT-0700 (Pacific Daylight Time)","494232","Untrustworthy,Trustworthy","instructions","85","119706","0.0-7.0","[{""page_index"":0,""viewing_time"":1452}]","1452","","","","","","","","","","","",""
"","","","","","608f2aa883599160c8b87a79","bdp_trlrn","Tue May 11 2021 19:41:49 GMT-0700 (Pacific Daylight Time)","494232","Untrustworthy,Trustworthy","instructions","86","189073","0.0-8.0","[{""page_index"":0,""viewing_time"":30756},{""page_index"":1,""viewing_time"":13889},{""page_index"":2,""viewing_time"":1773},{""page_index"":3,""viewing_time"":6972},{""page_index"":4,""viewing_time"":6374},{""page_index"":5,""viewing_time"":8051},{""page_index"":6,""viewing_time"":1441}]","69257","","","","","","","","","","","",""
"","","","","","608f2aa883599160c8b87a79","bdp_trlrn","Tue May 11 2021 19:41:49 GMT-0700 (Pacific Daylight Time)","494232","Untrustworthy,Trustworthy","html-keyboard-response","87","195716","0.0-9.0","","6639","","<div class='header' style='text-align:left; position: absolute; top: 5%; left: 5%;'><small>Task 3 of 4</small></div><div style='text-align:left; position: absolute; top: 10%; left: 20%; width: 60%'><p><strong>1) What is the minimum number of points you can choose to send to your partner?</strong></p><p>a) 0</p><p>b) 1</p><p>c) 5</p>","B","","","","","","","","",""
"","","","","","608f2aa883599160c8b87a79","bdp_trlrn","Tue May 11 2021 19:41:49 GMT-0700 (Pacific Daylight Time)","494232","Untrustworthy,Trustworthy","html-keyboard-response","88","198471","0.0-10.0","","2641","","<div class='header' style='text-align:left; position: absolute; top: 5%; left: 5%;'><small>Task 3 of 4</small></div><div style='text-align:left; position: absolute; top: 10%; left: 20%; width: 60%'><p><strong>1) What is the minimum number of points you can choose to send to your partner?</strong></p><p>a) 0</p><p style='color:#00FF00'>b) 1</p><p>c) 5</p><h3 style='color:#00FF00'>Correct!</h3><h3 class='center-content'>The correct response is b).</h3><h3 class='center-content'>The minimum number of points you can choose to send to your partner is 1 point.</h3><p><em>Press SPACEBAR to continue</em></p></div>"," ","","","","","","","","",""
"","","","","","608f2aa883599160c8b87a79","bdp_trlrn","Tue May 11 2021 19:41:49 GMT-0700 (Pacific Daylight Time)","494232","Untrustworthy,Trustworthy","html-keyboard-response","89","207660","0.0-11.0","","9079","","<div class='header' style='text-align:left; position: absolute; top: 5%; left: 5%;'><small>Task 3 of 4</small></div><div style='text-align:left; position: absolute; top: 10%; left: 20%; width: 60%'><p><strong>2) What is the maximum number of points you can choose to send to your partner?</strong></p><p>a) 8</p><p>b) 5</p><p>c) 3</p>","C","","","","","","","","",""
"","","","","","608f2aa883599160c8b87a79","bdp_trlrn","Tue May 11 2021 19:41:49 GMT-0700 (Pacific Daylight Time)","494232","Untrustworthy,Trustworthy","html-keyboard-response","90","210904","0.0-12.0","","3124","","<div class='header' style='text-align:left; position: absolute; top: 5%; left: 5%;'><small>Task 3 of 4</small></div><div style='text-align:left; position: absolute; top: 10%; left: 20%; width: 60%'><p><strong>2) What is the maximum number of points you can choose to send to your partner?</strong></p><p>a) 8</p><p>b) 5</p><p style='color:#FF0000'>c) 3</p><h3 style='color:#FF0000'>Incorrect!</h3><h3 class='center-content'>The correct response is b).</h3><h3 class='center-content'>The maximum number of points you can choose to send to your partner is 5 points.</h3><p><em>Press SPACEBAR to continue</em></p></div>"," ","","","","","","","","",""
"","","","","","608f2aa883599160c8b87a79","bdp_trlrn","Tue May 11 2021 19:41:49 GMT-0700 (Pacific Daylight Time)","494232","Untrustworthy,Trustworthy","html-keyboard-response","91","215345","0.0-13.0","","4334","","<div class='header' style='text-align:left; position: absolute; top: 5%; left: 5%;'><small>Task 3 of 4</small></div><div style='text-align:left; position: absolute; top: 10%; left: 20%; width: 60%'><p><strong>3) What happens to the amount of points you send to your partner?</strong></p><p>a) Nothing</p><p>b) It doubles</p><p>c) It quadruples</p>","B","","","","","","","","",""
"","","","","","608f2aa883599160c8b87a79","bdp_trlrn","Tue May 11 2021 19:41:49 GMT-0700 (Pacific Daylight Time)","494232","Untrustworthy,Trustworthy","html-keyboard-response","92","218124","0.0-14.0","","2670","","<div class='header' style='text-align:left; position: absolute; top: 5%; left: 5%;'><small>Task 3 of 4</small></div><div style='text-align:left; position: absolute; top: 10%; left: 20%; width: 60%'><p><strong>3) What happens to the amount of points you send to your partner?</strong></p><p>a) Nothing</p><p style='color:#FF0000'>b) It doubles</p><p>c) It quadruples</p><h3 style='color:#FF0000'>Incorrect!</h3><h3 class='center-content'>The correct response is c).</h3><h3 class='center-content'>The amount of points you send to your partner quadruples.</h3><p><em>Press SPACEBAR to continue</em></p></div>"," ","","","","","","","","",""
"","","","","","608f2aa883599160c8b87a79","bdp_trlrn","Tue May 11 2021 19:41:49 GMT-0700 (Pacific Daylight Time)","494232","Untrustworthy,Trustworthy","html-keyboard-response","93","230779","0.0-15.0","","12550","","<div class='header' style='text-align:left; position: absolute; top: 5%; left: 5%;'><small>Task 3 of 4</small></div><div style='text-align:left; position: absolute; top: 10%; left: 20%; width: 60%'><p><strong>4) If you decide to share 4 out of 5 points with your partner, and he decided to share half of what he received, how many points would you end up with in this round?</strong></p><p>a) 16</p><p>b) 0</p><p>c) 9</p>","C","","","","","","","","",""
"","","","","","608f2aa883599160c8b87a79","bdp_trlrn","Tue May 11 2021 19:41:49 GMT-0700 (Pacific Daylight Time)","494232","Untrustworthy,Trustworthy","html-keyboard-response","94","232682","0.0-16.0","","1794","","<div class='header' style='text-align:left; position: absolute; top: 5%; left: 5%;'><small>Task 3 of 4</small></div><div style='text-align:left; position: absolute; top: 10%; left: 20%; width: 60%'><p><strong>4) If you decide to share 4 points with your partner, and he decided to share half of what he received, how many points would you end up with in this round?</strong></p><p>a) 16</p><p>b) 0</p><p style='color:#00FF00'>c) 9</p><h3 style='color:#00FF00'>Correct!</h3><h3 class='center-content'>The correct response is c).</h3><h3 class='center-content'>If you share 4 out of 5 points with your partner and he decided to share half with you, you would receive 8 points back (i.e. (4 x 4)/2 = 8), totaling to 9 points altogether.</h3><p><em>Press SPACEBAR to continue</em></p></div>"," ","","","","","","","","",""
"","","","","","608f2aa883599160c8b87a79","bdp_trlrn","Tue May 11 2021 19:41:49 GMT-0700 (Pacific Daylight Time)","494232","Untrustworthy,Trustworthy","instructions","95","236016","0.0-17.0","[{""page_index"":0,""viewing_time"":3218}]","3219","","","","","","","","","","","",""
"","","","decision","","608f2aa883599160c8b87a79","bdp_trlrn","Tue May 11 2021 19:41:49 GMT-0700 (Pacific Daylight Time)","494232","Untrustworthy,Trustworthy","html-keyboard-response","96","240427","0.0-18.0-1.0","","4298","","<div class='trialDiv'><img src='trustrating_stim/white_mw089.bmp'><br><font class='baseline'><strong>Alex</strong><p>Choose number of points to send.</font><div class='respPicDiv'><img src='img/responseButtonOffersNo0L.png' class='respPic'></div></div>","3","1","Alex","trustrating_stim/white_mw089.bmp","Shared","0.6,0.2","13","0.6","5","1"
"","","","decisionFB","","608f2aa883599160c8b87a79","bdp_trlrn","Tue May 11 2021 19:41:49 GMT-0700 (Pacific Daylight Time)","494232","Untrustworthy,Trustworthy","html-keyboard-response","97","240686","0.0-18.0-2.0","","null","","<div class='trialDiv'><img src='trustrating_stim/white_mw089.bmp'><br><font class='baseline'><strong>Alex</strong><p>Choose number of points to send.</font><div class='respPicDiv'><img src='img/responseButtonOffersNo0L3.png' class='respPic'></div></div>","null","1","Alex","trustrating_stim/white_mw089.bmp","Shared","0.6,0.2","13","0.6","2","1"
"","","","feedback","","608f2aa883599160c8b87a79","bdp_trlrn","Tue May 11 2021 19:41:49 GMT-0700 (Pacific Daylight Time)","494232","Untrustworthy,Trustworthy","html-keyboard-response","98","241693","0.0-18.0-3.0","","null","","<div class='trialDiv'><img src='trustrating_stim/white_mw089.bmp'><br><font class='baseline'><strong>Alex</strong><p>Received: <strong>12</strong></font> &nbsp; &nbsp; &nbsp; &nbsp; &nbsp; &nbsp;<font class='posOutcome'>Shared back: <strong>6</strong></font></font><div class='respPicDiv'><img src='img/responseButtonOffersNo0_wht.png' class='respPic'></div></div>","null","1","Alex","trustrating_stim/white_mw089.bmp","Shared","0.6,0.2","13","0.6","8","1"
"","","","decision","","608f2aa883599160c8b87a79","bdp_trlrn","Tue May 11 2021 19:41:49 GMT-0700 (Pacific Daylight Time)","494232","Untrustworthy,Trustworthy","html-keyboard-response","99","243800","0.0-18.0-1.1","","2103","","<div class='trialDiv'><img src='trustrating_stim/white_mw071.bmp'><br><font class='baseline'><strong>Sebastian</strong><p>Choose number of points to send.</font><div class='respPicDiv'><img src='img/responseButtonOffersNo0L.png' class='respPic'></div></div>","4","1","Sebastian","trustrating_stim/white_mw071.bmp","Kept","0.2,0.6","10","0.2","13","2"
"","","","decisionFB","","608f2aa883599160c8b87a79","bdp_trlrn","Tue May 11 2021 19:41:49 GMT-0700 (Pacific Daylight Time)","494232","Untrustworthy,Trustworthy","html-keyboard-response","100","244055","0.0-18.0-2.1","","null","","<div class='trialDiv'><img src='trustrating_stim/white_mw071.bmp'><br><font class='baseline'><strong>Sebastian</strong><p>Choose number of points to send.</font><div class='respPicDiv'><img src='img/responseButtonOffersNo0L4.png' class='respPic'></div></div>","null","1","Sebastian","trustrating_stim/white_mw071.bmp","Kept","0.2,0.6","10","0.2","9","2"
"","","","feedback","","608f2aa883599160c8b87a79","bdp_trlrn","Tue May 11 2021 19:41:49 GMT-0700 (Pacific Daylight Time)","494232","Untrustworthy,Trustworthy","html-keyboard-response","101","245064","0.0-18.0-3.1","","null","","<div class='trialDiv'><img src='trustrating_stim/white_mw071.bmp'><br><font class='baseline'><strong>Sebastian</strong><p>Received: <strong>16</strong></font> &nbsp; &nbsp; &nbsp; &nbsp; &nbsp; &nbsp;<font class='negOutcome'>Shared back: <strong>0</strong></font></font><div class='respPicDiv'><img src='img/responseButtonOffersNo0_wht.png' class='respPic'></div></div>","null","1","Sebastian","trustrating_stim/white_mw071.bmp","Kept","0.2,0.6","10","0.2","9","2"
"","","","decision","","608f2aa883599160c8b87a79","bdp_trlrn","Tue May 11 2021 19:41:49 GMT-0700 (Pacific Daylight Time)","494232","Untrustworthy,Trustworthy","html-keyboard-response","102","246655","0.0-18.0-1.2","","1587","","<div class='trialDiv'><img src='trustrating_stim/white_mw046.bmp'><br><font class='baseline'><strong>Marcus</strong><p>Choose number of points to send.</font><div class='respPicDiv'><img src='img/responseButtonOffersNo0L.png' class='respPic'></div></div>","2","1","Marcus","trustrating_stim/white_mw046.bmp","Kept","0.4,0.8","11","0.4","14","3"
"","","","decisionFB","","608f2aa883599160c8b87a79","bdp_trlrn","Tue May 11 2021 19:41:49 GMT-0700 (Pacific Daylight Time)","494232","Untrustworthy,Trustworthy","html-keyboard-response","103","246911","0.0-18.0-2.2","","null","","<div class='trialDiv'><img src='trustrating_stim/white_mw046.bmp'><br><font class='baseline'><strong>Marcus</strong><p>Choose number of points to send.</font><div class='respPicDiv'><img src='img/responseButtonOffersNo0L2.png' class='respPic'></div></div>","null","1","Marcus","trustrating_stim/white_mw046.bmp","Kept","0.4,0.8","11","0.4","12","3"
"","","","feedback","","608f2aa883599160c8b87a79","bdp_trlrn","Tue May 11 2021 19:41:49 GMT-0700 (Pacific Daylight Time)","494232","Untrustworthy,Trustworthy","html-keyboard-response","104","247921","0.0-18.0-3.2","","null","","<div class='trialDiv'><img src='trustrating_stim/white_mw046.bmp'><br><font class='baseline'><strong>Marcus</strong><p>Received: <strong>8</strong></font> &nbsp; &nbsp; &nbsp; &nbsp; &nbsp; &nbsp;<font class='negOutcome'>Shared back: <strong>0</strong></font></font><div class='respPicDiv'><img src='img/responseButtonOffersNo0_wht.png' class='respPic'></div></div>","null","1","Marcus","trustrating_stim/white_mw046.bmp","Kept","0.4,0.8","11","0.4","12","3"
"","","","decision","","608f2aa883599160c8b87a79","bdp_trlrn","Tue May 11 2021 19:41:49 GMT-0700 (Pacific Daylight Time)","494232","Untrustworthy,Trustworthy","html-keyboard-response","105","251991","0.0-18.0-1.3","","4066","","<div class='trialDiv'><img src='trustrating_stim/white_00785_941205_fb_edt.bmp'><br><font class='baseline'><strong>Jacob</strong><p>Choose number of points to send.</font><div class='respPicDiv'><img src='img/responseButtonOffersNo0L.png' class='respPic'></div></div>","5","1","Jacob","trustrating_stim/white_00785_941205_fb_edt.bmp","Shared","0.8,0.4","15","0.8","17","4"
"","","","decisionFB","","608f2aa883599160c8b87a79","bdp_trlrn","Tue May 11 2021 19:41:49 GMT-0700 (Pacific Daylight Time)","494232","Untrustworthy,Trustworthy","html-keyboard-response","106","252251","0.0-18.0-2.3","","null","","<div class='trialDiv'><img src='trustrating_stim/white_00785_941205_fb_edt.bmp'><br><font class='baseline'><strong>Jacob</strong><p>Choose number of points to send.</font><div class='respPicDiv'><img src='img/responseButtonOffersNo0L5.png' class='respPic'></div></div>","null","1","Jacob","trustrating_stim/white_00785_941205_fb_edt.bmp","Shared","0.8,0.4","15","0.8","12","4"
"","","","feedback","","608f2aa883599160c8b87a79","bdp_trlrn","Tue May 11 2021 19:41:49 GMT-0700 (Pacific Daylight Time)","494232","Untrustworthy,Trustworthy","html-keyboard-response","107","253258","0.0-18.0-3.3","","null","","<div class='trialDiv'><img src='trustrating_stim/white_00785_941205_fb_edt.bmp'><br><font class='baseline'><strong>Jacob</strong><p>Received: <strong>20</strong></font> &nbsp; &nbsp; &nbsp; &nbsp; &nbsp; &nbsp;<font class='posOutcome'>Shared back: <strong>10</strong></font></font><div class='respPicDiv'><img src='img/responseButtonOffersNo0_wht.png' class='respPic'></div></div>","null","1","Jacob","trustrating_stim/white_00785_941205_fb_edt.bmp","Shared","0.8,0.4","15","0.8","22","4"
"","","","decision","","608f2aa883599160c8b87a79","bdp_trlrn","Tue May 11 2021 19:41:49 GMT-0700 (Pacific Daylight Time)","494232","Untrustworthy,Trustworthy","html-keyboard-response","108","254944","0.0-18.0-1.4","","1682","","<div class='trialDiv'><img src='trustrating_stim/white_mw089.bmp'><br><font class='baseline'><strong>Alex</strong><p>Choose number of points to send.</font><div class='respPicDiv'><img src='img/responseButtonOffersNo0L.png' class='respPic'></div></div>","5","2","Alex","trustrating_stim/white_mw089.bmp","Kept","0.6,0.2","13","0.6","27","5"
"","","","decisionFB","","608f2aa883599160c8b87a79","bdp_trlrn","Tue May 11 2021 19:41:49 GMT-0700 (Pacific Daylight Time)","494232","Untrustworthy,Trustworthy","html-keyboard-response","109","255210","0.0-18.0-2.4","","null","","<div class='trialDiv'><img src='trustrating_stim/white_mw089.bmp'><br><font class='baseline'><strong>Alex</strong><p>Choose number of points to send.</font><div class='respPicDiv'><img src='img/responseButtonOffersNo0L5.png' class='respPic'></div></div>","null","2","Alex","trustrating_stim/white_mw089.bmp","Kept","0.6,0.2","13","0.6","22","5"
"","","","feedback","","608f2aa883599160c8b87a79","bdp_trlrn","Tue May 11 2021 19:41:49 GMT-0700 (Pacific Daylight Time)","494232","Untrustworthy,Trustworthy","html-keyboard-response","110","256218","0.0-18.0-3.4","","null","","<div class='trialDiv'><img src='trustrating_stim/white_mw089.bmp'><br><font class='baseline'><strong>Alex</strong><p>Received: <strong>20</strong></font> &nbsp; &nbsp; &nbsp; &nbsp; &nbsp; &nbsp;<font class='negOutcome'>Shared back: <strong>0</strong></font></font><div class='respPicDiv'><img src='img/responseButtonOffersNo0_wht.png' class='respPic'></div></div>","null","2","Alex","trustrating_stim/white_mw089.bmp","Kept","0.6,0.2","13","0.6","22","5"
"","","","decision","","608f2aa883599160c8b87a79","bdp_trlrn","Tue May 11 2021 19:41:49 GMT-0700 (Pacific Daylight Time)","494232","Untrustworthy,Trustworthy","html-keyboard-response","111","257187","0.0-18.0-1.5","","965","","<div class='trialDiv'><img src='trustrating_stim/white_mw046.bmp'><br><font class='baseline'><strong>Marcus</strong><p>Choose number of points to send.</font><div class='respPicDiv'><img src='img/responseButtonOffersNo0L.png' class='respPic'></div></div>","1","2","Marcus","trustrating_stim/white_mw046.bmp","Kept","0.4,0.8","11","0.4","27","6"
"","","","decisionFB","","608f2aa883599160c8b87a79","bdp_trlrn","Tue May 11 2021 19:41:49 GMT-0700 (Pacific Daylight Time)","494232","Untrustworthy,Trustworthy","html-keyboard-response","112","257449","0.0-18.0-2.5","","null","","<div class='trialDiv'><img src='trustrating_stim/white_mw046.bmp'><br><font class='baseline'><strong>Marcus</strong><p>Choose number of points to send.</font><div class='respPicDiv'><img src='img/responseButtonOffersNo0L1.png' class='respPic'></div></div>","null","2","Marcus","trustrating_stim/white_mw046.bmp","Kept","0.4,0.8","11","0.4","26","6"
"","","","feedback","","608f2aa883599160c8b87a79","bdp_trlrn","Tue May 11 2021 19:41:49 GMT-0700 (Pacific Daylight Time)","494232","Untrustworthy,Trustworthy","html-keyboard-response","113","258458","0.0-18.0-3.5","","null","","<div class='trialDiv'><img src='trustrating_stim/white_mw046.bmp'><br><font class='baseline'><strong>Marcus</strong><p>Received: <strong>4</strong></font> &nbsp; &nbsp; &nbsp; &nbsp; &nbsp; &nbsp;<font class='negOutcome'>Shared back: <strong>0</strong></font></font><div class='respPicDiv'><img src='img/responseButtonOffersNo0_wht.png' class='respPic'></div></div>","null","2","Marcus","trustrating_stim/white_mw046.bmp","Kept","0.4,0.8","11","0.4","26","6"
"","","","decision","","608f2aa883599160c8b87a79","bdp_trlrn","Tue May 11 2021 19:41:49 GMT-0700 (Pacific Daylight Time)","494232","Untrustworthy,Trustworthy","html-keyboard-response","114","259619","0.0-18.0-1.6","","1158","","<div class='trialDiv'><img src='trustrating_stim/white_mw071.bmp'><br><font class='baseline'><strong>Sebastian</strong><p>Choose number of points to send.</font><div class='respPicDiv'><img src='img/responseButtonOffersNo0L.png' class='respPic'></div></div>","1","2","Sebastian","trustrating_stim/white_mw071.bmp","Kept","0.2,0.6","10","0.2","31","7"
"","","","decisionFB","","608f2aa883599160c8b87a79","bdp_trlrn","Tue May 11 2021 19:41:49 GMT-0700 (Pacific Daylight Time)","494232","Untrustworthy,Trustworthy","html-keyboard-response","115","259874","0.0-18.0-2.6","","null","","<div class='trialDiv'><img src='trustrating_stim/white_mw071.bmp'><br><font class='baseline'><strong>Sebastian</strong><p>Choose number of points to send.</font><div class='respPicDiv'><img src='img/responseButtonOffersNo0L1.png' class='respPic'></div></div>","null","2","Sebastian","trustrating_stim/white_mw071.bmp","Kept","0.2,0.6","10","0.2","30","7"
"","","","feedback","","608f2aa883599160c8b87a79","bdp_trlrn","Tue May 11 2021 19:41:49 GMT-0700 (Pacific Daylight Time)","494232","Untrustworthy,Trustworthy","html-keyboard-response","116","260883","0.0-18.0-3.6","","null","","<div class='trialDiv'><img src='trustrating_stim/white_mw071.bmp'><br><font class='baseline'><strong>Sebastian</strong><p>Received: <strong>4</strong></font> &nbsp; &nbsp; &nbsp; &nbsp; &nbsp; &nbsp;<font class='negOutcome'>Shared back: <strong>0</strong></font></font><div class='respPicDiv'><img src='img/responseButtonOffersNo0_wht.png' class='respPic'></div></div>","null","2","Sebastian","trustrating_stim/white_mw071.bmp","Kept","0.2,0.6","10","0.2","30","7"
"","","","decision","","608f2aa883599160c8b87a79","bdp_trlrn","Tue May 11 2021 19:41:49 GMT-0700 (Pacific Daylight Time)","494232","Untrustworthy,Trustworthy","html-keyboard-response","117","262596","0.0-18.0-1.7","","1707","","<div class='trialDiv'><img src='trustrating_stim/white_00785_941205_fb_edt.bmp'><br><font class='baseline'><strong>Jacob</strong><p>Choose number of points to send.</font><div class='respPicDiv'><img src='img/responseButtonOffersNo0L.png' class='respPic'></div></div>","5","2","Jacob","trustrating_stim/white_00785_941205_fb_edt.bmp","Shared","0.8,0.4","15","0.8","35","8"
"","","","decisionFB","","608f2aa883599160c8b87a79","bdp_trlrn","Tue May 11 2021 19:41:49 GMT-0700 (Pacific Daylight Time)","494232","Untrustworthy,Trustworthy","html-keyboard-response","118","262850","0.0-18.0-2.7","","null","","<div class='trialDiv'><img src='trustrating_stim/white_00785_941205_fb_edt.bmp'><br><font class='baseline'><strong>Jacob</strong><p>Choose number of points to send.</font><div class='respPicDiv'><img src='img/responseButtonOffersNo0L5.png' class='respPic'></div></div>","null","2","Jacob","trustrating_stim/white_00785_941205_fb_edt.bmp","Shared","0.8,0.4","15","0.8","30","8"
"","","","feedback","","608f2aa883599160c8b87a79","bdp_trlrn","Tue May 11 2021 19:41:49 GMT-0700 (Pacific Daylight Time)","494232","Untrustworthy,Trustworthy","html-keyboard-response","119","263858","0.0-18.0-3.7","","null","","<div class='trialDiv'><img src='trustrating_stim/white_00785_941205_fb_edt.bmp'><br><font class='baseline'><strong>Jacob</strong><p>Received: <strong>20</strong></font> &nbsp; &nbsp; &nbsp; &nbsp; &nbsp; &nbsp;<font class='posOutcome'>Shared back: <strong>10</strong></font></font><div class='respPicDiv'><img src='img/responseButtonOffersNo0_wht.png' class='respPic'></div></div>","null","2","Jacob","trustrating_stim/white_00785_941205_fb_edt.bmp","Shared","0.8,0.4","15","0.8","40","8"
"","","","decision","","608f2aa883599160c8b87a79","bdp_trlrn","Tue May 11 2021 19:41:49 GMT-0700 (Pacific Daylight Time)","494232","Untrustworthy,Trustworthy","html-keyboard-response","120","265058","0.0-18.0-1.8","","1198","","<div class='trialDiv'><img src='trustrating_stim/white_mw089.bmp'><br><font class='baseline'><strong>Alex</strong><p>Choose number of points to send.</font><div class='respPicDiv'><img src='img/responseButtonOffersNo0L.png' class='respPic'></div></div>","1","3","Alex","trustrating_stim/white_mw089.bmp","Shared","0.6,0.2","13","0.6","45","9"
"","","","decisionFB","","608f2aa883599160c8b87a79","bdp_trlrn","Tue May 11 2021 19:41:49 GMT-0700 (Pacific Daylight Time)","494232","Untrustworthy,Trustworthy","html-keyboard-response","121","265314","0.0-18.0-2.8","","null","","<div class='trialDiv'><img src='trustrating_stim/white_mw089.bmp'><br><font class='baseline'><strong>Alex</strong><p>Choose number of points to send.</font><div class='respPicDiv'><img src='img/responseButtonOffersNo0L1.png' class='respPic'></div></div>","null","3","Alex","trustrating_stim/white_mw089.bmp","Shared","0.6,0.2","13","0.6","44","9"
"","","","feedback","","608f2aa883599160c8b87a79","bdp_trlrn","Tue May 11 2021 19:41:49 GMT-0700 (Pacific Daylight Time)","494232","Untrustworthy,Trustworthy","html-keyboard-response","122","266322","0.0-18.0-3.8","","null","","<div class='trialDiv'><img src='trustrating_stim/white_mw089.bmp'><br><font class='baseline'><strong>Alex</strong><p>Received: <strong>4</strong></font> &nbsp; &nbsp; &nbsp; &nbsp; &nbsp; &nbsp;<font class='posOutcome'>Shared back: <strong>2</strong></font></font><div class='respPicDiv'><img src='img/responseButtonOffersNo0_wht.png' class='respPic'></div></div>","null","3","Alex","trustrating_stim/white_mw089.bmp","Shared","0.6,0.2","13","0.6","46","9"
"","","","decision","","608f2aa883599160c8b87a79","bdp_trlrn","Tue May 11 2021 19:41:49 GMT-0700 (Pacific Daylight Time)","494232","Untrustworthy,Trustworthy","html-keyboard-response","123","267421","0.0-18.0-1.9","","1095","","<div class='trialDiv'><img src='trustrating_stim/white_mw046.bmp'><br><font class='baseline'><strong>Marcus</strong><p>Choose number of points to send.</font><div class='respPicDiv'><img src='img/responseButtonOffersNo0L.png' class='respPic'></div></div>","2","3","Marcus","trustrating_stim/white_mw046.bmp","Kept","0.4,0.8","11","0.4","51","10"
"","","","decisionFB","","608f2aa883599160c8b87a79","bdp_trlrn","Tue May 11 2021 19:41:49 GMT-0700 (Pacific Daylight Time)","494232","Untrustworthy,Trustworthy","html-keyboard-response","124","267682","0.0-18.0-2.9","","null","","<div class='trialDiv'><img src='trustrating_stim/white_mw046.bmp'><br><font class='baseline'><strong>Marcus</strong><p>Choose number of points to send.</font><div class='respPicDiv'><img src='img/responseButtonOffersNo0L2.png' class='respPic'></div></div>","null","3","Marcus","trustrating_stim/white_mw046.bmp","Kept","0.4,0.8","11","0.4","49","10"
"","","","feedback","","608f2aa883599160c8b87a79","bdp_trlrn","Tue May 11 2021 19:41:49 GMT-0700 (Pacific Daylight Time)","494232","Untrustworthy,Trustworthy","html-keyboard-response","125","268690","0.0-18.0-3.9","","null","","<div class='trialDiv'><img src='trustrating_stim/white_mw046.bmp'><br><font class='baseline'><strong>Marcus</strong><p>Received: <strong>8</strong></font> &nbsp; &nbsp; &nbsp; &nbsp; &nbsp; &nbsp;<font class='negOutcome'>Shared back: <strong>0</strong></font></font><div class='respPicDiv'><img src='img/responseButtonOffersNo0_wht.png' class='respPic'></div></div>","null","3","Marcus","trustrating_stim/white_mw046.bmp","Kept","0.4,0.8","11","0.4","49","10"
"","","","decision","","608f2aa883599160c8b87a79","bdp_trlrn","Tue May 11 2021 19:41:49 GMT-0700 (Pacific Daylight Time)","494232","Untrustworthy,Trustworthy","html-keyboard-response","126","269530","0.0-18.0-1.10","","836","","<div class='trialDiv'><img src='trustrating_stim/white_mw071.bmp'><br><font class='baseline'><strong>Sebastian</strong><p>Choose number of points to send.</font><div class='respPicDiv'><img src='img/responseButtonOffersNo0L.png' class='respPic'></div></div>","3","3","Sebastian","trustrating_stim/white_mw071.bmp","Kept","0.2,0.6","10","0.2","54","11"
"","","","decisionFB","","608f2aa883599160c8b87a79","bdp_trlrn","Tue May 11 2021 19:41:49 GMT-0700 (Pacific Daylight Time)","494232","Untrustworthy,Trustworthy","html-keyboard-response","127","269786","0.0-18.0-2.10","","null","","<div class='trialDiv'><img src='trustrating_stim/white_mw071.bmp'><br><font class='baseline'><strong>Sebastian</strong><p>Choose number of points to send.</font><div class='respPicDiv'><img src='img/responseButtonOffersNo0L3.png' class='respPic'></div></div>","null","3","Sebastian","trustrating_stim/white_mw071.bmp","Kept","0.2,0.6","10","0.2","51","11"
"","","","feedback","","608f2aa883599160c8b87a79","bdp_trlrn","Tue May 11 2021 19:41:49 GMT-0700 (Pacific Daylight Time)","494232","Untrustworthy,Trustworthy","html-keyboard-response","128","270794","0.0-18.0-3.10","","null","","<div class='trialDiv'><img src='trustrating_stim/white_mw071.bmp'><br><font class='baseline'><strong>Sebastian</strong><p>Received: <strong>12</strong></font> &nbsp; &nbsp; &nbsp; &nbsp; &nbsp; &nbsp;<font class='negOutcome'>Shared back: <strong>0</strong></font></font><div class='respPicDiv'><img src='img/responseButtonOffersNo0_wht.png' class='respPic'></div></div>","null","3","Sebastian","trustrating_stim/white_mw071.bmp","Kept","0.2,0.6","10","0.2","51","11"
"","","","decision","","608f2aa883599160c8b87a79","bdp_trlrn","Tue May 11 2021 19:41:49 GMT-0700 (Pacific Daylight Time)","494232","Untrustworthy,Trustworthy","html-keyboard-response","129","272543","0.0-18.0-1.11","","1744","","<div class='trialDiv'><img src='trustrating_stim/white_00785_941205_fb_edt.bmp'><br><font class='baseline'><strong>Jacob</strong><p>Choose number of points to send.</font><div class='respPicDiv'><img src='img/responseButtonOffersNo0L.png' class='respPic'></div></div>","5","3","Jacob","trustrating_stim/white_00785_941205_fb_edt.bmp","Shared","0.8,0.4","15","0.8","56","12"
"","","","decisionFB","","608f2aa883599160c8b87a79","bdp_trlrn","Tue May 11 2021 19:41:49 GMT-0700 (Pacific Daylight Time)","494232","Untrustworthy,Trustworthy","html-keyboard-response","130","272802","0.0-18.0-2.11","","null","","<div class='trialDiv'><img src='trustrating_stim/white_00785_941205_fb_edt.bmp'><br><font class='baseline'><strong>Jacob</strong><p>Choose number of points to send.</font><div class='respPicDiv'><img src='img/responseButtonOffersNo0L5.png' class='respPic'></div></div>","null","3","Jacob","trustrating_stim/white_00785_941205_fb_edt.bmp","Shared","0.8,0.4","15","0.8","51","12"
"","","","feedback","","608f2aa883599160c8b87a79","bdp_trlrn","Tue May 11 2021 19:41:49 GMT-0700 (Pacific Daylight Time)","494232","Untrustworthy,Trustworthy","html-keyboard-response","131","273812","0.0-18.0-3.11","","null","","<div class='trialDiv'><img src='trustrating_stim/white_00785_941205_fb_edt.bmp'><br><font class='baseline'><strong>Jacob</strong><p>Received: <strong>20</strong></font> &nbsp; &nbsp; &nbsp; &nbsp; &nbsp; &nbsp;<font class='posOutcome'>Shared back: <strong>10</strong></font></font><div class='respPicDiv'><img src='img/responseButtonOffersNo0_wht.png' class='respPic'></div></div>","null","3","Jacob","trustrating_stim/white_00785_941205_fb_edt.bmp","Shared","0.8,0.4","15","0.8","61","12"
"","","","decision","","608f2aa883599160c8b87a79","bdp_trlrn","Tue May 11 2021 19:41:49 GMT-0700 (Pacific Daylight Time)","494232","Untrustworthy,Trustworthy","html-keyboard-response","132","275321","0.0-18.0-1.12","","1506","","<div class='trialDiv'><img src='trustrating_stim/white_mw046.bmp'><br><font class='baseline'><strong>Marcus</strong><p>Choose number of points to send.</font><div class='respPicDiv'><img src='img/responseButtonOffersNo0L.png' class='respPic'></div></div>","1","4","Marcus","trustrating_stim/white_mw046.bmp","Kept","0.4,0.8","11","0.4","66","13"
"","","","decisionFB","","608f2aa883599160c8b87a79","bdp_trlrn","Tue May 11 2021 19:41:49 GMT-0700 (Pacific Daylight Time)","494232","Untrustworthy,Trustworthy","html-keyboard-response","133","275578","0.0-18.0-2.12","","null","","<div class='trialDiv'><img src='trustrating_stim/white_mw046.bmp'><br><font class='baseline'><strong>Marcus</strong><p>Choose number of points to send.</font><div class='respPicDiv'><img src='img/responseButtonOffersNo0L1.png' class='respPic'></div></div>","null","4","Marcus","trustrating_stim/white_mw046.bmp","Kept","0.4,0.8","11","0.4","65","13"
"","","","feedback","","608f2aa883599160c8b87a79","bdp_trlrn","Tue May 11 2021 19:41:49 GMT-0700 (Pacific Daylight Time)","494232","Untrustworthy,Trustworthy","html-keyboard-response","134","276586","0.0-18.0-3.12","","null","","<div class='trialDiv'><img src='trustrating_stim/white_mw046.bmp'><br><font class='baseline'><strong>Marcus</strong><p>Received: <strong>4</strong></font> &nbsp; &nbsp; &nbsp; &nbsp; &nbsp; &nbsp;<font class='negOutcome'>Shared back: <strong>0</strong></font></font><div class='respPicDiv'><img src='img/responseButtonOffersNo0_wht.png' class='respPic'></div></div>","null","4","Marcus","trustrating_stim/white_mw046.bmp","Kept","0.4,0.8","11","0.4","65","13"
"","","","decision","","608f2aa883599160c8b87a79","bdp_trlrn","Tue May 11 2021 19:41:49 GMT-0700 (Pacific Daylight Time)","494232","Untrustworthy,Trustworthy","html-keyboard-response","135","278274","0.0-18.0-1.13","","1685","","<div class='trialDiv'><img src='trustrating_stim/white_mw071.bmp'><br><font class='baseline'><strong>Sebastian</strong><p>Choose number of points to send.</font><div class='respPicDiv'><img src='img/responseButtonOffersNo0L.png' class='respPic'></div></div>","1","4","Sebastian","trustrating_stim/white_mw071.bmp","Kept","0.2,0.6","10","0.2","70","14"
"","","","decisionFB","","608f2aa883599160c8b87a79","bdp_trlrn","Tue May 11 2021 19:41:49 GMT-0700 (Pacific Daylight Time)","494232","Untrustworthy,Trustworthy","html-keyboard-response","136","278542","0.0-18.0-2.13","","null","","<div class='trialDiv'><img src='trustrating_stim/white_mw071.bmp'><br><font class='baseline'><strong>Sebastian</strong><p>Choose number of points to send.</font><div class='respPicDiv'><img src='img/responseButtonOffersNo0L1.png' class='respPic'></div></div>","null","4","Sebastian","trustrating_stim/white_mw071.bmp","Kept","0.2,0.6","10","0.2","69","14"
"","","","feedback","","608f2aa883599160c8b87a79","bdp_trlrn","Tue May 11 2021 19:41:49 GMT-0700 (Pacific Daylight Time)","494232","Untrustworthy,Trustworthy","html-keyboard-response","137","279552","0.0-18.0-3.13","","null","","<div class='trialDiv'><img src='trustrating_stim/white_mw071.bmp'><br><font class='baseline'><strong>Sebastian</strong><p>Received: <strong>4</strong></font> &nbsp; &nbsp; &nbsp; &nbsp; &nbsp; &nbsp;<font class='negOutcome'>Shared back: <strong>0</strong></font></font><div class='respPicDiv'><img src='img/responseButtonOffersNo0_wht.png' class='respPic'></div></div>","null","4","Sebastian","trustrating_stim/white_mw071.bmp","Kept","0.2,0.6","10","0.2","69","14"
"","","","decision","","608f2aa883599160c8b87a79","bdp_trlrn","Tue May 11 2021 19:41:49 GMT-0700 (Pacific Daylight Time)","494232","Untrustworthy,Trustworthy","html-keyboard-response","138","280001","0.0-18.0-1.14","","447","","<div class='trialDiv'><img src='trustrating_stim/white_mw089.bmp'><br><font class='baseline'><strong>Alex</strong><p>Choose number of points to send.</font><div class='respPicDiv'><img src='img/responseButtonOffersNo0L.png' class='respPic'></div></div>","1","4","Alex","trustrating_stim/white_mw089.bmp","Shared","0.6,0.2","13","0.6","74","15"
"","","","decisionFB","","608f2aa883599160c8b87a79","bdp_trlrn","Tue May 11 2021 19:41:49 GMT-0700 (Pacific Daylight Time)","494232","Untrustworthy,Trustworthy","html-keyboard-response","139","280257","0.0-18.0-2.14","","null","","<div class='trialDiv'><img src='trustrating_stim/white_mw089.bmp'><br><font class='baseline'><strong>Alex</strong><p>Choose number of points to send.</font><div class='respPicDiv'><img src='img/responseButtonOffersNo0L1.png' class='respPic'></div></div>","null","4","Alex","trustrating_stim/white_mw089.bmp","Shared","0.6,0.2","13","0.6","73","15"
"","","","feedback","","608f2aa883599160c8b87a79","bdp_trlrn","Tue May 11 2021 19:41:49 GMT-0700 (Pacific Daylight Time)","494232","Untrustworthy,Trustworthy","html-keyboard-response","140","281265","0.0-18.0-3.14","","null","","<div class='trialDiv'><img src='trustrating_stim/white_mw089.bmp'><br><font class='baseline'><strong>Alex</strong><p>Received: <strong>4</strong></font> &nbsp; &nbsp; &nbsp; &nbsp; &nbsp; &nbsp;<font class='posOutcome'>Shared back: <strong>2</strong></font></font><div class='respPicDiv'><img src='img/responseButtonOffersNo0_wht.png' class='respPic'></div></div>","null","4","Alex","trustrating_stim/white_mw089.bmp","Shared","0.6,0.2","13","0.6","75","15"
"","","","decision","","608f2aa883599160c8b87a79","bdp_trlrn","Tue May 11 2021 19:41:49 GMT-0700 (Pacific Daylight Time)","494232","Untrustworthy,Trustworthy","html-keyboard-response","141","282139","0.0-18.0-1.15","","870","","<div class='trialDiv'><img src='trustrating_stim/white_00785_941205_fb_edt.bmp'><br><font class='baseline'><strong>Jacob</strong><p>Choose number of points to send.</font><div class='respPicDiv'><img src='img/responseButtonOffersNo0L.png' class='respPic'></div></div>","5","4","Jacob","trustrating_stim/white_00785_941205_fb_edt.bmp","Shared","0.8,0.4","15","0.8","80","16"
"","","","decisionFB","","608f2aa883599160c8b87a79","bdp_trlrn","Tue May 11 2021 19:41:49 GMT-0700 (Pacific Daylight Time)","494232","Untrustworthy,Trustworthy","html-keyboard-response","142","282393","0.0-18.0-2.15","","null","","<div class='trialDiv'><img src='trustrating_stim/white_00785_941205_fb_edt.bmp'><br><font class='baseline'><strong>Jacob</strong><p>Choose number of points to send.</font><div class='respPicDiv'><img src='img/responseButtonOffersNo0L5.png' class='respPic'></div></div>","null","4","Jacob","trustrating_stim/white_00785_941205_fb_edt.bmp","Shared","0.8,0.4","15","0.8","75","16"
"","","","feedback","","608f2aa883599160c8b87a79","bdp_trlrn","Tue May 11 2021 19:41:49 GMT-0700 (Pacific Daylight Time)","494232","Untrustworthy,Trustworthy","html-keyboard-response","143","283402","0.0-18.0-3.15","","null","","<div class='trialDiv'><img src='trustrating_stim/white_00785_941205_fb_edt.bmp'><br><font class='baseline'><strong>Jacob</strong><p>Received: <strong>20</strong></font> &nbsp; &nbsp; &nbsp; &nbsp; &nbsp; &nbsp;<font class='posOutcome'>Shared back: <strong>10</strong></font></font><div class='respPicDiv'><img src='img/responseButtonOffersNo0_wht.png' class='respPic'></div></div>","null","4","Jacob","trustrating_stim/white_00785_941205_fb_edt.bmp","Shared","0.8,0.4","15","0.8","85","16"
"","","","decision","","608f2aa883599160c8b87a79","bdp_trlrn","Tue May 11 2021 19:41:49 GMT-0700 (Pacific Daylight Time)","494232","Untrustworthy,Trustworthy","html-keyboard-response","144","283725","0.0-18.0-1.16","","321","","<div class='trialDiv'><img src='trustrating_stim/white_mw071.bmp'><br><font class='baseline'><strong>Sebastian</strong><p>Choose number of points to send.</font><div class='respPicDiv'><img src='img/responseButtonOffersNo0L.png' class='respPic'></div></div>","1","5","Sebastian","trustrating_stim/white_mw071.bmp","Shared","0.2,0.6","10","0.2","90","17"
"","","","decisionFB","","608f2aa883599160c8b87a79","bdp_trlrn","Tue May 11 2021 19:41:49 GMT-0700 (Pacific Daylight Time)","494232","Untrustworthy,Trustworthy","html-keyboard-response","145","283993","0.0-18.0-2.16","","null","","<div class='trialDiv'><img src='trustrating_stim/white_mw071.bmp'><br><font class='baseline'><strong>Sebastian</strong><p>Choose number of points to send.</font><div class='respPicDiv'><img src='img/responseButtonOffersNo0L1.png' class='respPic'></div></div>","null","5","Sebastian","trustrating_stim/white_mw071.bmp","Shared","0.2,0.6","10","0.2","89","17"
"","","","feedback","","608f2aa883599160c8b87a79","bdp_trlrn","Tue May 11 2021 19:41:49 GMT-0700 (Pacific Daylight Time)","494232","Untrustworthy,Trustworthy","html-keyboard-response","146","285002","0.0-18.0-3.16","","null","","<div class='trialDiv'><img src='trustrating_stim/white_mw071.bmp'><br><font class='baseline'><strong>Sebastian</strong><p>Received: <strong>4</strong></font> &nbsp; &nbsp; &nbsp; &nbsp; &nbsp; &nbsp;<font class='posOutcome'>Shared back: <strong>2</strong></font></font><div class='respPicDiv'><img src='img/responseButtonOffersNo0_wht.png' class='respPic'></div></div>","null","5","Sebastian","trustrating_stim/white_mw071.bmp","Shared","0.2,0.6","10","0.2","91","17"
"","","","decision","","608f2aa883599160c8b87a79","bdp_trlrn","Tue May 11 2021 19:41:49 GMT-0700 (Pacific Daylight Time)","494232","Untrustworthy,Trustworthy","html-keyboard-response","147","285458","0.0-18.0-1.17","","453","","<div class='trialDiv'><img src='trustrating_stim/white_mw089.bmp'><br><font class='baseline'><strong>Alex</strong><p>Choose number of points to send.</font><div class='respPicDiv'><img src='img/responseButtonOffersNo0L.png' class='respPic'></div></div>","2","5","Alex","trustrating_stim/white_mw089.bmp","Kept","0.6,0.2","13","0.6","96","18"
"","","","decisionFB","","608f2aa883599160c8b87a79","bdp_trlrn","Tue May 11 2021 19:41:49 GMT-0700 (Pacific Daylight Time)","494232","Untrustworthy,Trustworthy","html-keyboard-response","148","285714","0.0-18.0-2.17","","null","","<div class='trialDiv'><img src='trustrating_stim/white_mw089.bmp'><br><font class='baseline'><strong>Alex</strong><p>Choose number of points to send.</font><div class='respPicDiv'><img src='img/responseButtonOffersNo0L2.png' class='respPic'></div></div>","null","5","Alex","trustrating_stim/white_mw089.bmp","Kept","0.6,0.2","13","0.6","94","18"
"","","","feedback","","608f2aa883599160c8b87a79","bdp_trlrn","Tue May 11 2021 19:41:49 GMT-0700 (Pacific Daylight Time)","494232","Untrustworthy,Trustworthy","html-keyboard-response","149","286726","0.0-18.0-3.17","","null","","<div class='trialDiv'><img src='trustrating_stim/white_mw089.bmp'><br><font class='baseline'><strong>Alex</strong><p>Received: <strong>8</strong></font> &nbsp; &nbsp; &nbsp; &nbsp; &nbsp; &nbsp;<font class='negOutcome'>Shared back: <strong>0</strong></font></font><div class='respPicDiv'><img src='img/responseButtonOffersNo0_wht.png' class='respPic'></div></div>","null","5","Alex","trustrating_stim/white_mw089.bmp","Kept","0.6,0.2","13","0.6","94","18"
"","","","decision","","608f2aa883599160c8b87a79","bdp_trlrn","Tue May 11 2021 19:41:49 GMT-0700 (Pacific Daylight Time)","494232","Untrustworthy,Trustworthy","html-keyboard-response","150","287672","0.0-18.0-1.18","","943","","<div class='trialDiv'><img src='trustrating_stim/white_00785_941205_fb_edt.bmp'><br><font class='baseline'><strong>Jacob</strong><p>Choose number of points to send.</font><div class='respPicDiv'><img src='img/responseButtonOffersNo0L.png' class='respPic'></div></div>","5","5","Jacob","trustrating_stim/white_00785_941205_fb_edt.bmp","Shared","0.8,0.4","15","0.8","99","19"
"","","","decisionFB","","608f2aa883599160c8b87a79","bdp_trlrn","Tue May 11 2021 19:41:49 GMT-0700 (Pacific Daylight Time)","494232","Untrustworthy,Trustworthy","html-keyboard-response","151","287926","0.0-18.0-2.18","","null","","<div class='trialDiv'><img src='trustrating_stim/white_00785_941205_fb_edt.bmp'><br><font class='baseline'><strong>Jacob</strong><p>Choose number of points to send.</font><div class='respPicDiv'><img src='img/responseButtonOffersNo0L5.png' class='respPic'></div></div>","null","5","Jacob","trustrating_stim/white_00785_941205_fb_edt.bmp","Shared","0.8,0.4","15","0.8","94","19"
"","","","feedback","","608f2aa883599160c8b87a79","bdp_trlrn","Tue May 11 2021 19:41:49 GMT-0700 (Pacific Daylight Time)","494232","Untrustworthy,Trustworthy","html-keyboard-response","152","288934","0.0-18.0-3.18","","null","","<div class='trialDiv'><img src='trustrating_stim/white_00785_941205_fb_edt.bmp'><br><font class='baseline'><strong>Jacob</strong><p>Received: <strong>20</strong></font> &nbsp; &nbsp; &nbsp; &nbsp; &nbsp; &nbsp;<font class='posOutcome'>Shared back: <strong>10</strong></font></font><div class='respPicDiv'><img src='img/responseButtonOffersNo0_wht.png' class='respPic'></div></div>","null","5","Jacob","trustrating_stim/white_00785_941205_fb_edt.bmp","Shared","0.8,0.4","15","0.8","104","19"
"","","","decision","","608f2aa883599160c8b87a79","bdp_trlrn","Tue May 11 2021 19:41:49 GMT-0700 (Pacific Daylight Time)","494232","Untrustworthy,Trustworthy","html-keyboard-response","153","290190","0.0-18.0-1.19","","1252","","<div class='trialDiv'><img src='trustrating_stim/white_mw046.bmp'><br><font class='baseline'><strong>Marcus</strong><p>Choose number of points to send.</font><div class='respPicDiv'><img src='img/responseButtonOffersNo0L.png' class='respPic'></div></div>","2","5","Marcus","trustrating_stim/white_mw046.bmp","Shared","0.4,0.8","11","0.4","109","20"
"","","","decisionFB","","608f2aa883599160c8b87a79","bdp_trlrn","Tue May 11 2021 19:41:49 GMT-0700 (Pacific Daylight Time)","494232","Untrustworthy,Trustworthy","html-keyboard-response","154","290445","0.0-18.0-2.19","","null","","<div class='trialDiv'><img src='trustrating_stim/white_mw046.bmp'><br><font class='baseline'><strong>Marcus</strong><p>Choose number of points to send.</font><div class='respPicDiv'><img src='img/responseButtonOffersNo0L2.png' class='respPic'></div></div>","null","5","Marcus","trustrating_stim/white_mw046.bmp","Shared","0.4,0.8","11","0.4","107","20"
"","","","feedback","","608f2aa883599160c8b87a79","bdp_trlrn","Tue May 11 2021 19:41:49 GMT-0700 (Pacific Daylight Time)","494232","Untrustworthy,Trustworthy","html-keyboard-response","155","291454","0.0-18.0-3.19","","null","","<div class='trialDiv'><img src='trustrating_stim/white_mw046.bmp'><br><font class='baseline'><strong>Marcus</strong><p>Received: <strong>8</strong></font> &nbsp; &nbsp; &nbsp; &nbsp; &nbsp; &nbsp;<font class='posOutcome'>Shared back: <strong>4</strong></font></font><div class='respPicDiv'><img src='img/responseButtonOffersNo0_wht.png' class='respPic'></div></div>","null","5","Marcus","trustrating_stim/white_mw046.bmp","Shared","0.4,0.8","11","0.4","111","20"
"","","","decision","","608f2aa883599160c8b87a79","bdp_trlrn","Tue May 11 2021 19:41:49 GMT-0700 (Pacific Daylight Time)","494232","Untrustworthy,Trustworthy","html-keyboard-response","156","292706","0.0-18.0-1.20","","1248","","<div class='trialDiv'><img src='trustrating_stim/white_mw089.bmp'><br><font class='baseline'><strong>Alex</strong><p>Choose number of points to send.</font><div class='respPicDiv'><img src='img/responseButtonOffersNo0L.png' class='respPic'></div></div>","5","6","Alex","trustrating_stim/white_mw089.bmp","Kept","0.6,0.2","13","0.6","116","21"
"","","","decisionFB","","608f2aa883599160c8b87a79","bdp_trlrn","Tue May 11 2021 19:41:49 GMT-0700 (Pacific Daylight Time)","494232","Untrustworthy,Trustworthy","html-keyboard-response","157","292962","0.0-18.0-2.20","","null","","<div class='trialDiv'><img src='trustrating_stim/white_mw089.bmp'><br><font class='baseline'><strong>Alex</strong><p>Choose number of points to send.</font><div class='respPicDiv'><img src='img/responseButtonOffersNo0L5.png' class='respPic'></div></div>","null","6","Alex","trustrating_stim/white_mw089.bmp","Kept","0.6,0.2","13","0.6","111","21"
"","","","feedback","","608f2aa883599160c8b87a79","bdp_trlrn","Tue May 11 2021 19:41:49 GMT-0700 (Pacific Daylight Time)","494232","Untrustworthy,Trustworthy","html-keyboard-response","158","293971","0.0-18.0-3.20","","null","","<div class='trialDiv'><img src='trustrating_stim/white_mw089.bmp'><br><font class='baseline'><strong>Alex</strong><p>Received: <strong>20</strong></font> &nbsp; &nbsp; &nbsp; &nbsp; &nbsp; &nbsp;<font class='negOutcome'>Shared back: <strong>0</strong></font></font><div class='respPicDiv'><img src='img/responseButtonOffersNo0_wht.png' class='respPic'></div></div>","null","6","Alex","trustrating_stim/white_mw089.bmp","Kept","0.6,0.2","13","0.6","111","21"
"","","","decision","","608f2aa883599160c8b87a79","bdp_trlrn","Tue May 11 2021 19:41:49 GMT-0700 (Pacific Daylight Time)","494232","Untrustworthy,Trustworthy","html-keyboard-response","159","294427","0.0-18.0-1.21","","452","","<div class='trialDiv'><img src='trustrating_stim/white_mw071.bmp'><br><font class='baseline'><strong>Sebastian</strong><p>Choose number of points to send.</font><div class='respPicDiv'><img src='img/responseButtonOffersNo0L.png' class='respPic'></div></div>","1","6","Sebastian","trustrating_stim/white_mw071.bmp","Kept","0.2,0.6","10","0.2","116","22"
"","","","decisionFB","","608f2aa883599160c8b87a79","bdp_trlrn","Tue May 11 2021 19:41:49 GMT-0700 (Pacific Daylight Time)","494232","Untrustworthy,Trustworthy","html-keyboard-response","160","294686","0.0-18.0-2.21","","null","","<div class='trialDiv'><img src='trustrating_stim/white_mw071.bmp'><br><font class='baseline'><strong>Sebastian</strong><p>Choose number of points to send.</font><div class='respPicDiv'><img src='img/responseButtonOffersNo0L1.png' class='respPic'></div></div>","null","6","Sebastian","trustrating_stim/white_mw071.bmp","Kept","0.2,0.6","10","0.2","115","22"
"","","","feedback","","608f2aa883599160c8b87a79","bdp_trlrn","Tue May 11 2021 19:41:49 GMT-0700 (Pacific Daylight Time)","494232","Untrustworthy,Trustworthy","html-keyboard-response","161","295695","0.0-18.0-3.21","","null","","<div class='trialDiv'><img src='trustrating_stim/white_mw071.bmp'><br><font class='baseline'><strong>Sebastian</strong><p>Received: <strong>4</strong></font> &nbsp; &nbsp; &nbsp; &nbsp; &nbsp; &nbsp;<font class='negOutcome'>Shared back: <strong>0</strong></font></font><div class='respPicDiv'><img src='img/responseButtonOffersNo0_wht.png' class='respPic'></div></div>","null","6","Sebastian","trustrating_stim/white_mw071.bmp","Kept","0.2,0.6","10","0.2","115","22"
"","","","decision","","608f2aa883599160c8b87a79","bdp_trlrn","Tue May 11 2021 19:41:49 GMT-0700 (Pacific Daylight Time)","494232","Untrustworthy,Trustworthy","html-keyboard-response","162","296344","0.0-18.0-1.22","","646","","<div class='trialDiv'><img src='trustrating_stim/white_mw046.bmp'><br><font class='baseline'><strong>Marcus</strong><p>Choose number of points to send.</font><div class='respPicDiv'><img src='img/responseButtonOffersNo0L.png' class='respPic'></div></div>","1","6","Marcus","trustrating_stim/white_mw046.bmp","Kept","0.4,0.8","11","0.4","120","23"
"","","","decisionFB","","608f2aa883599160c8b87a79","bdp_trlrn","Tue May 11 2021 19:41:49 GMT-0700 (Pacific Daylight Time)","494232","Untrustworthy,Trustworthy","html-keyboard-response","163","296599","0.0-18.0-2.22","","null","","<div class='trialDiv'><img src='trustrating_stim/white_mw046.bmp'><br><font class='baseline'><strong>Marcus</strong><p>Choose number of points to send.</font><div class='respPicDiv'><img src='img/responseButtonOffersNo0L1.png' class='respPic'></div></div>","null","6","Marcus","trustrating_stim/white_mw046.bmp","Kept","0.4,0.8","11","0.4","119","23"
"","","","feedback","","608f2aa883599160c8b87a79","bdp_trlrn","Tue May 11 2021 19:41:49 GMT-0700 (Pacific Daylight Time)","494232","Untrustworthy,Trustworthy","html-keyboard-response","164","297607","0.0-18.0-3.22","","null","","<div class='trialDiv'><img src='trustrating_stim/white_mw046.bmp'><br><font class='baseline'><strong>Marcus</strong><p>Received: <strong>4</strong></font> &nbsp; &nbsp; &nbsp; &nbsp; &nbsp; &nbsp;<font class='negOutcome'>Shared back: <strong>0</strong></font></font><div class='respPicDiv'><img src='img/responseButtonOffersNo0_wht.png' class='respPic'></div></div>","null","6","Marcus","trustrating_stim/white_mw046.bmp","Kept","0.4,0.8","11","0.4","119","23"
"","","","decision","","608f2aa883599160c8b87a79","bdp_trlrn","Tue May 11 2021 19:41:49 GMT-0700 (Pacific Daylight Time)","494232","Untrustworthy,Trustworthy","html-keyboard-response","165","298120","0.0-18.0-1.23","","509","","<div class='trialDiv'><img src='trustrating_stim/white_00785_941205_fb_edt.bmp'><br><font class='baseline'><strong>Jacob</strong><p>Choose number of points to send.</font><div class='respPicDiv'><img src='img/responseButtonOffersNo0L.png' class='respPic'></div></div>","5","6","Jacob","trustrating_stim/white_00785_941205_fb_edt.bmp","Shared","0.8,0.4","15","0.8","124","24"
"","","","decisionFB","","608f2aa883599160c8b87a79","bdp_trlrn","Tue May 11 2021 19:41:49 GMT-0700 (Pacific Daylight Time)","494232","Untrustworthy,Trustworthy","html-keyboard-response","166","298375","0.0-18.0-2.23","","null","","<div class='trialDiv'><img src='trustrating_stim/white_00785_941205_fb_edt.bmp'><br><font class='baseline'><strong>Jacob</strong><p>Choose number of points to send.</font><div class='respPicDiv'><img src='img/responseButtonOffersNo0L5.png' class='respPic'></div></div>","null","6","Jacob","trustrating_stim/white_00785_941205_fb_edt.bmp","Shared","0.8,0.4","15","0.8","119","24"
"","","","feedback","","608f2aa883599160c8b87a79","bdp_trlrn","Tue May 11 2021 19:41:49 GMT-0700 (Pacific Daylight Time)","494232","Untrustworthy,Trustworthy","html-keyboard-response","167","299383","0.0-18.0-3.23","","null","","<div class='trialDiv'><img src='trustrating_stim/white_00785_941205_fb_edt.bmp'><br><font class='baseline'><strong>Jacob</strong><p>Received: <strong>20</strong></font> &nbsp; &nbsp; &nbsp; &nbsp; &nbsp; &nbsp;<font class='posOutcome'>Shared back: <strong>10</strong></font></font><div class='respPicDiv'><img src='img/responseButtonOffersNo0_wht.png' class='respPic'></div></div>","null","6","Jacob","trustrating_stim/white_00785_941205_fb_edt.bmp","Shared","0.8,0.4","15","0.8","129","24"
"","","","decision","","608f2aa883599160c8b87a79","bdp_trlrn","Tue May 11 2021 19:41:49 GMT-0700 (Pacific Daylight Time)","494232","Untrustworthy,Trustworthy","html-keyboard-response","168","300520","0.0-18.0-1.24","","1134","","<div class='trialDiv'><img src='trustrating_stim/white_mw046.bmp'><br><font class='baseline'><strong>Marcus</strong><p>Choose number of points to send.</font><div class='respPicDiv'><img src='img/responseButtonOffersNo0L.png' class='respPic'></div></div>","1","7","Marcus","trustrating_stim/white_mw046.bmp","Kept","0.4,0.8","11","0.4","134","25"
"","","","decisionFB","","608f2aa883599160c8b87a79","bdp_trlrn","Tue May 11 2021 19:41:49 GMT-0700 (Pacific Daylight Time)","494232","Untrustworthy,Trustworthy","html-keyboard-response","169","300775","0.0-18.0-2.24","","null","","<div class='trialDiv'><img src='trustrating_stim/white_mw046.bmp'><br><font class='baseline'><strong>Marcus</strong><p>Choose number of points to send.</font><div class='respPicDiv'><img src='img/responseButtonOffersNo0L1.png' class='respPic'></div></div>","null","7","Marcus","trustrating_stim/white_mw046.bmp","Kept","0.4,0.8","11","0.4","133","25"
"","","","feedback","","608f2aa883599160c8b87a79","bdp_trlrn","Tue May 11 2021 19:41:49 GMT-0700 (Pacific Daylight Time)","494232","Untrustworthy,Trustworthy","html-keyboard-response","170","301786","0.0-18.0-3.24","","null","","<div class='trialDiv'><img src='trustrating_stim/white_mw046.bmp'><br><font class='baseline'><strong>Marcus</strong><p>Received: <strong>4</strong></font> &nbsp; &nbsp; &nbsp; &nbsp; &nbsp; &nbsp;<font class='negOutcome'>Shared back: <strong>0</strong></font></font><div class='respPicDiv'><img src='img/responseButtonOffersNo0_wht.png' class='respPic'></div></div>","null","7","Marcus","trustrating_stim/white_mw046.bmp","Kept","0.4,0.8","11","0.4","133","25"
"","","","decision","","608f2aa883599160c8b87a79","bdp_trlrn","Tue May 11 2021 19:41:49 GMT-0700 (Pacific Daylight Time)","494232","Untrustworthy,Trustworthy","html-keyboard-response","171","302212","0.0-18.0-1.25","","422","","<div class='trialDiv'><img src='trustrating_stim/white_00785_941205_fb_edt.bmp'><br><font class='baseline'><strong>Jacob</strong><p>Choose number of points to send.</font><div class='respPicDiv'><img src='img/responseButtonOffersNo0L.png' class='respPic'></div></div>","1","7","Jacob","trustrating_stim/white_00785_941205_fb_edt.bmp","Shared","0.8,0.4","15","0.8","138","26"
"","","","decisionFB","","608f2aa883599160c8b87a79","bdp_trlrn","Tue May 11 2021 19:41:49 GMT-0700 (Pacific Daylight Time)","494232","Untrustworthy,Trustworthy","html-keyboard-response","172","302466","0.0-18.0-2.25","","null","","<div class='trialDiv'><img src='trustrating_stim/white_00785_941205_fb_edt.bmp'><br><font class='baseline'><strong>Jacob</strong><p>Choose number of points to send.</font><div class='respPicDiv'><img src='img/responseButtonOffersNo0L1.png' class='respPic'></div></div>","null","7","Jacob","trustrating_stim/white_00785_941205_fb_edt.bmp","Shared","0.8,0.4","15","0.8","137","26"
"","","","feedback","","608f2aa883599160c8b87a79","bdp_trlrn","Tue May 11 2021 19:41:49 GMT-0700 (Pacific Daylight Time)","494232","Untrustworthy,Trustworthy","html-keyboard-response","173","303474","0.0-18.0-3.25","","null","","<div class='trialDiv'><img src='trustrating_stim/white_00785_941205_fb_edt.bmp'><br><font class='baseline'><strong>Jacob</strong><p>Received: <strong>4</strong></font> &nbsp; &nbsp; &nbsp; &nbsp; &nbsp; &nbsp;<font class='posOutcome'>Shared back: <strong>2</strong></font></font><div class='respPicDiv'><img src='img/responseButtonOffersNo0_wht.png' class='respPic'></div></div>","null","7","Jacob","trustrating_stim/white_00785_941205_fb_edt.bmp","Shared","0.8,0.4","15","0.8","139","26"
"","","","decision","","608f2aa883599160c8b87a79","bdp_trlrn","Tue May 11 2021 19:41:49 GMT-0700 (Pacific Daylight Time)","494232","Untrustworthy,Trustworthy","html-keyboard-response","174","304983","0.0-18.0-1.26","","1505","","<div class='trialDiv'><img src='trustrating_stim/white_mw089.bmp'><br><font class='baseline'><strong>Alex</strong><p>Choose number of points to send.</font><div class='respPicDiv'><img src='img/responseButtonOffersNo0L.png' class='respPic'></div></div>","5","7","Alex","trustrating_stim/white_mw089.bmp","Shared","0.6,0.2","13","0.6","144","27"
"","","","decisionFB","","608f2aa883599160c8b87a79","bdp_trlrn","Tue May 11 2021 19:41:49 GMT-0700 (Pacific Daylight Time)","494232","Untrustworthy,Trustworthy","html-keyboard-response","175","305242","0.0-18.0-2.26","","null","","<div class='trialDiv'><img src='trustrating_stim/white_mw089.bmp'><br><font class='baseline'><strong>Alex</strong><p>Choose number of points to send.</font><div class='respPicDiv'><img src='img/responseButtonOffersNo0L5.png' class='respPic'></div></div>","null","7","Alex","trustrating_stim/white_mw089.bmp","Shared","0.6,0.2","13","0.6","139","27"
"","","","feedback","","608f2aa883599160c8b87a79","bdp_trlrn","Tue May 11 2021 19:41:49 GMT-0700 (Pacific Daylight Time)","494232","Untrustworthy,Trustworthy","html-keyboard-response","176","306250","0.0-18.0-3.26","","null","","<div class='trialDiv'><img src='trustrating_stim/white_mw089.bmp'><br><font class='baseline'><strong>Alex</strong><p>Received: <strong>20</strong></font> &nbsp; &nbsp; &nbsp; &nbsp; &nbsp; &nbsp;<font class='posOutcome'>Shared back: <strong>10</strong></font></font><div class='respPicDiv'><img src='img/responseButtonOffersNo0_wht.png' class='respPic'></div></div>","null","7","Alex","trustrating_stim/white_mw089.bmp","Shared","0.6,0.2","13","0.6","149","27"
"","","","decision","","608f2aa883599160c8b87a79","bdp_trlrn","Tue May 11 2021 19:41:49 GMT-0700 (Pacific Daylight Time)","494232","Untrustworthy,Trustworthy","html-keyboard-response","177","306961","0.0-18.0-1.27","","707","","<div class='trialDiv'><img src='trustrating_stim/white_mw071.bmp'><br><font class='baseline'><strong>Sebastian</strong><p>Choose number of points to send.</font><div class='respPicDiv'><img src='img/responseButtonOffersNo0L.png' class='respPic'></div></div>","1","7","Sebastian","trustrating_stim/white_mw071.bmp","Kept","0.2,0.6","10","0.2","154","28"
"","","","decisionFB","","608f2aa883599160c8b87a79","bdp_trlrn","Tue May 11 2021 19:41:49 GMT-0700 (Pacific Daylight Time)","494232","Untrustworthy,Trustworthy","html-keyboard-response","178","307218","0.0-18.0-2.27","","null","","<div class='trialDiv'><img src='trustrating_stim/white_mw071.bmp'><br><font class='baseline'><strong>Sebastian</strong><p>Choose number of points to send.</font><div class='respPicDiv'><img src='img/responseButtonOffersNo0L1.png' class='respPic'></div></div>","null","7","Sebastian","trustrating_stim/white_mw071.bmp","Kept","0.2,0.6","10","0.2","153","28"
"","","","feedback","","608f2aa883599160c8b87a79","bdp_trlrn","Tue May 11 2021 19:41:49 GMT-0700 (Pacific Daylight Time)","494232","Untrustworthy,Trustworthy","html-keyboard-response","179","308234","0.0-18.0-3.27","","null","","<div class='trialDiv'><img src='trustrating_stim/white_mw071.bmp'><br><font class='baseline'><strong>Sebastian</strong><p>Received: <strong>4</strong></font> &nbsp; &nbsp; &nbsp; &nbsp; &nbsp; &nbsp;<font class='negOutcome'>Shared back: <strong>0</strong></font></font><div class='respPicDiv'><img src='img/responseButtonOffersNo0_wht.png' class='respPic'></div></div>","null","7","Sebastian","trustrating_stim/white_mw071.bmp","Kept","0.2,0.6","10","0.2","153","28"
"","","","decision","","608f2aa883599160c8b87a79","bdp_trlrn","Tue May 11 2021 19:41:49 GMT-0700 (Pacific Daylight Time)","494232","Untrustworthy,Trustworthy","html-keyboard-response","180","308577","0.0-18.0-1.28","","339","","<div class='trialDiv'><img src='trustrating_stim/white_00785_941205_fb_edt.bmp'><br><font class='baseline'><strong>Jacob</strong><p>Choose number of points to send.</font><div class='respPicDiv'><img src='img/responseButtonOffersNo0L.png' class='respPic'></div></div>","1","8","Jacob","trustrating_stim/white_00785_941205_fb_edt.bmp","Shared","0.8,0.4","15","0.8","158","29"
"","","","decisionFB","","608f2aa883599160c8b87a79","bdp_trlrn","Tue May 11 2021 19:41:49 GMT-0700 (Pacific Daylight Time)","494232","Untrustworthy,Trustworthy","html-keyboard-response","181","308834","0.0-18.0-2.28","","null","","<div class='trialDiv'><img src='trustrating_stim/white_00785_941205_fb_edt.bmp'><br><font class='baseline'><strong>Jacob</strong><p>Choose number of points to send.</font><div class='respPicDiv'><img src='img/responseButtonOffersNo0L1.png' class='respPic'></div></div>","null","8","Jacob","trustrating_stim/white_00785_941205_fb_edt.bmp","Shared","0.8,0.4","15","0.8","157","29"
"","","","feedback","","608f2aa883599160c8b87a79","bdp_trlrn","Tue May 11 2021 19:41:49 GMT-0700 (Pacific Daylight Time)","494232","Untrustworthy,Trustworthy","html-keyboard-response","182","309842","0.0-18.0-3.28","","null","","<div class='trialDiv'><img src='trustrating_stim/white_00785_941205_fb_edt.bmp'><br><font class='baseline'><strong>Jacob</strong><p>Received: <strong>4</strong></font> &nbsp; &nbsp; &nbsp; &nbsp; &nbsp; &nbsp;<font class='posOutcome'>Shared back: <strong>2</strong></font></font><div class='respPicDiv'><img src='img/responseButtonOffersNo0_wht.png' class='respPic'></div></div>","null","8","Jacob","trustrating_stim/white_00785_941205_fb_edt.bmp","Shared","0.8,0.4","15","0.8","159","29"
"","","","decision","","608f2aa883599160c8b87a79","bdp_trlrn","Tue May 11 2021 19:41:49 GMT-0700 (Pacific Daylight Time)","494232","Untrustworthy,Trustworthy","html-keyboard-response","183","310462","0.0-18.0-1.29","","617","","<div class='trialDiv'><img src='trustrating_stim/white_mw046.bmp'><br><font class='baseline'><strong>Marcus</strong><p>Choose number of points to send.</font><div class='respPicDiv'><img src='img/responseButtonOffersNo0L.png' class='respPic'></div></div>","1","8","Marcus","trustrating_stim/white_mw046.bmp","Shared","0.4,0.8","11","0.4","164","30"
"","","","decisionFB","","608f2aa883599160c8b87a79","bdp_trlrn","Tue May 11 2021 19:41:49 GMT-0700 (Pacific Daylight Time)","494232","Untrustworthy,Trustworthy","html-keyboard-response","184","310722","0.0-18.0-2.29","","null","","<div class='trialDiv'><img src='trustrating_stim/white_mw046.bmp'><br><font class='baseline'><strong>Marcus</strong><p>Choose number of points to send.</font><div class='respPicDiv'><img src='img/responseButtonOffersNo0L1.png' class='respPic'></div></div>","null","8","Marcus","trustrating_stim/white_mw046.bmp","Shared","0.4,0.8","11","0.4","163","30"
"","","","feedback","","608f2aa883599160c8b87a79","bdp_trlrn","Tue May 11 2021 19:41:49 GMT-0700 (Pacific Daylight Time)","494232","Untrustworthy,Trustworthy","html-keyboard-response","185","311730","0.0-18.0-3.29","","null","","<div class='trialDiv'><img src='trustrating_stim/white_mw046.bmp'><br><font class='baseline'><strong>Marcus</strong><p>Received: <strong>4</strong></font> &nbsp; &nbsp; &nbsp; &nbsp; &nbsp; &nbsp;<font class='posOutcome'>Shared back: <strong>2</strong></font></font><div class='respPicDiv'><img src='img/responseButtonOffersNo0_wht.png' class='respPic'></div></div>","null","8","Marcus","trustrating_stim/white_mw046.bmp","Shared","0.4,0.8","11","0.4","165","30"
"","","","decision","","608f2aa883599160c8b87a79","bdp_trlrn","Tue May 11 2021 19:41:49 GMT-0700 (Pacific Daylight Time)","494232","Untrustworthy,Trustworthy","html-keyboard-response","186","313272","0.0-18.0-1.30","","1537","","<div class='trialDiv'><img src='trustrating_stim/white_mw089.bmp'><br><font class='baseline'><strong>Alex</strong><p>Choose number of points to send.</font><div class='respPicDiv'><img src='img/responseButtonOffersNo0L.png' class='respPic'></div></div>","4","8","Alex","trustrating_stim/white_mw089.bmp","Shared","0.6,0.2","13","0.6","170","31"
"","","","decisionFB","","608f2aa883599160c8b87a79","bdp_trlrn","Tue May 11 2021 19:41:49 GMT-0700 (Pacific Daylight Time)","494232","Untrustworthy,Trustworthy","html-keyboard-response","187","313530","0.0-18.0-2.30","","null","","<div class='trialDiv'><img src='trustrating_stim/white_mw089.bmp'><br><font class='baseline'><strong>Alex</strong><p>Choose number of points to send.</font><div class='respPicDiv'><img src='img/responseButtonOffersNo0L4.png' class='respPic'></div></div>","null","8","Alex","trustrating_stim/white_mw089.bmp","Shared","0.6,0.2","13","0.6","166","31"
"","","","feedback","","608f2aa883599160c8b87a79","bdp_trlrn","Tue May 11 2021 19:41:49 GMT-0700 (Pacific Daylight Time)","494232","Untrustworthy,Trustworthy","html-keyboard-response","188","314540","0.0-18.0-3.30","","null","","<div class='trialDiv'><img src='trustrating_stim/white_mw089.bmp'><br><font class='baseline'><strong>Alex</strong><p>Received: <strong>16</strong></font> &nbsp; &nbsp; &nbsp; &nbsp; &nbsp; &nbsp;<font class='posOutcome'>Shared back: <strong>8</strong></font></font><div class='respPicDiv'><img src='img/responseButtonOffersNo0_wht.png' class='respPic'></div></div>","null","8","Alex","trustrating_stim/white_mw089.bmp","Shared","0.6,0.2","13","0.6","174","31"
"","","","decision","","608f2aa883599160c8b87a79","bdp_trlrn","Tue May 11 2021 19:41:49 GMT-0700 (Pacific Daylight Time)","494232","Untrustworthy,Trustworthy","html-keyboard-response","189","315690","0.0-18.0-1.31","","1146","","<div class='trialDiv'><img src='trustrating_stim/white_mw071.bmp'><br><font class='baseline'><strong>Sebastian</strong><p>Choose number of points to send.</font><div class='respPicDiv'><img src='img/responseButtonOffersNo0L.png' class='respPic'></div></div>","2","8","Sebastian","trustrating_stim/white_mw071.bmp","Kept","0.2,0.6","10","0.2","179","32"
"","","","decisionFB","","608f2aa883599160c8b87a79","bdp_trlrn","Tue May 11 2021 19:41:49 GMT-0700 (Pacific Daylight Time)","494232","Untrustworthy,Trustworthy","html-keyboard-response","190","315950","0.0-18.0-2.31","","null","","<div class='trialDiv'><img src='trustrating_stim/white_mw071.bmp'><br><font class='baseline'><strong>Sebastian</strong><p>Choose number of points to send.</font><div class='respPicDiv'><img src='img/responseButtonOffersNo0L2.png' class='respPic'></div></div>","null","8","Sebastian","trustrating_stim/white_mw071.bmp","Kept","0.2,0.6","10","0.2","177","32"
"","","","feedback","","608f2aa883599160c8b87a79","bdp_trlrn","Tue May 11 2021 19:41:49 GMT-0700 (Pacific Daylight Time)","494232","Untrustworthy,Trustworthy","html-keyboard-response","191","316958","0.0-18.0-3.31","","null","","<div class='trialDiv'><img src='trustrating_stim/white_mw071.bmp'><br><font class='baseline'><strong>Sebastian</strong><p>Received: <strong>8</strong></font> &nbsp; &nbsp; &nbsp; &nbsp; &nbsp; &nbsp;<font class='negOutcome'>Shared back: <strong>0</strong></font></font><div class='respPicDiv'><img src='img/responseButtonOffersNo0_wht.png' class='respPic'></div></div>","null","8","Sebastian","trustrating_stim/white_mw071.bmp","Kept","0.2,0.6","10","0.2","177","32"
"","","","decision","","608f2aa883599160c8b87a79","bdp_trlrn","Tue May 11 2021 19:41:49 GMT-0700 (Pacific Daylight Time)","494232","Untrustworthy,Trustworthy","html-keyboard-response","192","317826","0.0-18.0-1.32","","865","","<div class='trialDiv'><img src='trustrating_stim/white_mw046.bmp'><br><font class='baseline'><strong>Marcus</strong><p>Choose number of points to send.</font><div class='respPicDiv'><img src='img/responseButtonOffersNo0L.png' class='respPic'></div></div>","1","9","Marcus","trustrating_stim/white_mw046.bmp","Kept","0.4,0.8","11","0.4","182","33"
"","","","decisionFB","","608f2aa883599160c8b87a79","bdp_trlrn","Tue May 11 2021 19:41:49 GMT-0700 (Pacific Daylight Time)","494232","Untrustworthy,Trustworthy","html-keyboard-response","193","318086","0.0-18.0-2.32","","null","","<div class='trialDiv'><img src='trustrating_stim/white_mw046.bmp'><br><font class='baseline'><strong>Marcus</strong><p>Choose number of points to send.</font><div class='respPicDiv'><img src='img/responseButtonOffersNo0L1.png' class='respPic'></div></div>","null","9","Marcus","trustrating_stim/white_mw046.bmp","Kept","0.4,0.8","11","0.4","181","33"
"","","","feedback","","608f2aa883599160c8b87a79","bdp_trlrn","Tue May 11 2021 19:41:49 GMT-0700 (Pacific Daylight Time)","494232","Untrustworthy,Trustworthy","html-keyboard-response","194","319095","0.0-18.0-3.32","","null","","<div class='trialDiv'><img src='trustrating_stim/white_mw046.bmp'><br><font class='baseline'><strong>Marcus</strong><p>Received: <strong>4</strong></font> &nbsp; &nbsp; &nbsp; &nbsp; &nbsp; &nbsp;<font class='negOutcome'>Shared back: <strong>0</strong></font></font><div class='respPicDiv'><img src='img/responseButtonOffersNo0_wht.png' class='respPic'></div></div>","null","9","Marcus","trustrating_stim/white_mw046.bmp","Kept","0.4,0.8","11","0.4","181","33"
"","","","decision","","608f2aa883599160c8b87a79","bdp_trlrn","Tue May 11 2021 19:41:49 GMT-0700 (Pacific Daylight Time)","494232","Untrustworthy,Trustworthy","html-keyboard-response","195","319890","0.0-18.0-1.33","","792","","<div class='trialDiv'><img src='trustrating_stim/white_mw089.bmp'><br><font class='baseline'><strong>Alex</strong><p>Choose number of points to send.</font><div class='respPicDiv'><img src='img/responseButtonOffersNo0L.png' class='respPic'></div></div>","5","9","Alex","trustrating_stim/white_mw089.bmp","Shared","0.6,0.2","13","0.6","186","34"
"","","","decisionFB","","608f2aa883599160c8b87a79","bdp_trlrn","Tue May 11 2021 19:41:49 GMT-0700 (Pacific Daylight Time)","494232","Untrustworthy,Trustworthy","html-keyboard-response","196","320143","0.0-18.0-2.33","","null","","<div class='trialDiv'><img src='trustrating_stim/white_mw089.bmp'><br><font class='baseline'><strong>Alex</strong><p>Choose number of points to send.</font><div class='respPicDiv'><img src='img/responseButtonOffersNo0L5.png' class='respPic'></div></div>","null","9","Alex","trustrating_stim/white_mw089.bmp","Shared","0.6,0.2","13","0.6","181","34"
"","","","feedback","","608f2aa883599160c8b87a79","bdp_trlrn","Tue May 11 2021 19:41:49 GMT-0700 (Pacific Daylight Time)","494232","Untrustworthy,Trustworthy","html-keyboard-response","197","321152","0.0-18.0-3.33","","null","","<div class='trialDiv'><img src='trustrating_stim/white_mw089.bmp'><br><font class='baseline'><strong>Alex</strong><p>Received: <strong>20</strong></font> &nbsp; &nbsp; &nbsp; &nbsp; &nbsp; &nbsp;<font class='posOutcome'>Shared back: <strong>10</strong></font></font><div class='respPicDiv'><img src='img/responseButtonOffersNo0_wht.png' class='respPic'></div></div>","null","9","Alex","trustrating_stim/white_mw089.bmp","Shared","0.6,0.2","13","0.6","191","34"
"","","","decision","","608f2aa883599160c8b87a79","bdp_trlrn","Tue May 11 2021 19:41:49 GMT-0700 (Pacific Daylight Time)","494232","Untrustworthy,Trustworthy","html-keyboard-response","198","321746","0.0-18.0-1.34","","591","","<div class='trialDiv'><img src='trustrating_stim/white_00785_941205_fb_edt.bmp'><br><font class='baseline'><strong>Jacob</strong><p>Choose number of points to send.</font><div class='respPicDiv'><img src='img/responseButtonOffersNo0L.png' class='respPic'></div></div>","5","9","Jacob","trustrating_stim/white_00785_941205_fb_edt.bmp","Shared","0.8,0.4","15","0.8","196","35"
"","","","decisionFB","","608f2aa883599160c8b87a79","bdp_trlrn","Tue May 11 2021 19:41:49 GMT-0700 (Pacific Daylight Time)","494232","Untrustworthy,Trustworthy","html-keyboard-response","199","322007","0.0-18.0-2.34","","null","","<div class='trialDiv'><img src='trustrating_stim/white_00785_941205_fb_edt.bmp'><br><font class='baseline'><strong>Jacob</strong><p>Choose number of points to send.</font><div class='respPicDiv'><img src='img/responseButtonOffersNo0L5.png' class='respPic'></div></div>","null","9","Jacob","trustrating_stim/white_00785_941205_fb_edt.bmp","Shared","0.8,0.4","15","0.8","191","35"
"","","","feedback","","608f2aa883599160c8b87a79","bdp_trlrn","Tue May 11 2021 19:41:49 GMT-0700 (Pacific Daylight Time)","494232","Untrustworthy,Trustworthy","html-keyboard-response","200","323017","0.0-18.0-3.34","","null","","<div class='trialDiv'><img src='trustrating_stim/white_00785_941205_fb_edt.bmp'><br><font class='baseline'><strong>Jacob</strong><p>Received: <strong>20</strong></font> &nbsp; &nbsp; &nbsp; &nbsp; &nbsp; &nbsp;<font class='posOutcome'>Shared back: <strong>10</strong></font></font><div class='respPicDiv'><img src='img/responseButtonOffersNo0_wht.png' class='respPic'></div></div>","null","9","Jacob","trustrating_stim/white_00785_941205_fb_edt.bmp","Shared","0.8,0.4","15","0.8","201","35"
"","","","decision","","608f2aa883599160c8b87a79","bdp_trlrn","Tue May 11 2021 19:41:49 GMT-0700 (Pacific Daylight Time)","494232","Untrustworthy,Trustworthy","html-keyboard-response","201","323506","0.0-18.0-1.35","","486","","<div class='trialDiv'><img src='trustrating_stim/white_mw071.bmp'><br><font class='baseline'><strong>Sebastian</strong><p>Choose number of points to send.</font><div class='respPicDiv'><img src='img/responseButtonOffersNo0L.png' class='respPic'></div></div>","1","9","Sebastian","trustrating_stim/white_mw071.bmp","Kept","0.2,0.6","10","0.2","206","36"
"","","","decisionFB","","608f2aa883599160c8b87a79","bdp_trlrn","Tue May 11 2021 19:41:49 GMT-0700 (Pacific Daylight Time)","494232","Untrustworthy,Trustworthy","html-keyboard-response","202","323760","0.0-18.0-2.35","","null","","<div class='trialDiv'><img src='trustrating_stim/white_mw071.bmp'><br><font class='baseline'><strong>Sebastian</strong><p>Choose number of points to send.</font><div class='respPicDiv'><img src='img/responseButtonOffersNo0L1.png' class='respPic'></div></div>","null","9","Sebastian","trustrating_stim/white_mw071.bmp","Kept","0.2,0.6","10","0.2","205","36"
