"trial_type","trial_index","time_elapsed","internal_node_id","subject_id","task","startTime","totalTime","labels","view_history","rt","event","trial","time","trialtype","success","stimulus","key_press","aground","name","faceID","outcome","agenttype","agentswpt","agentcurrpshare","face","avgRating","point_total","round"
"pavlovia","0","4","0.0-0.0","5fe354a2e44df4fb4634bbc3","bdp_trlrn","Sun Mar 12 2023 23:34:14 GMT-0400 (Eastern Daylight Time)","887299","Trustworthy,Untrustworthy","","","","","","","","","","","","","","","","","","","",""
"instructions","1","5218","0.0-1.0","5fe354a2e44df4fb4634bbc3","bdp_trlrn","Sun Mar 12 2023 23:34:14 GMT-0400 (Eastern Daylight Time)","887299","Trustworthy,Untrustworthy","[{""page_index"":0,""viewing_time"":5214}]","5214","","","","","","","","","","","","","","","","","",""
"","","","","5fe354a2e44df4fb4634bbc3","bdp_trlrn","Sun Mar 12 2023 23:34:14 GMT-0400 (Eastern Daylight Time)","887299","Trustworthy,Untrustworthy","","","fullscreenenter","2","9567","fullscreenenter","","","","","","","","","","","","","",""
"fullscreen","2","10563","0.0-2.0","5fe354a2e44df4fb4634bbc3","bdp_trlrn","Sun Mar 12 2023 23:34:14 GMT-0400 (Eastern Daylight Time)","887299","Trustworthy,Untrustworthy","","","","","","","true","","","","","","","","","","","","",""
"instructions","3","28251","0.0-4.0","5fe354a2e44df4fb4634bbc3","bdp_trlrn","Sun Mar 12 2023 23:34:14 GMT-0400 (Eastern Daylight Time)","887299","Trustworthy,Untrustworthy","[{""page_index"":0,""viewing_time"":7838},{""page_index"":1,""viewing_time"":9848}]","17686","","","","","","","","","","","","","","","","","",""
"instructions","4","29749","0.0-5.0","5fe354a2e44df4fb4634bbc3","bdp_trlrn","Sun Mar 12 2023 23:34:14 GMT-0400 (Eastern Daylight Time)","887299","Trustworthy,Untrustworthy","[{""page_index"":0,""viewing_time"":1498}]","1498","","","","","","","","","","","","","","","","","",""
"image-keyboard-response","5","32708","0.0-6.0-1.0","5fe354a2e44df4fb4634bbc3","bdp_trlrn","Sun Mar 12 2023 23:34:14 GMT-0400 (Eastern Daylight Time)","887299","Trustworthy,Untrustworthy","","2847","","","","rating","","trustrating_stim/white_00223_940128_fb_edt.bmp","2","","","","","","","","","","",""
"image-keyboard-response","6","32919","0.0-6.0-2.0","5fe354a2e44df4fb4634bbc3","bdp_trlrn","Sun Mar 12 2023 23:34:14 GMT-0400 (Eastern Daylight Time)","887299","Trustworthy,Untrustworthy","","null","","","","ratingFB","","trustrating_stim/white_00223_940128_fb_edt.bmp","null","","","","","","","","","","",""
"image-keyboard-response","7","35338","0.0-6.0-1.1","5fe354a2e44df4fb4634bbc3","bdp_trlrn","Sun Mar 12 2023 23:34:14 GMT-0400 (Eastern Daylight Time)","887299","Trustworthy,Untrustworthy","","2314","","","","rating","","trustrating_stim/white_00120_931230_fa_edt.bmp","5","","","","","","","","","","",""
"image-keyboard-response","8","35546","0.0-6.0-2.1","5fe354a2e44df4fb4634bbc3","bdp_trlrn","Sun Mar 12 2023 23:34:14 GMT-0400 (Eastern Daylight Time)","887299","Trustworthy,Untrustworthy","","null","","","","ratingFB","","trustrating_stim/white_00120_931230_fa_edt.bmp","null","","","","","","","","","","",""
"image-keyboard-response","9","38224","0.0-6.0-1.2","5fe354a2e44df4fb4634bbc3","bdp_trlrn","Sun Mar 12 2023 23:34:14 GMT-0400 (Eastern Daylight Time)","887299","Trustworthy,Untrustworthy","","2568","","","","rating","","trustrating_stim/white_mw049.bmp","4","","","","","","","","","","",""
"image-keyboard-response","10","38432","0.0-6.0-2.2","5fe354a2e44df4fb4634bbc3","bdp_trlrn","Sun Mar 12 2023 23:34:14 GMT-0400 (Eastern Daylight Time)","887299","Trustworthy,Untrustworthy","","null","","","","ratingFB","","trustrating_stim/white_mw049.bmp","null","","","","","","","","","","",""
"image-keyboard-response","11","40251","0.0-6.0-1.3","5fe354a2e44df4fb4634bbc3","bdp_trlrn","Sun Mar 12 2023 23:34:14 GMT-0400 (Eastern Daylight Time)","887299","Trustworthy,Untrustworthy","","1708","","","","rating","","trustrating_stim/white_00129_931230_fb_edt.bmp","3","","","","","","","","","","",""
"image-keyboard-response","12","40458","0.0-6.0-2.3","5fe354a2e44df4fb4634bbc3","bdp_trlrn","Sun Mar 12 2023 23:34:14 GMT-0400 (Eastern Daylight Time)","887299","Trustworthy,Untrustworthy","","null","","","","ratingFB","","trustrating_stim/white_00129_931230_fb_edt.bmp","null","","","","","","","","","","",""
"image-keyboard-response","13","42537","0.0-6.0-1.4","5fe354a2e44df4fb4634bbc3","bdp_trlrn","Sun Mar 12 2023 23:34:14 GMT-0400 (Eastern Daylight Time)","887299","Trustworthy,Untrustworthy","","1970","","","","rating","","trustrating_stim/white_mw084.bmp","3","","","","","","","","","","",""
"image-keyboard-response","14","42746","0.0-6.0-2.4","5fe354a2e44df4fb4634bbc3","bdp_trlrn","Sun Mar 12 2023 23:34:14 GMT-0400 (Eastern Daylight Time)","887299","Trustworthy,Untrustworthy","","null","","","","ratingFB","","trustrating_stim/white_mw084.bmp","null","","","","","","","","","","",""
"image-keyboard-response","15","45463","0.0-6.0-1.5","5fe354a2e44df4fb4634bbc3","bdp_trlrn","Sun Mar 12 2023 23:34:14 GMT-0400 (Eastern Daylight Time)","887299","Trustworthy,Untrustworthy","","2604","","","","rating","","trustrating_stim/white_00340_940422_fa_edt.bmp","1","","","","","","","","","","",""
"image-keyboard-response","16","45669","0.0-6.0-2.5","5fe354a2e44df4fb4634bbc3","bdp_trlrn","Sun Mar 12 2023 23:34:14 GMT-0400 (Eastern Daylight Time)","887299","Trustworthy,Untrustworthy","","null","","","","ratingFB","","trustrating_stim/white_00340_940422_fa_edt.bmp","null","","","","","","","","","","",""
"image-keyboard-response","17","47767","0.0-6.0-1.6","5fe354a2e44df4fb4634bbc3","bdp_trlrn","Sun Mar 12 2023 23:34:14 GMT-0400 (Eastern Daylight Time)","887299","Trustworthy,Untrustworthy","","1992","","","","rating","","trustrating_stim/white_00299_940422_fa_edt.bmp","5","","","","","","","","","","",""
"image-keyboard-response","18","47975","0.0-6.0-2.6","5fe354a2e44df4fb4634bbc3","bdp_trlrn","Sun Mar 12 2023 23:34:14 GMT-0400 (Eastern Daylight Time)","887299","Trustworthy,Untrustworthy","","null","","","","ratingFB","","trustrating_stim/white_00299_940422_fa_edt.bmp","null","","","","","","","","","","",""
"image-keyboard-response","19","49578","0.0-6.0-1.7","5fe354a2e44df4fb4634bbc3","bdp_trlrn","Sun Mar 12 2023 23:34:14 GMT-0400 (Eastern Daylight Time)","887299","Trustworthy,Untrustworthy","","1499","","","","rating","","trustrating_stim/white_mw060.bmp","1","","","","","","","","","","",""
"image-keyboard-response","20","49782","0.0-6.0-2.7","5fe354a2e44df4fb4634bbc3","bdp_trlrn","Sun Mar 12 2023 23:34:14 GMT-0400 (Eastern Daylight Time)","887299","Trustworthy,Untrustworthy","","null","","","","ratingFB","","trustrating_stim/white_mw060.bmp","null","","","","","","","","","","",""
"image-keyboard-response","21","51008","0.0-6.0-1.8","5fe354a2e44df4fb4634bbc3","bdp_trlrn","Sun Mar 12 2023 23:34:14 GMT-0400 (Eastern Daylight Time)","887299","Trustworthy,Untrustworthy","","1119","","","","rating","","trustrating_stim/white_00757_941201_fa_edt.bmp","2","","","","","","","","","","",""
"image-keyboard-response","22","51217","0.0-6.0-2.8","5fe354a2e44df4fb4634bbc3","bdp_trlrn","Sun Mar 12 2023 23:34:14 GMT-0400 (Eastern Daylight Time)","887299","Trustworthy,Untrustworthy","","null","","","","ratingFB","","trustrating_stim/white_00757_941201_fa_edt.bmp","null","","","","","","","","","","",""
"image-keyboard-response","23","52953","0.0-6.0-1.9","5fe354a2e44df4fb4634bbc3","bdp_trlrn","Sun Mar 12 2023 23:34:14 GMT-0400 (Eastern Daylight Time)","887299","Trustworthy,Untrustworthy","","1626","","","","rating","","trustrating_stim/white_mw033.bmp","5","","","","","","","","","","",""
"image-keyboard-response","24","53161","0.0-6.0-2.9","5fe354a2e44df4fb4634bbc3","bdp_trlrn","Sun Mar 12 2023 23:34:14 GMT-0400 (Eastern Daylight Time)","887299","Trustworthy,Untrustworthy","","null","","","","ratingFB","","trustrating_stim/white_mw033.bmp","null","","","","","","","","","","",""
"image-keyboard-response","25","55535","0.0-6.0-1.10","5fe354a2e44df4fb4634bbc3","bdp_trlrn","Sun Mar 12 2023 23:34:14 GMT-0400 (Eastern Daylight Time)","887299","Trustworthy,Untrustworthy","","2261","","","","rating","","trustrating_stim/white_00898_960530_fa_edt.bmp","4","","","","","","","","","","",""
"image-keyboard-response","26","55741","0.0-6.0-2.10","5fe354a2e44df4fb4634bbc3","bdp_trlrn","Sun Mar 12 2023 23:34:14 GMT-0400 (Eastern Daylight Time)","887299","Trustworthy,Untrustworthy","","null","","","","ratingFB","","trustrating_stim/white_00898_960530_fa_edt.bmp","null","","","","","","","","","","",""
"image-keyboard-response","27","57088","0.0-6.0-1.11","5fe354a2e44df4fb4634bbc3","bdp_trlrn","Sun Mar 12 2023 23:34:14 GMT-0400 (Eastern Daylight Time)","887299","Trustworthy,Untrustworthy","","1239","","","","rating","","trustrating_stim/white_00785_941205_fb_edt.bmp","3","","","","","","","","","","",""
"image-keyboard-response","28","57297","0.0-6.0-2.11","5fe354a2e44df4fb4634bbc3","bdp_trlrn","Sun Mar 12 2023 23:34:14 GMT-0400 (Eastern Daylight Time)","887299","Trustworthy,Untrustworthy","","null","","","","ratingFB","","trustrating_stim/white_00785_941205_fb_edt.bmp","null","","","","","","","","","","",""
"image-keyboard-response","29","60435","0.0-6.0-1.12","5fe354a2e44df4fb4634bbc3","bdp_trlrn","Sun Mar 12 2023 23:34:14 GMT-0400 (Eastern Daylight Time)","887299","Trustworthy,Untrustworthy","","3025","","","","rating","","trustrating_stim/white_00761_941201_fb_edt.bmp","5","","","","","","","","","","",""
"image-keyboard-response","30","60649","0.0-6.0-2.12","5fe354a2e44df4fb4634bbc3","bdp_trlrn","Sun Mar 12 2023 23:34:14 GMT-0400 (Eastern Daylight Time)","887299","Trustworthy,Untrustworthy","","null","","","","ratingFB","","trustrating_stim/white_00761_941201_fb_edt.bmp","null","","","","","","","","","","",""
"image-keyboard-response","31","63577","0.0-6.0-1.13","5fe354a2e44df4fb4634bbc3","bdp_trlrn","Sun Mar 12 2023 23:34:14 GMT-0400 (Eastern Daylight Time)","887299","Trustworthy,Untrustworthy","","2818","","","","rating","","trustrating_stim/white_00602_940928_fb_edt.bmp","6","","","","","","","","","","",""
"image-keyboard-response","32","63781","0.0-6.0-2.13","5fe354a2e44df4fb4634bbc3","bdp_trlrn","Sun Mar 12 2023 23:34:14 GMT-0400 (Eastern Daylight Time)","887299","Trustworthy,Untrustworthy","","null","","","","ratingFB","","trustrating_stim/white_00602_940928_fb_edt.bmp","null","","","","","","","","","","",""
"image-keyboard-response","33","66191","0.0-6.0-1.14","5fe354a2e44df4fb4634bbc3","bdp_trlrn","Sun Mar 12 2023 23:34:14 GMT-0400 (Eastern Daylight Time)","887299","Trustworthy,Untrustworthy","","2303","","","","rating","","trustrating_stim/white_mw053.bmp","5","","","","","","","","","","",""
"image-keyboard-response","34","66401","0.0-6.0-2.14","5fe354a2e44df4fb4634bbc3","bdp_trlrn","Sun Mar 12 2023 23:34:14 GMT-0400 (Eastern Daylight Time)","887299","Trustworthy,Untrustworthy","","null","","","","ratingFB","","trustrating_stim/white_mw053.bmp","null","","","","","","","","","","",""
"image-keyboard-response","35","69088","0.0-6.0-1.15","5fe354a2e44df4fb4634bbc3","bdp_trlrn","Sun Mar 12 2023 23:34:14 GMT-0400 (Eastern Daylight Time)","887299","Trustworthy,Untrustworthy","","2578","","","","rating","","trustrating_stim/white_00807_941205_fb_edt.bmp","5","","","","","","","","","","",""
"image-keyboard-response","36","69297","0.0-6.0-2.15","5fe354a2e44df4fb4634bbc3","bdp_trlrn","Sun Mar 12 2023 23:34:14 GMT-0400 (Eastern Daylight Time)","887299","Trustworthy,Untrustworthy","","null","","","","ratingFB","","trustrating_stim/white_00807_941205_fb_edt.bmp","null","","","","","","","","","","",""
"image-keyboard-response","37","71308","0.0-6.0-1.16","5fe354a2e44df4fb4634bbc3","bdp_trlrn","Sun Mar 12 2023 23:34:14 GMT-0400 (Eastern Daylight Time)","887299","Trustworthy,Untrustworthy","","1899","","","","rating","","trustrating_stim/white_00519_940519_fb_edt.bmp","6","","","","","","","","","","",""
"image-keyboard-response","38","71516","0.0-6.0-2.16","5fe354a2e44df4fb4634bbc3","bdp_trlrn","Sun Mar 12 2023 23:34:14 GMT-0400 (Eastern Daylight Time)","887299","Trustworthy,Untrustworthy","","null","","","","ratingFB","","trustrating_stim/white_00519_940519_fb_edt.bmp","null","","","","","","","","","","",""
"image-keyboard-response","39","73501","0.0-6.0-1.17","5fe354a2e44df4fb4634bbc3","bdp_trlrn","Sun Mar 12 2023 23:34:14 GMT-0400 (Eastern Daylight Time)","887299","Trustworthy,Untrustworthy","","1875","","","","rating","","trustrating_stim/white_mw097.bmp","5","","","","","","","","","","",""
"image-keyboard-response","40","73712","0.0-6.0-2.17","5fe354a2e44df4fb4634bbc3","bdp_trlrn","Sun Mar 12 2023 23:34:14 GMT-0400 (Eastern Daylight Time)","887299","Trustworthy,Untrustworthy","","null","","","","ratingFB","","trustrating_stim/white_mw097.bmp","null","","","","","","","","","","",""
"image-keyboard-response","41","75634","0.0-6.0-1.18","5fe354a2e44df4fb4634bbc3","bdp_trlrn","Sun Mar 12 2023 23:34:14 GMT-0400 (Eastern Daylight Time)","887299","Trustworthy,Untrustworthy","","1812","","","","rating","","trustrating_stim/white_mw048.bmp","4","","","","","","","","","","",""
"image-keyboard-response","42","75847","0.0-6.0-2.18","5fe354a2e44df4fb4634bbc3","bdp_trlrn","Sun Mar 12 2023 23:34:14 GMT-0400 (Eastern Daylight Time)","887299","Trustworthy,Untrustworthy","","null","","","","ratingFB","","trustrating_stim/white_mw048.bmp","null","","","","","","","","","","",""
"image-keyboard-response","43","78288","0.0-6.0-1.19","5fe354a2e44df4fb4634bbc3","bdp_trlrn","Sun Mar 12 2023 23:34:14 GMT-0400 (Eastern Daylight Time)","887299","Trustworthy,Untrustworthy","","2329","","","","rating","","trustrating_stim/white_mw066.bmp","5","","","","","","","","","","",""
"image-keyboard-response","44","78493","0.0-6.0-2.19","5fe354a2e44df4fb4634bbc3","bdp_trlrn","Sun Mar 12 2023 23:34:14 GMT-0400 (Eastern Daylight Time)","887299","Trustworthy,Untrustworthy","","null","","","","ratingFB","","trustrating_stim/white_mw066.bmp","null","","","","","","","","","","",""
"image-keyboard-response","45","80314","0.0-6.0-1.20","5fe354a2e44df4fb4634bbc3","bdp_trlrn","Sun Mar 12 2023 23:34:14 GMT-0400 (Eastern Daylight Time)","887299","Trustworthy,Untrustworthy","","1716","","","","rating","","trustrating_stim/white_mw035.bmp","3","","","","","","","","","","",""
"image-keyboard-response","46","80525","0.0-6.0-2.20","5fe354a2e44df4fb4634bbc3","bdp_trlrn","Sun Mar 12 2023 23:34:14 GMT-0400 (Eastern Daylight Time)","887299","Trustworthy,Untrustworthy","","null","","","","ratingFB","","trustrating_stim/white_mw035.bmp","null","","","","","","","","","","",""
"image-keyboard-response","47","81712","0.0-6.0-1.21","5fe354a2e44df4fb4634bbc3","bdp_trlrn","Sun Mar 12 2023 23:34:14 GMT-0400 (Eastern Daylight Time)","887299","Trustworthy,Untrustworthy","","1082","","","","rating","","trustrating_stim/white_mw063.bmp","1","","","","","","","","","","",""
"image-keyboard-response","48","81917","0.0-6.0-2.21","5fe354a2e44df4fb4634bbc3","bdp_trlrn","Sun Mar 12 2023 23:34:14 GMT-0400 (Eastern Daylight Time)","887299","Trustworthy,Untrustworthy","","null","","","","ratingFB","","trustrating_stim/white_mw063.bmp","null","","","","","","","","","","",""
"image-keyboard-response","49","83472","0.0-6.0-1.22","5fe354a2e44df4fb4634bbc3","bdp_trlrn","Sun Mar 12 2023 23:34:14 GMT-0400 (Eastern Daylight Time)","887299","Trustworthy,Untrustworthy","","1449","","","","rating","","trustrating_stim/white_mw099.bmp","2","","","","","","","","","","",""
"image-keyboard-response","50","83680","0.0-6.0-2.22","5fe354a2e44df4fb4634bbc3","bdp_trlrn","Sun Mar 12 2023 23:34:14 GMT-0400 (Eastern Daylight Time)","887299","Trustworthy,Untrustworthy","","null","","","","ratingFB","","trustrating_stim/white_mw099.bmp","null","","","","","","","","","","",""
"image-keyboard-response","51","85382","0.0-6.0-1.23","5fe354a2e44df4fb4634bbc3","bdp_trlrn","Sun Mar 12 2023 23:34:14 GMT-0400 (Eastern Daylight Time)","887299","Trustworthy,Untrustworthy","","1593","","","","rating","","trustrating_stim/white_00109_931230_fa_edt.bmp","2","","","","","","","","","","",""
"image-keyboard-response","52","85589","0.0-6.0-2.23","5fe354a2e44df4fb4634bbc3","bdp_trlrn","Sun Mar 12 2023 23:34:14 GMT-0400 (Eastern Daylight Time)","887299","Trustworthy,Untrustworthy","","null","","","","ratingFB","","trustrating_stim/white_00109_931230_fa_edt.bmp","null","","","","","","","","","","",""
"image-keyboard-response","53","87479","0.0-6.0-1.24","5fe354a2e44df4fb4634bbc3","bdp_trlrn","Sun Mar 12 2023 23:34:14 GMT-0400 (Eastern Daylight Time)","887299","Trustworthy,Untrustworthy","","1785","","","","rating","","trustrating_stim/white_mw046.bmp","3","","","","","","","","","","",""
"image-keyboard-response","54","87684","0.0-6.0-2.24","5fe354a2e44df4fb4634bbc3","bdp_trlrn","Sun Mar 12 2023 23:34:14 GMT-0400 (Eastern Daylight Time)","887299","Trustworthy,Untrustworthy","","null","","","","ratingFB","","trustrating_stim/white_mw046.bmp","null","","","","","","","","","","",""
"image-keyboard-response","55","89161","0.0-6.0-1.25","5fe354a2e44df4fb4634bbc3","bdp_trlrn","Sun Mar 12 2023 23:34:14 GMT-0400 (Eastern Daylight Time)","887299","Trustworthy,Untrustworthy","","1367","","","","rating","","trustrating_stim/white_mw056.bmp","3","","","","","","","","","","",""
"image-keyboard-response","56","89365","0.0-6.0-2.25","5fe354a2e44df4fb4634bbc3","bdp_trlrn","Sun Mar 12 2023 23:34:14 GMT-0400 (Eastern Daylight Time)","887299","Trustworthy,Untrustworthy","","null","","","","ratingFB","","trustrating_stim/white_mw056.bmp","null","","","","","","","","","","",""
"image-keyboard-response","57","91312","0.0-6.0-1.26","5fe354a2e44df4fb4634bbc3","bdp_trlrn","Sun Mar 12 2023 23:34:14 GMT-0400 (Eastern Daylight Time)","887299","Trustworthy,Untrustworthy","","1839","","","","rating","","trustrating_stim/white_mw071.bmp","2","","","","","","","","","","",""
"image-keyboard-response","58","91517","0.0-6.0-2.26","5fe354a2e44df4fb4634bbc3","bdp_trlrn","Sun Mar 12 2023 23:34:14 GMT-0400 (Eastern Daylight Time)","887299","Trustworthy,Untrustworthy","","null","","","","ratingFB","","trustrating_stim/white_mw071.bmp","null","","","","","","","","","","",""
"image-keyboard-response","59","93938","0.0-6.0-1.27","5fe354a2e44df4fb4634bbc3","bdp_trlrn","Sun Mar 12 2023 23:34:14 GMT-0400 (Eastern Daylight Time)","887299","Trustworthy,Untrustworthy","","2313","","","","rating","","trustrating_stim/white_mw089.bmp","3","","","","","","","","","","",""
"image-keyboard-response","60","94152","0.0-6.0-2.27","5fe354a2e44df4fb4634bbc3","bdp_trlrn","Sun Mar 12 2023 23:34:14 GMT-0400 (Eastern Daylight Time)","887299","Trustworthy,Untrustworthy","","null","","","","ratingFB","","trustrating_stim/white_mw089.bmp","null","","","","","","","","","","",""
"image-keyboard-response","61","95693","0.0-6.0-1.28","5fe354a2e44df4fb4634bbc3","bdp_trlrn","Sun Mar 12 2023 23:34:14 GMT-0400 (Eastern Daylight Time)","887299","Trustworthy,Untrustworthy","","1432","","","","rating","","trustrating_stim/white_00659_941121_fa_edt.bmp","2","","","","","","","","","","",""
"image-keyboard-response","62","95903","0.0-6.0-2.28","5fe354a2e44df4fb4634bbc3","bdp_trlrn","Sun Mar 12 2023 23:34:14 GMT-0400 (Eastern Daylight Time)","887299","Trustworthy,Untrustworthy","","null","","","","ratingFB","","trustrating_stim/white_00659_941121_fa_edt.bmp","null","","","","","","","","","","",""
"image-keyboard-response","63","96882","0.0-6.0-1.29","5fe354a2e44df4fb4634bbc3","bdp_trlrn","Sun Mar 12 2023 23:34:14 GMT-0400 (Eastern Daylight Time)","887299","Trustworthy,Untrustworthy","","869","","","","rating","","trustrating_stim/white_00577_940928_fa_edt.bmp","1","","","","","","","","","","",""
"image-keyboard-response","64","97096","0.0-6.0-2.29","5fe354a2e44df4fb4634bbc3","bdp_trlrn","Sun Mar 12 2023 23:34:14 GMT-0400 (Eastern Daylight Time)","887299","Trustworthy,Untrustworthy","","null","","","","ratingFB","","trustrating_stim/white_00577_940928_fa_edt.bmp","null","","","","","","","","","","",""
"image-keyboard-response","65","99296","0.0-6.0-1.30","5fe354a2e44df4fb4634bbc3","bdp_trlrn","Sun Mar 12 2023 23:34:14 GMT-0400 (Eastern Daylight Time)","887299","Trustworthy,Untrustworthy","","2087","","","","rating","","trustrating_stim/white_00785_941205_fb_edt.bmp","3","","","","","","","","","","",""
"image-keyboard-response","66","99501","0.0-6.0-2.30","5fe354a2e44df4fb4634bbc3","bdp_trlrn","Sun Mar 12 2023 23:34:14 GMT-0400 (Eastern Daylight Time)","887299","Trustworthy,Untrustworthy","","null","","","","ratingFB","","trustrating_stim/white_00785_941205_fb_edt.bmp","null","","","","","","","","","","",""
"image-keyboard-response","67","100754","0.0-6.0-1.31","5fe354a2e44df4fb4634bbc3","bdp_trlrn","Sun Mar 12 2023 23:34:14 GMT-0400 (Eastern Daylight Time)","887299","Trustworthy,Untrustworthy","","1145","","","","rating","","trustrating_stim/white_mw060.bmp","2","","","","","","","","","","",""
"image-keyboard-response","68","100964","0.0-6.0-2.31","5fe354a2e44df4fb4634bbc3","bdp_trlrn","Sun Mar 12 2023 23:34:14 GMT-0400 (Eastern Daylight Time)","887299","Trustworthy,Untrustworthy","","null","","","","ratingFB","","trustrating_stim/white_mw060.bmp","null","","","","","","","","","","",""
"image-keyboard-response","69","102633","0.0-6.0-1.32","5fe354a2e44df4fb4634bbc3","bdp_trlrn","Sun Mar 12 2023 23:34:14 GMT-0400 (Eastern Daylight Time)","887299","Trustworthy,Untrustworthy","","1561","","","","rating","","trustrating_stim/white_00602_940928_fb_edt.bmp","6","","","","","","","","","","",""
"image-keyboard-response","70","102844","0.0-6.0-2.32","5fe354a2e44df4fb4634bbc3","bdp_trlrn","Sun Mar 12 2023 23:34:14 GMT-0400 (Eastern Daylight Time)","887299","Trustworthy,Untrustworthy","","null","","","","ratingFB","","trustrating_stim/white_00602_940928_fb_edt.bmp","null","","","","","","","","","","",""
"image-keyboard-response","71","105174","0.0-6.0-1.33","5fe354a2e44df4fb4634bbc3","bdp_trlrn","Sun Mar 12 2023 23:34:14 GMT-0400 (Eastern Daylight Time)","887299","Trustworthy,Untrustworthy","","2224","","","","rating","","trustrating_stim/white_mw063.bmp","2","","","","","","","","","","",""
"image-keyboard-response","72","105380","0.0-6.0-2.33","5fe354a2e44df4fb4634bbc3","bdp_trlrn","Sun Mar 12 2023 23:34:14 GMT-0400 (Eastern Daylight Time)","887299","Trustworthy,Untrustworthy","","null","","","","ratingFB","","trustrating_stim/white_mw063.bmp","null","","","","","","","","","","",""
"image-keyboard-response","73","108057","0.0-6.0-1.34","5fe354a2e44df4fb4634bbc3","bdp_trlrn","Sun Mar 12 2023 23:34:14 GMT-0400 (Eastern Daylight Time)","887299","Trustworthy,Untrustworthy","","2571","","","","rating","","trustrating_stim/white_00223_940128_fb_edt.bmp","1","","","","","","","","","","",""
"image-keyboard-response","74","108260","0.0-6.0-2.34","5fe354a2e44df4fb4634bbc3","bdp_trlrn","Sun Mar 12 2023 23:34:14 GMT-0400 (Eastern Daylight Time)","887299","Trustworthy,Untrustworthy","","null","","","","ratingFB","","trustrating_stim/white_00223_940128_fb_edt.bmp","null","","","","","","","","","","",""
"image-keyboard-response","75","109277","0.0-6.0-1.35","5fe354a2e44df4fb4634bbc3","bdp_trlrn","Sun Mar 12 2023 23:34:14 GMT-0400 (Eastern Daylight Time)","887299","Trustworthy,Untrustworthy","","911","","","","rating","","trustrating_stim/white_00340_940422_fa_edt.bmp","1","","","","","","","","","","",""
"image-keyboard-response","76","109486","0.0-6.0-2.35","5fe354a2e44df4fb4634bbc3","bdp_trlrn","Sun Mar 12 2023 23:34:14 GMT-0400 (Eastern Daylight Time)","887299","Trustworthy,Untrustworthy","","null","","","","ratingFB","","trustrating_stim/white_00340_940422_fa_edt.bmp","null","","","","","","","","","","",""
"image-keyboard-response","77","111727","0.0-6.0-1.36","5fe354a2e44df4fb4634bbc3","bdp_trlrn","Sun Mar 12 2023 23:34:14 GMT-0400 (Eastern Daylight Time)","887299","Trustworthy,Untrustworthy","","2129","","","","rating","","trustrating_stim/white_00807_941205_fb_edt.bmp","4","","","","","","","","","","",""
"image-keyboard-response","78","111936","0.0-6.0-2.36","5fe354a2e44df4fb4634bbc3","bdp_trlrn","Sun Mar 12 2023 23:34:14 GMT-0400 (Eastern Daylight Time)","887299","Trustworthy,Untrustworthy","","null","","","","ratingFB","","trustrating_stim/white_00807_941205_fb_edt.bmp","null","","","","","","","","","","",""
"image-keyboard-response","79","113847","0.0-6.0-1.37","5fe354a2e44df4fb4634bbc3","bdp_trlrn","Sun Mar 12 2023 23:34:14 GMT-0400 (Eastern Daylight Time)","887299","Trustworthy,Untrustworthy","","1799","","","","rating","","trustrating_stim/white_00659_941121_fa_edt.bmp","3","","","","","","","","","","",""
"image-keyboard-response","80","114056","0.0-6.0-2.37","5fe354a2e44df4fb4634bbc3","bdp_trlrn","Sun Mar 12 2023 23:34:14 GMT-0400 (Eastern Daylight Time)","887299","Trustworthy,Untrustworthy","","null","","","","ratingFB","","trustrating_stim/white_00659_941121_fa_edt.bmp","null","","","","","","","","","","",""
"image-keyboard-response","81","115295","0.0-6.0-1.38","5fe354a2e44df4fb4634bbc3","bdp_trlrn","Sun Mar 12 2023 23:34:14 GMT-0400 (Eastern Daylight Time)","887299","Trustworthy,Untrustworthy","","1129","","","","rating","","trustrating_stim/white_mw084.bmp","4","","","","","","","","","","",""
"image-keyboard-response","82","115500","0.0-6.0-2.38","5fe354a2e44df4fb4634bbc3","bdp_trlrn","Sun Mar 12 2023 23:34:14 GMT-0400 (Eastern Daylight Time)","887299","Trustworthy,Untrustworthy","","null","","","","ratingFB","","trustrating_stim/white_mw084.bmp","null","","","","","","","","","","",""
"image-keyboard-response","83","117264","0.0-6.0-1.39","5fe354a2e44df4fb4634bbc3","bdp_trlrn","Sun Mar 12 2023 23:34:14 GMT-0400 (Eastern Daylight Time)","887299","Trustworthy,Untrustworthy","","1656","","","","rating","","trustrating_stim/white_00299_940422_fa_edt.bmp","5","","","","","","","","","","",""
"image-keyboard-response","84","117472","0.0-6.0-2.39","5fe354a2e44df4fb4634bbc3","bdp_trlrn","Sun Mar 12 2023 23:34:14 GMT-0400 (Eastern Daylight Time)","887299","Trustworthy,Untrustworthy","","null","","","","ratingFB","","trustrating_stim/white_00299_940422_fa_edt.bmp","null","","","","","","","","","","",""
"image-keyboard-response","85","118888","0.0-6.0-1.40","5fe354a2e44df4fb4634bbc3","bdp_trlrn","Sun Mar 12 2023 23:34:14 GMT-0400 (Eastern Daylight Time)","887299","Trustworthy,Untrustworthy","","1307","","","","rating","","trustrating_stim/white_mw053.bmp","5","","","","","","","","","","",""
"image-keyboard-response","86","119094","0.0-6.0-2.40","5fe354a2e44df4fb4634bbc3","bdp_trlrn","Sun Mar 12 2023 23:34:14 GMT-0400 (Eastern Daylight Time)","887299","Trustworthy,Untrustworthy","","null","","","","ratingFB","","trustrating_stim/white_mw053.bmp","null","","","","","","","","","","",""
"image-keyboard-response","87","120439","0.0-6.0-1.41","5fe354a2e44df4fb4634bbc3","bdp_trlrn","Sun Mar 12 2023 23:34:14 GMT-0400 (Eastern Daylight Time)","887299","Trustworthy,Untrustworthy","","1231","","","","rating","","trustrating_stim/white_mw033.bmp","4","","","","","","","","","","",""
"image-keyboard-response","88","120645","0.0-6.0-2.41","5fe354a2e44df4fb4634bbc3","bdp_trlrn","Sun Mar 12 2023 23:34:14 GMT-0400 (Eastern Daylight Time)","887299","Trustworthy,Untrustworthy","","null","","","","ratingFB","","trustrating_stim/white_mw033.bmp","null","","","","","","","","","","",""
"image-keyboard-response","89","122776","0.0-6.0-1.42","5fe354a2e44df4fb4634bbc3","bdp_trlrn","Sun Mar 12 2023 23:34:14 GMT-0400 (Eastern Daylight Time)","887299","Trustworthy,Untrustworthy","","2020","","","","rating","","trustrating_stim/white_00109_931230_fa_edt.bmp","4","","","","","","","","","","",""
"image-keyboard-response","90","122983","0.0-6.0-2.42","5fe354a2e44df4fb4634bbc3","bdp_trlrn","Sun Mar 12 2023 23:34:14 GMT-0400 (Eastern Daylight Time)","887299","Trustworthy,Untrustworthy","","null","","","","ratingFB","","trustrating_stim/white_00109_931230_fa_edt.bmp","null","","","","","","","","","","",""
"image-keyboard-response","91","124396","0.0-6.0-1.43","5fe354a2e44df4fb4634bbc3","bdp_trlrn","Sun Mar 12 2023 23:34:14 GMT-0400 (Eastern Daylight Time)","887299","Trustworthy,Untrustworthy","","1300","","","","rating","","trustrating_stim/white_00129_931230_fb_edt.bmp","5","","","","","","","","","","",""
"image-keyboard-response","92","124607","0.0-6.0-2.43","5fe354a2e44df4fb4634bbc3","bdp_trlrn","Sun Mar 12 2023 23:34:14 GMT-0400 (Eastern Daylight Time)","887299","Trustworthy,Untrustworthy","","null","","","","ratingFB","","trustrating_stim/white_00129_931230_fb_edt.bmp","null","","","","","","","","","","",""
"image-keyboard-response","93","127043","0.0-6.0-1.44","5fe354a2e44df4fb4634bbc3","bdp_trlrn","Sun Mar 12 2023 23:34:14 GMT-0400 (Eastern Daylight Time)","887299","Trustworthy,Untrustworthy","","2326","","","","rating","","trustrating_stim/white_mw066.bmp","5","","","","","","","","","","",""
"image-keyboard-response","94","127252","0.0-6.0-2.44","5fe354a2e44df4fb4634bbc3","bdp_trlrn","Sun Mar 12 2023 23:34:14 GMT-0400 (Eastern Daylight Time)","887299","Trustworthy,Untrustworthy","","null","","","","ratingFB","","trustrating_stim/white_mw066.bmp","null","","","","","","","","","","",""
"image-keyboard-response","95","129150","0.0-6.0-1.45","5fe354a2e44df4fb4634bbc3","bdp_trlrn","Sun Mar 12 2023 23:34:14 GMT-0400 (Eastern Daylight Time)","887299","Trustworthy,Untrustworthy","","1793","","","","rating","","trustrating_stim/white_00577_940928_fa_edt.bmp","3","","","","","","","","","","",""
"image-keyboard-response","96","129355","0.0-6.0-2.45","5fe354a2e44df4fb4634bbc3","bdp_trlrn","Sun Mar 12 2023 23:34:14 GMT-0400 (Eastern Daylight Time)","887299","Trustworthy,Untrustworthy","","null","","","","ratingFB","","trustrating_stim/white_00577_940928_fa_edt.bmp","null","","","","","","","","","","",""
"image-keyboard-response","97","131098","0.0-6.0-1.46","5fe354a2e44df4fb4634bbc3","bdp_trlrn","Sun Mar 12 2023 23:34:14 GMT-0400 (Eastern Daylight Time)","887299","Trustworthy,Untrustworthy","","1637","","","","rating","","trustrating_stim/white_00519_940519_fb_edt.bmp","7","","","","","","","","","","",""
"image-keyboard-response","98","131303","0.0-6.0-2.46","5fe354a2e44df4fb4634bbc3","bdp_trlrn","Sun Mar 12 2023 23:34:14 GMT-0400 (Eastern Daylight Time)","887299","Trustworthy,Untrustworthy","","null","","","","ratingFB","","trustrating_stim/white_00519_940519_fb_edt.bmp","null","","","","","","","","","","",""
"image-keyboard-response","99","133578","0.0-6.0-1.47","5fe354a2e44df4fb4634bbc3","bdp_trlrn","Sun Mar 12 2023 23:34:14 GMT-0400 (Eastern Daylight Time)","887299","Trustworthy,Untrustworthy","","2161","","","","rating","","trustrating_stim/white_00898_960530_fa_edt.bmp","6","","","","","","","","","","",""
"image-keyboard-response","100","133791","0.0-6.0-2.47","5fe354a2e44df4fb4634bbc3","bdp_trlrn","Sun Mar 12 2023 23:34:14 GMT-0400 (Eastern Daylight Time)","887299","Trustworthy,Untrustworthy","","null","","","","ratingFB","","trustrating_stim/white_00898_960530_fa_edt.bmp","null","","","","","","","","","","",""
"image-keyboard-response","101","136104","0.0-6.0-1.48","5fe354a2e44df4fb4634bbc3","bdp_trlrn","Sun Mar 12 2023 23:34:14 GMT-0400 (Eastern Daylight Time)","887299","Trustworthy,Untrustworthy","","2202","","","","rating","","trustrating_stim/white_00120_931230_fa_edt.bmp","7","","","","","","","","","","",""
"image-keyboard-response","102","136316","0.0-6.0-2.48","5fe354a2e44df4fb4634bbc3","bdp_trlrn","Sun Mar 12 2023 23:34:14 GMT-0400 (Eastern Daylight Time)","887299","Trustworthy,Untrustworthy","","null","","","","ratingFB","","trustrating_stim/white_00120_931230_fa_edt.bmp","null","","","","","","","","","","",""
"image-keyboard-response","103","138394","0.0-6.0-1.49","5fe354a2e44df4fb4634bbc3","bdp_trlrn","Sun Mar 12 2023 23:34:14 GMT-0400 (Eastern Daylight Time)","887299","Trustworthy,Untrustworthy","","1962","","","","rating","","trustrating_stim/white_mw089.bmp","4","","","","","","","","","","",""
"image-keyboard-response","104","138603","0.0-6.0-2.49","5fe354a2e44df4fb4634bbc3","bdp_trlrn","Sun Mar 12 2023 23:34:14 GMT-0400 (Eastern Daylight Time)","887299","Trustworthy,Untrustworthy","","null","","","","ratingFB","","trustrating_stim/white_mw089.bmp","null","","","","","","","","","","",""
"image-keyboard-response","105","142161","0.0-6.0-1.50","5fe354a2e44df4fb4634bbc3","bdp_trlrn","Sun Mar 12 2023 23:34:14 GMT-0400 (Eastern Daylight Time)","887299","Trustworthy,Untrustworthy","","3451","","","","rating","","trustrating_stim/white_00761_941201_fb_edt.bmp","4","","","","","","","","","","",""
"image-keyboard-response","106","142371","0.0-6.0-2.50","5fe354a2e44df4fb4634bbc3","bdp_trlrn","Sun Mar 12 2023 23:34:14 GMT-0400 (Eastern Daylight Time)","887299","Trustworthy,Untrustworthy","","null","","","","ratingFB","","trustrating_stim/white_00761_941201_fb_edt.bmp","null","","","","","","","","","","",""
"image-keyboard-response","107","144215","0.0-6.0-1.51","5fe354a2e44df4fb4634bbc3","bdp_trlrn","Sun Mar 12 2023 23:34:14 GMT-0400 (Eastern Daylight Time)","887299","Trustworthy,Untrustworthy","","1730","","","","rating","","trustrating_stim/white_mw097.bmp","3","","","","","","","","","","",""
"image-keyboard-response","108","144423","0.0-6.0-2.51","5fe354a2e44df4fb4634bbc3","bdp_trlrn","Sun Mar 12 2023 23:34:14 GMT-0400 (Eastern Daylight Time)","887299","Trustworthy,Untrustworthy","","null","","","","ratingFB","","trustrating_stim/white_mw097.bmp","null","","","","","","","","","","",""
"image-keyboard-response","109","146227","0.0-6.0-1.52","5fe354a2e44df4fb4634bbc3","bdp_trlrn","Sun Mar 12 2023 23:34:14 GMT-0400 (Eastern Daylight Time)","887299","Trustworthy,Untrustworthy","","1695","","","","rating","","trustrating_stim/white_mw049.bmp","4","","","","","","","","","","",""
"image-keyboard-response","110","146437","0.0-6.0-2.52","5fe354a2e44df4fb4634bbc3","bdp_trlrn","Sun Mar 12 2023 23:34:14 GMT-0400 (Eastern Daylight Time)","887299","Trustworthy,Untrustworthy","","null","","","","ratingFB","","trustrating_stim/white_mw049.bmp","null","","","","","","","","","","",""
"image-keyboard-response","111","149933","0.0-6.0-1.53","5fe354a2e44df4fb4634bbc3","bdp_trlrn","Sun Mar 12 2023 23:34:14 GMT-0400 (Eastern Daylight Time)","887299","Trustworthy,Untrustworthy","","3383","","","","rating","","trustrating_stim/white_mw099.bmp","5","","","","","","","","","","",""
"image-keyboard-response","112","150143","0.0-6.0-2.53","5fe354a2e44df4fb4634bbc3","bdp_trlrn","Sun Mar 12 2023 23:34:14 GMT-0400 (Eastern Daylight Time)","887299","Trustworthy,Untrustworthy","","null","","","","ratingFB","","trustrating_stim/white_mw099.bmp","null","","","","","","","","","","",""
"image-keyboard-response","113","151556","0.0-6.0-1.54","5fe354a2e44df4fb4634bbc3","bdp_trlrn","Sun Mar 12 2023 23:34:14 GMT-0400 (Eastern Daylight Time)","887299","Trustworthy,Untrustworthy","","1304","","","","rating","","trustrating_stim/white_mw046.bmp","5","","","","","","","","","","",""
"image-keyboard-response","114","151763","0.0-6.0-2.54","5fe354a2e44df4fb4634bbc3","bdp_trlrn","Sun Mar 12 2023 23:34:14 GMT-0400 (Eastern Daylight Time)","887299","Trustworthy,Untrustworthy","","null","","","","ratingFB","","trustrating_stim/white_mw046.bmp","null","","","","","","","","","","",""
"image-keyboard-response","115","153542","0.0-6.0-1.55","5fe354a2e44df4fb4634bbc3","bdp_trlrn","Sun Mar 12 2023 23:34:14 GMT-0400 (Eastern Daylight Time)","887299","Trustworthy,Untrustworthy","","1662","","","","rating","","trustrating_stim/white_00757_941201_fa_edt.bmp","4","","","","","","","","","","",""
"image-keyboard-response","116","153746","0.0-6.0-2.55","5fe354a2e44df4fb4634bbc3","bdp_trlrn","Sun Mar 12 2023 23:34:14 GMT-0400 (Eastern Daylight Time)","887299","Trustworthy,Untrustworthy","","null","","","","ratingFB","","trustrating_stim/white_00757_941201_fa_edt.bmp","null","","","","","","","","","","",""
"image-keyboard-response","117","155164","0.0-6.0-1.56","5fe354a2e44df4fb4634bbc3","bdp_trlrn","Sun Mar 12 2023 23:34:14 GMT-0400 (Eastern Daylight Time)","887299","Trustworthy,Untrustworthy","","1309","","","","rating","","trustrating_stim/white_mw035.bmp","5","","","","","","","","","","",""
"image-keyboard-response","118","155371","0.0-6.0-2.56","5fe354a2e44df4fb4634bbc3","bdp_trlrn","Sun Mar 12 2023 23:34:14 GMT-0400 (Eastern Daylight Time)","887299","Trustworthy,Untrustworthy","","null","","","","ratingFB","","trustrating_stim/white_mw035.bmp","null","","","","","","","","","","",""
"image-keyboard-response","119","156584","0.0-6.0-1.57","5fe354a2e44df4fb4634bbc3","bdp_trlrn","Sun Mar 12 2023 23:34:14 GMT-0400 (Eastern Daylight Time)","887299","Trustworthy,Untrustworthy","","1100","","","","rating","","trustrating_stim/white_mw048.bmp","3","","","","","","","","","","",""
"image-keyboard-response","120","156790","0.0-6.0-2.57","5fe354a2e44df4fb4634bbc3","bdp_trlrn","Sun Mar 12 2023 23:34:14 GMT-0400 (Eastern Daylight Time)","887299","Trustworthy,Untrustworthy","","null","","","","ratingFB","","trustrating_stim/white_mw048.bmp","null","","","","","","","","","","",""
"image-keyboard-response","121","158587","0.0-6.0-1.58","5fe354a2e44df4fb4634bbc3","bdp_trlrn","Sun Mar 12 2023 23:34:14 GMT-0400 (Eastern Daylight Time)","887299","Trustworthy,Untrustworthy","","1686","","","","rating","","trustrating_stim/white_mw056.bmp","3","","","","","","","","","","",""
"image-keyboard-response","122","158794","0.0-6.0-2.58","5fe354a2e44df4fb4634bbc3","bdp_trlrn","Sun Mar 12 2023 23:34:14 GMT-0400 (Eastern Daylight Time)","887299","Trustworthy,Untrustworthy","","null","","","","ratingFB","","trustrating_stim/white_mw056.bmp","null","","","","","","","","","","",""
"image-keyboard-response","123","160788","0.0-6.0-1.59","5fe354a2e44df4fb4634bbc3","bdp_trlrn","Sun Mar 12 2023 23:34:14 GMT-0400 (Eastern Daylight Time)","887299","Trustworthy,Untrustworthy","","1888","","","","rating","","trustrating_stim/white_mw071.bmp","4","","","","","","","","","","",""
"image-keyboard-response","124","160997","0.0-6.0-2.59","5fe354a2e44df4fb4634bbc3","bdp_trlrn","Sun Mar 12 2023 23:34:14 GMT-0400 (Eastern Daylight Time)","887299","Trustworthy,Untrustworthy","","null","","","","ratingFB","","trustrating_stim/white_mw071.bmp","null","","","","","","","","","","",""
"instructions","125","163655","0.0-7.0","5fe354a2e44df4fb4634bbc3","bdp_trlrn","Sun Mar 12 2023 23:34:14 GMT-0400 (Eastern Daylight Time)","887299","Trustworthy,Untrustworthy","[{""page_index"":0,""viewing_time"":2547}]","2548","","","","","","","","","","","","","","","","","",""
"instructions","126","324679","0.0-8.0","5fe354a2e44df4fb4634bbc3","bdp_trlrn","Sun Mar 12 2023 23:34:14 GMT-0400 (Eastern Daylight Time)","887299","Trustworthy,Untrustworthy","[{""page_index"":0,""viewing_time"":71786},{""page_index"":1,""viewing_time"":13566},{""page_index"":2,""viewing_time"":7227},{""page_index"":3,""viewing_time"":8000},{""page_index"":4,""viewing_time"":7879},{""page_index"":5,""viewing_time"":30337},{""page_index"":6,""viewing_time"":17936},{""page_index"":7,""viewing_time"":4181}]","160914","","","","","","","","","","","","","","","","","",""
"html-keyboard-response","127","329000","0.0-9.0","5fe354a2e44df4fb4634bbc3","bdp_trlrn","Sun Mar 12 2023 23:34:14 GMT-0400 (Eastern Daylight Time)","887299","Trustworthy,Untrustworthy","","4315","","","","","","<div class='header' style='text-align:left; position: absolute; top: 5%; left: 5%;'><small>Task 2 of 5</small></div><div class='instruxDiv'><p><strong>1) What is the minimum number of points you can choose to send to your partner?</strong></p><p>a) 0</p><p>b) 1</p><p>c) 5</p>","A","","","","","","","","","","",""
"html-keyboard-response","128","333908","0.0-10.0","5fe354a2e44df4fb4634bbc3","bdp_trlrn","Sun Mar 12 2023 23:34:14 GMT-0400 (Eastern Daylight Time)","887299","Trustworthy,Untrustworthy","","4798","","","","","","<div class='header' style='text-align:left; position: absolute; top: 5%; left: 5%;'><small>Task 2 of 5</small></div><div class='instruxDiv'><p><strong>1) What is the minimum number of points you can choose to send to your partner?</strong></p><p style='color:#FF0000'>a) 0</p><p>b) 1</p><p>c) 5</p><h3 style='color:#FF0000'>Incorrect!</h3><h3 class='center-content'>The correct response is b).</h3><h3 class='center-content'>The minimum number of points you can choose to send to your partner is 1 point.</h3><p><em>Press SPACEBAR to continue</em></p></div>"," ","","","","","","","","","","",""
"html-keyboard-response","129","340299","0.0-11.0","5fe354a2e44df4fb4634bbc3","bdp_trlrn","Sun Mar 12 2023 23:34:14 GMT-0400 (Eastern Daylight Time)","887299","Trustworthy,Untrustworthy","","6286","","","","","","<div class='header' style='text-align:left; position: absolute; top: 5%; left: 5%;'><small>Task 2 of 5</small></div><div class='instruxDiv'><p><strong>2) What is the maximum number of points you can choose to send to your partner?</strong></p><p>a) 8</p><p>b) 5</p><p>c) 3</p>","B","","","","","","","","","","",""
"html-keyboard-response","130","342304","0.0-12.0","5fe354a2e44df4fb4634bbc3","bdp_trlrn","Sun Mar 12 2023 23:34:14 GMT-0400 (Eastern Daylight Time)","887299","Trustworthy,Untrustworthy","","1897","","","","","","<div class='header' style='text-align:left; position: absolute; top: 5%; left: 5%;'><small>Task 2 of 5</small></div><div class='instruxDiv'><p><strong>2) What is the maximum number of points you can choose to send to your partner?</strong></p><p>a) 8</p><p style='color:#00FF00'>b) 5</p><p>c) 3</p><h3 style='color:#00FF00'>Correct!</h3><h3 class='center-content'>The correct response is b).</h3><h3 class='center-content'>The maximum number of points you can choose to send to your partner is 5 points.</h3><p><em>Press SPACEBAR to continue</em></p></div>"," ","","","","","","","","","","",""
"html-keyboard-response","131","345536","0.0-13.0","5fe354a2e44df4fb4634bbc3","bdp_trlrn","Sun Mar 12 2023 23:34:14 GMT-0400 (Eastern Daylight Time)","887299","Trustworthy,Untrustworthy","","3128","","","","","","<div class='header' style='text-align:left; position: absolute; top: 5%; left: 5%;'><small>Task 2 of 5</small></div><div class='instruxDiv'><p><strong>3) What happens to the amount of points you send to your partner?</strong></p><p>a) Nothing</p><p>b) It doubles</p><p>c) It quadruples</p>","C","","","","","","","","","","",""
"html-keyboard-response","132","346640","0.0-14.0","5fe354a2e44df4fb4634bbc3","bdp_trlrn","Sun Mar 12 2023 23:34:14 GMT-0400 (Eastern Daylight Time)","887299","Trustworthy,Untrustworthy","","1002","","","","","","<div class='header' style='text-align:left; position: absolute; top: 5%; left: 5%;'><small>Task 2 of 5</small></div><div class='instruxDiv'><p><strong>3) What happens to the amount of points you send to your partner?</strong></p><p>a) Nothing</p><p>b) It doubles</p><p style='color:#00FF00'>c) It quadruples</p><h3 style='color:#00FF00'>Correct!</h3><h3 class='center-content'>The correct response is c).</h3><h3 class='center-content'>The amount of points you send to your partner quadruples.</h3><p><em>Press SPACEBAR to continue</em></p></div>"," ","","","","","","","","","","",""
"html-keyboard-response","133","367801","0.0-15.0","5fe354a2e44df4fb4634bbc3","bdp_trlrn","Sun Mar 12 2023 23:34:14 GMT-0400 (Eastern Daylight Time)","887299","Trustworthy,Untrustworthy","","21059","","","","","","<div class='header' style='text-align:left; position: absolute; top: 5%; left: 5%;'><small>Task 2 of 5</small></div><div class='instruxDiv'><p><strong>4) If you decided to share 4 out of 5 points with your partner, and they decided to share half of the amount they received with you, how many points would you receive back from them on this round?</strong></p><p>a) 16</p><p>b) 0</p><p>c) 8</p>","C","","","","","","","","","","",""
"html-keyboard-response","134","369133","0.0-16.0","5fe354a2e44df4fb4634bbc3","bdp_trlrn","Sun Mar 12 2023 23:34:14 GMT-0400 (Eastern Daylight Time)","887299","Trustworthy,Untrustworthy","","1220","","","","","","<div class='header' style='text-align:left; position: absolute; top: 5%; left: 5%;'><small>Task 2 of 5</small></div><div class='instruxDiv'><p><strong>4) If you decided to share 4 out of 5 points with your partner, and they decided to share half of the amount they received with you, how many points would you receive back from them on this round?</strong></p><p>a) 16</p><p>b) 0</p><p style='color:#00FF00'>c) 8</p><h3 style='color:#00FF00'>Correct!</h3><h3 class='center-content'>The correct response is c).</h3><h3 class='center-content'>If you shared 4 out of 5 points with your partner and they decided to share half of the amount they received with you, you would receive 8 points back (i.e. (4 x 4)/2 = 8).</h3><p><em>Press SPACEBAR to continue</em></p></div>"," ","","","","","","","","","","",""
"html-keyboard-response","135","374248","0.0-17.0","5fe354a2e44df4fb4634bbc3","bdp_trlrn","Sun Mar 12 2023 23:34:14 GMT-0400 (Eastern Daylight Time)","887299","Trustworthy,Untrustworthy","","null","","","","","","<div class='header' style='text-align:left; position: absolute; top: 5%; left: 5%;'><small>Task 2 of 5</small></div><div class='instruxDiv'><p>Thank you for completing the quiz<p>These are the actual partners you will be interacting with in the next block:<p><div class='tc' align='center'><img class='introPic' src='trustrating_stim/white_mw060.bmp'><br><strong>Alex</strong></div><div class='bl' align='center'><img class='introPic' src='trustrating_stim/white_mw084.bmp'><br><strong>Brian</strong></div><div class='br' align='center'><img class='introPic' src='trustrating_stim/white_00120_931230_fa_edt.bmp'><br><strong>Sebastian</strong></div></div><p>Across <strong>66 rounds</strong> you will interact with each partner <strong>22 times</strong> (in random order).<p style='align:center; color:white'><font <em>Press SPACEBAR to continue</em></p>","null","","","","","","","","","","",""
"instructions","136","403772","0.0-18.0","5fe354a2e44df4fb4634bbc3","bdp_trlrn","Sun Mar 12 2023 23:34:14 GMT-0400 (Eastern Daylight Time)","887299","Trustworthy,Untrustworthy","[{""page_index"":0,""viewing_time"":18279},{""page_index"":1,""viewing_time"":11243}]","29522","","","","","","","","","","","","","","","","","",""
"html-keyboard-response","137","411358","0.0-19.0-1.0","5fe354a2e44df4fb4634bbc3","bdp_trlrn","Sun Mar 12 2023 23:34:14 GMT-0400 (Eastern Daylight Time)","887299","Trustworthy,Untrustworthy","","7478","","","","decision","","<div class='trialDiv'><img src='trustrating_stim/white_00120_931230_fa_edt.bmp'><br><font class='baseline'><strong>Sebastian</strong><p>Choose number of points to send.</font><div class='respPicDiv'><img src='img/responseButtonOffersNo0L.png' class='respPic'></div></div>","4","1","Sebastian","10","Kept","0.65,0.2","9","0.65","trustrating_stim/white_00120_931230_fa_edt.bmp","6","5","1"
"html-keyboard-response","138","411620","0.0-19.0-2.0","5fe354a2e44df4fb4634bbc3","bdp_trlrn","Sun Mar 12 2023 23:34:14 GMT-0400 (Eastern Daylight Time)","887299","Trustworthy,Untrustworthy","","null","","","","decisionFB","","<div class='trialDiv'><img src='trustrating_stim/white_00120_931230_fa_edt.bmp'><br><font class='baseline'><strong>Sebastian</strong><p>Choose number of points to send.</font><div class='respPicDiv'><img src='img/responseButtonOffersNo0L4.png' class='respPic'></div></div>","null","1","Sebastian","10","Kept","0.65,0.2","9","0.65","trustrating_stim/white_00120_931230_fa_edt.bmp","6","1","1"
"html-keyboard-response","139","412631","0.0-19.0-3.0","5fe354a2e44df4fb4634bbc3","bdp_trlrn","Sun Mar 12 2023 23:34:14 GMT-0400 (Eastern Daylight Time)","887299","Trustworthy,Untrustworthy","","null","","","","feedback","","<div class='trialDiv'><img src='trustrating_stim/white_00120_931230_fa_edt.bmp'><br><font class='baseline'><strong>Sebastian</strong><p>Received: <strong>16</strong></font> &nbsp; &nbsp; &nbsp; &nbsp; &nbsp; &nbsp;<font class='negOutcome'>Shared back: <strong>0</strong></font></font><div class='respPicDiv'><img src='img/responseButtonOffersNo0_wht.png' class='respPic'></div></div>","null","1","Sebastian","10","Kept","0.65,0.2","9","0.65","trustrating_stim/white_00120_931230_fa_edt.bmp","6","1","1"
"html-keyboard-response","140","418791","0.0-19.0-1.1","5fe354a2e44df4fb4634bbc3","bdp_trlrn","Sun Mar 12 2023 23:34:14 GMT-0400 (Eastern Daylight Time)","887299","Trustworthy,Untrustworthy","","6157","","","","decision","","<div class='trialDiv'><img src='trustrating_stim/white_mw060.bmp'><br><font class='baseline'><strong>Alex</strong><p>Choose number of points to send.</font><div class='respPicDiv'><img src='img/responseButtonOffersNo0L.png' class='respPic'></div></div>","4","1","Alex","3","Shared","0.2,0.8","11","0.2","trustrating_stim/white_mw060.bmp","1.5","6","2"
"html-keyboard-response","141","419053","0.0-19.0-2.1","5fe354a2e44df4fb4634bbc3","bdp_trlrn","Sun Mar 12 2023 23:34:14 GMT-0400 (Eastern Daylight Time)","887299","Trustworthy,Untrustworthy","","null","","","","decisionFB","","<div class='trialDiv'><img src='trustrating_stim/white_mw060.bmp'><br><font class='baseline'><strong>Alex</strong><p>Choose number of points to send.</font><div class='respPicDiv'><img src='img/responseButtonOffersNo0L4.png' class='respPic'></div></div>","null","1","Alex","3","Shared","0.2,0.8","11","0.2","trustrating_stim/white_mw060.bmp","1.5","2","2"
"html-keyboard-response","142","420063","0.0-19.0-3.1","5fe354a2e44df4fb4634bbc3","bdp_trlrn","Sun Mar 12 2023 23:34:14 GMT-0400 (Eastern Daylight Time)","887299","Trustworthy,Untrustworthy","","null","","","","feedback","","<div class='trialDiv'><img src='trustrating_stim/white_mw060.bmp'><br><font class='baseline'><strong>Alex</strong><p>Received: <strong>16</strong></font> &nbsp; &nbsp; &nbsp; &nbsp; &nbsp; &nbsp;<font class='posOutcome'>Shared back: <strong>8</strong></font></font><div class='respPicDiv'><img src='img/responseButtonOffersNo0_wht.png' class='respPic'></div></div>","null","1","Alex","3","Shared","0.2,0.8","11","0.2","trustrating_stim/white_mw060.bmp","1.5","10","2"
"html-keyboard-response","143","425766","0.0-19.0-1.2","5fe354a2e44df4fb4634bbc3","bdp_trlrn","Sun Mar 12 2023 23:34:14 GMT-0400 (Eastern Daylight Time)","887299","Trustworthy,Untrustworthy","","5702","","","","decision","","<div class='trialDiv'><img src='trustrating_stim/white_mw084.bmp'><br><font class='baseline'><strong>Brian</strong><p>Choose number of points to send.</font><div class='respPicDiv'><img src='img/responseButtonOffersNo0L.png' class='respPic'></div></div>","4","1","Brian","4","Kept","0.2,0.65","12","0.2","trustrating_stim/white_mw084.bmp","3.5","15","3"
"html-keyboard-response","144","426030","0.0-19.0-2.2","5fe354a2e44df4fb4634bbc3","bdp_trlrn","Sun Mar 12 2023 23:34:14 GMT-0400 (Eastern Daylight Time)","887299","Trustworthy,Untrustworthy","","null","","","","decisionFB","","<div class='trialDiv'><img src='trustrating_stim/white_mw084.bmp'><br><font class='baseline'><strong>Brian</strong><p>Choose number of points to send.</font><div class='respPicDiv'><img src='img/responseButtonOffersNo0L4.png' class='respPic'></div></div>","null","1","Brian","4","Kept","0.2,0.65","12","0.2","trustrating_stim/white_mw084.bmp","3.5","11","3"
"html-keyboard-response","145","427034","0.0-19.0-3.2","5fe354a2e44df4fb4634bbc3","bdp_trlrn","Sun Mar 12 2023 23:34:14 GMT-0400 (Eastern Daylight Time)","887299","Trustworthy,Untrustworthy","","null","","","","feedback","","<div class='trialDiv'><img src='trustrating_stim/white_mw084.bmp'><br><font class='baseline'><strong>Brian</strong><p>Received: <strong>16</strong></font> &nbsp; &nbsp; &nbsp; &nbsp; &nbsp; &nbsp;<font class='negOutcome'>Shared back: <strong>0</strong></font></font><div class='respPicDiv'><img src='img/responseButtonOffersNo0_wht.png' class='respPic'></div></div>","null","1","Brian","4","Kept","0.2,0.65","12","0.2","trustrating_stim/white_mw084.bmp","3.5","11","3"
"html-keyboard-response","146","435703","0.0-19.0-1.3","5fe354a2e44df4fb4634bbc3","bdp_trlrn","Sun Mar 12 2023 23:34:14 GMT-0400 (Eastern Daylight Time)","887299","Trustworthy,Untrustworthy","","8668","","","","decision","","<div class='trialDiv'><img src='trustrating_stim/white_00120_931230_fa_edt.bmp'><br><font class='baseline'><strong>Sebastian</strong><p>Choose number of points to send.</font><div class='respPicDiv'><img src='img/responseButtonOffersNo0L.png' class='respPic'></div></div>","1","2","Sebastian","10","Shared","0.65,0.2","9","0.65","trustrating_stim/white_00120_931230_fa_edt.bmp","6","16","4"
"html-keyboard-response","147","435964","0.0-19.0-2.3","5fe354a2e44df4fb4634bbc3","bdp_trlrn","Sun Mar 12 2023 23:34:14 GMT-0400 (Eastern Daylight Time)","887299","Trustworthy,Untrustworthy","","null","","","","decisionFB","","<div class='trialDiv'><img src='trustrating_stim/white_00120_931230_fa_edt.bmp'><br><font class='baseline'><strong>Sebastian</strong><p>Choose number of points to send.</font><div class='respPicDiv'><img src='img/responseButtonOffersNo0L1.png' class='respPic'></div></div>","null","2","Sebastian","10","Shared","0.65,0.2","9","0.65","trustrating_stim/white_00120_931230_fa_edt.bmp","6","15","4"
"html-keyboard-response","148","436972","0.0-19.0-3.3","5fe354a2e44df4fb4634bbc3","bdp_trlrn","Sun Mar 12 2023 23:34:14 GMT-0400 (Eastern Daylight Time)","887299","Trustworthy,Untrustworthy","","null","","","","feedback","","<div class='trialDiv'><img src='trustrating_stim/white_00120_931230_fa_edt.bmp'><br><font class='baseline'><strong>Sebastian</strong><p>Received: <strong>4</strong></font> &nbsp; &nbsp; &nbsp; &nbsp; &nbsp; &nbsp;<font class='posOutcome'>Shared back: <strong>2</strong></font></font><div class='respPicDiv'><img src='img/responseButtonOffersNo0_wht.png' class='respPic'></div></div>","null","2","Sebastian","10","Shared","0.65,0.2","9","0.65","trustrating_stim/white_00120_931230_fa_edt.bmp","6","17","4"
"html-keyboard-response","149","444519","0.0-19.0-1.4","5fe354a2e44df4fb4634bbc3","bdp_trlrn","Sun Mar 12 2023 23:34:14 GMT-0400 (Eastern Daylight Time)","887299","Trustworthy,Untrustworthy","","7546","","","","decision","","<div class='trialDiv'><img src='trustrating_stim/white_mw060.bmp'><br><font class='baseline'><strong>Alex</strong><p>Choose number of points to send.</font><div class='respPicDiv'><img src='img/responseButtonOffersNo0L.png' class='respPic'></div></div>","5","2","Alex","3","Kept","0.2,0.8","11","0.2","trustrating_stim/white_mw060.bmp","1.5","22","5"
"html-keyboard-response","150","444778","0.0-19.0-2.4","5fe354a2e44df4fb4634bbc3","bdp_trlrn","Sun Mar 12 2023 23:34:14 GMT-0400 (Eastern Daylight Time)","887299","Trustworthy,Untrustworthy","","null","","","","decisionFB","","<div class='trialDiv'><img src='trustrating_stim/white_mw060.bmp'><br><font class='baseline'><strong>Alex</strong><p>Choose number of points to send.</font><div class='respPicDiv'><img src='img/responseButtonOffersNo0L5.png' class='respPic'></div></div>","null","2","Alex","3","Kept","0.2,0.8","11","0.2","trustrating_stim/white_mw060.bmp","1.5","17","5"
"html-keyboard-response","151","445787","0.0-19.0-3.4","5fe354a2e44df4fb4634bbc3","bdp_trlrn","Sun Mar 12 2023 23:34:14 GMT-0400 (Eastern Daylight Time)","887299","Trustworthy,Untrustworthy","","null","","","","feedback","","<div class='trialDiv'><img src='trustrating_stim/white_mw060.bmp'><br><font class='baseline'><strong>Alex</strong><p>Received: <strong>20</strong></font> &nbsp; &nbsp; &nbsp; &nbsp; &nbsp; &nbsp;<font class='negOutcome'>Shared back: <strong>0</strong></font></font><div class='respPicDiv'><img src='img/responseButtonOffersNo0_wht.png' class='respPic'></div></div>","null","2","Alex","3","Kept","0.2,0.8","11","0.2","trustrating_stim/white_mw060.bmp","1.5","17","5"
"html-keyboard-response","152","448335","0.0-19.0-1.5","5fe354a2e44df4fb4634bbc3","bdp_trlrn","Sun Mar 12 2023 23:34:14 GMT-0400 (Eastern Daylight Time)","887299","Trustworthy,Untrustworthy","","2547","","","","decision","","<div class='trialDiv'><img src='trustrating_stim/white_mw084.bmp'><br><font class='baseline'><strong>Brian</strong><p>Choose number of points to send.</font><div class='respPicDiv'><img src='img/responseButtonOffersNo0L.png' class='respPic'></div></div>","1","2","Brian","4","Kept","0.2,0.65","12","0.2","trustrating_stim/white_mw084.bmp","3.5","22","6"
"html-keyboard-response","153","448593","0.0-19.0-2.5","5fe354a2e44df4fb4634bbc3","bdp_trlrn","Sun Mar 12 2023 23:34:14 GMT-0400 (Eastern Daylight Time)","887299","Trustworthy,Untrustworthy","","null","","","","decisionFB","","<div class='trialDiv'><img src='trustrating_stim/white_mw084.bmp'><br><font class='baseline'><strong>Brian</strong><p>Choose number of points to send.</font><div class='respPicDiv'><img src='img/responseButtonOffersNo0L1.png' class='respPic'></div></div>","null","2","Brian","4","Kept","0.2,0.65","12","0.2","trustrating_stim/white_mw084.bmp","3.5","21","6"
"html-keyboard-response","154","449602","0.0-19.0-3.5","5fe354a2e44df4fb4634bbc3","bdp_trlrn","Sun Mar 12 2023 23:34:14 GMT-0400 (Eastern Daylight Time)","887299","Trustworthy,Untrustworthy","","null","","","","feedback","","<div class='trialDiv'><img src='trustrating_stim/white_mw084.bmp'><br><font class='baseline'><strong>Brian</strong><p>Received: <strong>4</strong></font> &nbsp; &nbsp; &nbsp; &nbsp; &nbsp; &nbsp;<font class='negOutcome'>Shared back: <strong>0</strong></font></font><div class='respPicDiv'><img src='img/responseButtonOffersNo0_wht.png' class='respPic'></div></div>","null","2","Brian","4","Kept","0.2,0.65","12","0.2","trustrating_stim/white_mw084.bmp","3.5","21","6"
"html-keyboard-response","155","453372","0.0-19.0-1.6","5fe354a2e44df4fb4634bbc3","bdp_trlrn","Sun Mar 12 2023 23:34:14 GMT-0400 (Eastern Daylight Time)","887299","Trustworthy,Untrustworthy","","3768","","","","decision","","<div class='trialDiv'><img src='trustrating_stim/white_mw060.bmp'><br><font class='baseline'><strong>Alex</strong><p>Choose number of points to send.</font><div class='respPicDiv'><img src='img/responseButtonOffersNo0L.png' class='respPic'></div></div>","3","3","Alex","3","Kept","0.2,0.8","11","0.2","trustrating_stim/white_mw060.bmp","1.5","26","7"
"html-keyboard-response","156","453629","0.0-19.0-2.6","5fe354a2e44df4fb4634bbc3","bdp_trlrn","Sun Mar 12 2023 23:34:14 GMT-0400 (Eastern Daylight Time)","887299","Trustworthy,Untrustworthy","","null","","","","decisionFB","","<div class='trialDiv'><img src='trustrating_stim/white_mw060.bmp'><br><font class='baseline'><strong>Alex</strong><p>Choose number of points to send.</font><div class='respPicDiv'><img src='img/responseButtonOffersNo0L3.png' class='respPic'></div></div>","null","3","Alex","3","Kept","0.2,0.8","11","0.2","trustrating_stim/white_mw060.bmp","1.5","23","7"
"html-keyboard-response","157","454633","0.0-19.0-3.6","5fe354a2e44df4fb4634bbc3","bdp_trlrn","Sun Mar 12 2023 23:34:14 GMT-0400 (Eastern Daylight Time)","887299","Trustworthy,Untrustworthy","","null","","","","feedback","","<div class='trialDiv'><img src='trustrating_stim/white_mw060.bmp'><br><font class='baseline'><strong>Alex</strong><p>Received: <strong>12</strong></font> &nbsp; &nbsp; &nbsp; &nbsp; &nbsp; &nbsp;<font class='negOutcome'>Shared back: <strong>0</strong></font></font><div class='respPicDiv'><img src='img/responseButtonOffersNo0_wht.png' class='respPic'></div></div>","null","3","Alex","3","Kept","0.2,0.8","11","0.2","trustrating_stim/white_mw060.bmp","1.5","23","7"
"html-keyboard-response","158","457573","0.0-19.0-1.7","5fe354a2e44df4fb4634bbc3","bdp_trlrn","Sun Mar 12 2023 23:34:14 GMT-0400 (Eastern Daylight Time)","887299","Trustworthy,Untrustworthy","","2938","","","","decision","","<div class='trialDiv'><img src='trustrating_stim/white_00120_931230_fa_edt.bmp'><br><font class='baseline'><strong>Sebastian</strong><p>Choose number of points to send.</font><div class='respPicDiv'><img src='img/responseButtonOffersNo0L.png' class='respPic'></div></div>","3","3","Sebastian","10","Kept","0.65,0.2","9","0.65","trustrating_stim/white_00120_931230_fa_edt.bmp","6","28","8"
"html-keyboard-response","159","457837","0.0-19.0-2.7","5fe354a2e44df4fb4634bbc3","bdp_trlrn","Sun Mar 12 2023 23:34:14 GMT-0400 (Eastern Daylight Time)","887299","Trustworthy,Untrustworthy","","null","","","","decisionFB","","<div class='trialDiv'><img src='trustrating_stim/white_00120_931230_fa_edt.bmp'><br><font class='baseline'><strong>Sebastian</strong><p>Choose number of points to send.</font><div class='respPicDiv'><img src='img/responseButtonOffersNo0L3.png' class='respPic'></div></div>","null","3","Sebastian","10","Kept","0.65,0.2","9","0.65","trustrating_stim/white_00120_931230_fa_edt.bmp","6","25","8"
"html-keyboard-response","160","458842","0.0-19.0-3.7","5fe354a2e44df4fb4634bbc3","bdp_trlrn","Sun Mar 12 2023 23:34:14 GMT-0400 (Eastern Daylight Time)","887299","Trustworthy,Untrustworthy","","null","","","","feedback","","<div class='trialDiv'><img src='trustrating_stim/white_00120_931230_fa_edt.bmp'><br><font class='baseline'><strong>Sebastian</strong><p>Received: <strong>12</strong></font> &nbsp; &nbsp; &nbsp; &nbsp; &nbsp; &nbsp;<font class='negOutcome'>Shared back: <strong>0</strong></font></font><div class='respPicDiv'><img src='img/responseButtonOffersNo0_wht.png' class='respPic'></div></div>","null","3","Sebastian","10","Kept","0.65,0.2","9","0.65","trustrating_stim/white_00120_931230_fa_edt.bmp","6","25","8"
"html-keyboard-response","161","461601","0.0-19.0-1.8","5fe354a2e44df4fb4634bbc3","bdp_trlrn","Sun Mar 12 2023 23:34:14 GMT-0400 (Eastern Daylight Time)","887299","Trustworthy,Untrustworthy","","2757","","","","decision","","<div class='trialDiv'><img src='trustrating_stim/white_mw084.bmp'><br><font class='baseline'><strong>Brian</strong><p>Choose number of points to send.</font><div class='respPicDiv'><img src='img/responseButtonOffersNo0L.png' class='respPic'></div></div>","3","3","Brian","4","Kept","0.2,0.65","12","0.2","trustrating_stim/white_mw084.bmp","3.5","30","9"
"html-keyboard-response","162","461861","0.0-19.0-2.8","5fe354a2e44df4fb4634bbc3","bdp_trlrn","Sun Mar 12 2023 23:34:14 GMT-0400 (Eastern Daylight Time)","887299","Trustworthy,Untrustworthy","","null","","","","decisionFB","","<div class='trialDiv'><img src='trustrating_stim/white_mw084.bmp'><br><font class='baseline'><strong>Brian</strong><p>Choose number of points to send.</font><div class='respPicDiv'><img src='img/responseButtonOffersNo0L3.png' class='respPic'></div></div>","null","3","Brian","4","Kept","0.2,0.65","12","0.2","trustrating_stim/white_mw084.bmp","3.5","27","9"
"html-keyboard-response","163","462867","0.0-19.0-3.8","5fe354a2e44df4fb4634bbc3","bdp_trlrn","Sun Mar 12 2023 23:34:14 GMT-0400 (Eastern Daylight Time)","887299","Trustworthy,Untrustworthy","","null","","","","feedback","","<div class='trialDiv'><img src='trustrating_stim/white_mw084.bmp'><br><font class='baseline'><strong>Brian</strong><p>Received: <strong>12</strong></font> &nbsp; &nbsp; &nbsp; &nbsp; &nbsp; &nbsp;<font class='negOutcome'>Shared back: <strong>0</strong></font></font><div class='respPicDiv'><img src='img/responseButtonOffersNo0_wht.png' class='respPic'></div></div>","null","3","Brian","4","Kept","0.2,0.65","12","0.2","trustrating_stim/white_mw084.bmp","3.5","27","9"
"html-keyboard-response","164","464722","0.0-19.0-1.9","5fe354a2e44df4fb4634bbc3","bdp_trlrn","Sun Mar 12 2023 23:34:14 GMT-0400 (Eastern Daylight Time)","887299","Trustworthy,Untrustworthy","","1853","","","","decision","","<div class='trialDiv'><img src='trustrating_stim/white_00120_931230_fa_edt.bmp'><br><font class='baseline'><strong>Sebastian</strong><p>Choose number of points to send.</font><div class='respPicDiv'><img src='img/responseButtonOffersNo0L.png' class='respPic'></div></div>","1","4","Sebastian","10","Shared","0.65,0.2","9","0.65","trustrating_stim/white_00120_931230_fa_edt.bmp","6","32","10"
"html-keyboard-response","165","464977","0.0-19.0-2.9","5fe354a2e44df4fb4634bbc3","bdp_trlrn","Sun Mar 12 2023 23:34:14 GMT-0400 (Eastern Daylight Time)","887299","Trustworthy,Untrustworthy","","null","","","","decisionFB","","<div class='trialDiv'><img src='trustrating_stim/white_00120_931230_fa_edt.bmp'><br><font class='baseline'><strong>Sebastian</strong><p>Choose number of points to send.</font><div class='respPicDiv'><img src='img/responseButtonOffersNo0L1.png' class='respPic'></div></div>","null","4","Sebastian","10","Shared","0.65,0.2","9","0.65","trustrating_stim/white_00120_931230_fa_edt.bmp","6","31","10"
"html-keyboard-response","166","465986","0.0-19.0-3.9","5fe354a2e44df4fb4634bbc3","bdp_trlrn","Sun Mar 12 2023 23:34:14 GMT-0400 (Eastern Daylight Time)","887299","Trustworthy,Untrustworthy","","null","","","","feedback","","<div class='trialDiv'><img src='trustrating_stim/white_00120_931230_fa_edt.bmp'><br><font class='baseline'><strong>Sebastian</strong><p>Received: <strong>4</strong></font> &nbsp; &nbsp; &nbsp; &nbsp; &nbsp; &nbsp;<font class='posOutcome'>Shared back: <strong>2</strong></font></font><div class='respPicDiv'><img src='img/responseButtonOffersNo0_wht.png' class='respPic'></div></div>","null","4","Sebastian","10","Shared","0.65,0.2","9","0.65","trustrating_stim/white_00120_931230_fa_edt.bmp","6","33","10"
"html-keyboard-response","167","467479","0.0-19.0-1.10","5fe354a2e44df4fb4634bbc3","bdp_trlrn","Sun Mar 12 2023 23:34:14 GMT-0400 (Eastern Daylight Time)","887299","Trustworthy,Untrustworthy","","1491","","","","decision","","<div class='trialDiv'><img src='trustrating_stim/white_mw084.bmp'><br><font class='baseline'><strong>Brian</strong><p>Choose number of points to send.</font><div class='respPicDiv'><img src='img/responseButtonOffersNo0L.png' class='respPic'></div></div>","1","4","Brian","4","Kept","0.2,0.65","12","0.2","trustrating_stim/white_mw084.bmp","3.5","38","11"
"html-keyboard-response","168","467737","0.0-19.0-2.10","5fe354a2e44df4fb4634bbc3","bdp_trlrn","Sun Mar 12 2023 23:34:14 GMT-0400 (Eastern Daylight Time)","887299","Trustworthy,Untrustworthy","","null","","","","decisionFB","","<div class='trialDiv'><img src='trustrating_stim/white_mw084.bmp'><br><font class='baseline'><strong>Brian</strong><p>Choose number of points to send.</font><div class='respPicDiv'><img src='img/responseButtonOffersNo0L1.png' class='respPic'></div></div>","null","4","Brian","4","Kept","0.2,0.65","12","0.2","trustrating_stim/white_mw084.bmp","3.5","37","11"
"html-keyboard-response","169","468745","0.0-19.0-3.10","5fe354a2e44df4fb4634bbc3","bdp_trlrn","Sun Mar 12 2023 23:34:14 GMT-0400 (Eastern Daylight Time)","887299","Trustworthy,Untrustworthy","","null","","","","feedback","","<div class='trialDiv'><img src='trustrating_stim/white_mw084.bmp'><br><font class='baseline'><strong>Brian</strong><p>Received: <strong>4</strong></font> &nbsp; &nbsp; &nbsp; &nbsp; &nbsp; &nbsp;<font class='negOutcome'>Shared back: <strong>0</strong></font></font><div class='respPicDiv'><img src='img/responseButtonOffersNo0_wht.png' class='respPic'></div></div>","null","4","Brian","4","Kept","0.2,0.65","12","0.2","trustrating_stim/white_mw084.bmp","3.5","37","11"
"html-keyboard-response","170","469870","0.0-19.0-1.11","5fe354a2e44df4fb4634bbc3","bdp_trlrn","Sun Mar 12 2023 23:34:14 GMT-0400 (Eastern Daylight Time)","887299","Trustworthy,Untrustworthy","","1124","","","","decision","","<div class='trialDiv'><img src='trustrating_stim/white_mw060.bmp'><br><font class='baseline'><strong>Alex</strong><p>Choose number of points to send.</font><div class='respPicDiv'><img src='img/responseButtonOffersNo0L.png' class='respPic'></div></div>","1","4","Alex","3","Kept","0.2,0.8","11","0.2","trustrating_stim/white_mw060.bmp","1.5","42","12"
"html-keyboard-response","171","470129","0.0-19.0-2.11","5fe354a2e44df4fb4634bbc3","bdp_trlrn","Sun Mar 12 2023 23:34:14 GMT-0400 (Eastern Daylight Time)","887299","Trustworthy,Untrustworthy","","null","","","","decisionFB","","<div class='trialDiv'><img src='trustrating_stim/white_mw060.bmp'><br><font class='baseline'><strong>Alex</strong><p>Choose number of points to send.</font><div class='respPicDiv'><img src='img/responseButtonOffersNo0L1.png' class='respPic'></div></div>","null","4","Alex","3","Kept","0.2,0.8","11","0.2","trustrating_stim/white_mw060.bmp","1.5","41","12"
"html-keyboard-response","172","471137","0.0-19.0-3.11","5fe354a2e44df4fb4634bbc3","bdp_trlrn","Sun Mar 12 2023 23:34:14 GMT-0400 (Eastern Daylight Time)","887299","Trustworthy,Untrustworthy","","null","","","","feedback","","<div class='trialDiv'><img src='trustrating_stim/white_mw060.bmp'><br><font class='baseline'><strong>Alex</strong><p>Received: <strong>4</strong></font> &nbsp; &nbsp; &nbsp; &nbsp; &nbsp; &nbsp;<font class='negOutcome'>Shared back: <strong>0</strong></font></font><div class='respPicDiv'><img src='img/responseButtonOffersNo0_wht.png' class='respPic'></div></div>","null","4","Alex","3","Kept","0.2,0.8","11","0.2","trustrating_stim/white_mw060.bmp","1.5","41","12"
"html-keyboard-response","173","472482","0.0-19.0-1.12","5fe354a2e44df4fb4634bbc3","bdp_trlrn","Sun Mar 12 2023 23:34:14 GMT-0400 (Eastern Daylight Time)","887299","Trustworthy,Untrustworthy","","1342","","","","decision","","<div class='trialDiv'><img src='trustrating_stim/white_mw084.bmp'><br><font class='baseline'><strong>Brian</strong><p>Choose number of points to send.</font><div class='respPicDiv'><img src='img/responseButtonOffersNo0L.png' class='respPic'></div></div>","1","5","Brian","4","Kept","0.2,0.65","12","0.2","trustrating_stim/white_mw084.bmp","3.5","46","13"
"html-keyboard-response","174","472737","0.0-19.0-2.12","5fe354a2e44df4fb4634bbc3","bdp_trlrn","Sun Mar 12 2023 23:34:14 GMT-0400 (Eastern Daylight Time)","887299","Trustworthy,Untrustworthy","","null","","","","decisionFB","","<div class='trialDiv'><img src='trustrating_stim/white_mw084.bmp'><br><font class='baseline'><strong>Brian</strong><p>Choose number of points to send.</font><div class='respPicDiv'><img src='img/responseButtonOffersNo0L1.png' class='respPic'></div></div>","null","5","Brian","4","Kept","0.2,0.65","12","0.2","trustrating_stim/white_mw084.bmp","3.5","45","13"
"html-keyboard-response","175","473745","0.0-19.0-3.12","5fe354a2e44df4fb4634bbc3","bdp_trlrn","Sun Mar 12 2023 23:34:14 GMT-0400 (Eastern Daylight Time)","887299","Trustworthy,Untrustworthy","","null","","","","feedback","","<div class='trialDiv'><img src='trustrating_stim/white_mw084.bmp'><br><font class='baseline'><strong>Brian</strong><p>Received: <strong>4</strong></font> &nbsp; &nbsp; &nbsp; &nbsp; &nbsp; &nbsp;<font class='negOutcome'>Shared back: <strong>0</strong></font></font><div class='respPicDiv'><img src='img/responseButtonOffersNo0_wht.png' class='respPic'></div></div>","null","5","Brian","4","Kept","0.2,0.65","12","0.2","trustrating_stim/white_mw084.bmp","3.5","45","13"
"html-keyboard-response","176","476189","0.0-19.0-1.13","5fe354a2e44df4fb4634bbc3","bdp_trlrn","Sun Mar 12 2023 23:34:14 GMT-0400 (Eastern Daylight Time)","887299","Trustworthy,Untrustworthy","","2442","","","","decision","","<div class='trialDiv'><img src='trustrating_stim/white_00120_931230_fa_edt.bmp'><br><font class='baseline'><strong>Sebastian</strong><p>Choose number of points to send.</font><div class='respPicDiv'><img src='img/responseButtonOffersNo0L.png' class='respPic'></div></div>","1","5","Sebastian","10","Shared","0.65,0.2","9","0.65","trustrating_stim/white_00120_931230_fa_edt.bmp","6","50","14"
"html-keyboard-response","177","476449","0.0-19.0-2.13","5fe354a2e44df4fb4634bbc3","bdp_trlrn","Sun Mar 12 2023 23:34:14 GMT-0400 (Eastern Daylight Time)","887299","Trustworthy,Untrustworthy","","null","","","","decisionFB","","<div class='trialDiv'><img src='trustrating_stim/white_00120_931230_fa_edt.bmp'><br><font class='baseline'><strong>Sebastian</strong><p>Choose number of points to send.</font><div class='respPicDiv'><img src='img/responseButtonOffersNo0L1.png' class='respPic'></div></div>","null","5","Sebastian","10","Shared","0.65,0.2","9","0.65","trustrating_stim/white_00120_931230_fa_edt.bmp","6","49","14"
"html-keyboard-response","178","477457","0.0-19.0-3.13","5fe354a2e44df4fb4634bbc3","bdp_trlrn","Sun Mar 12 2023 23:34:14 GMT-0400 (Eastern Daylight Time)","887299","Trustworthy,Untrustworthy","","null","","","","feedback","","<div class='trialDiv'><img src='trustrating_stim/white_00120_931230_fa_edt.bmp'><br><font class='baseline'><strong>Sebastian</strong><p>Received: <strong>4</strong></font> &nbsp; &nbsp; &nbsp; &nbsp; &nbsp; &nbsp;<font class='posOutcome'>Shared back: <strong>2</strong></font></font><div class='respPicDiv'><img src='img/responseButtonOffersNo0_wht.png' class='respPic'></div></div>","null","5","Sebastian","10","Shared","0.65,0.2","9","0.65","trustrating_stim/white_00120_931230_fa_edt.bmp","6","51","14"
"html-keyboard-response","179","481364","0.0-19.0-1.14","5fe354a2e44df4fb4634bbc3","bdp_trlrn","Sun Mar 12 2023 23:34:14 GMT-0400 (Eastern Daylight Time)","887299","Trustworthy,Untrustworthy","","3906","","","","decision","","<div class='trialDiv'><img src='trustrating_stim/white_mw060.bmp'><br><font class='baseline'><strong>Alex</strong><p>Choose number of points to send.</font><div class='respPicDiv'><img src='img/responseButtonOffersNo0L.png' class='respPic'></div></div>","1","5","Alex","3","Kept","0.2,0.8","11","0.2","trustrating_stim/white_mw060.bmp","1.5","56","15"
"html-keyboard-response","180","481626","0.0-19.0-2.14","5fe354a2e44df4fb4634bbc3","bdp_trlrn","Sun Mar 12 2023 23:34:14 GMT-0400 (Eastern Daylight Time)","887299","Trustworthy,Untrustworthy","","null","","","","decisionFB","","<div class='trialDiv'><img src='trustrating_stim/white_mw060.bmp'><br><font class='baseline'><strong>Alex</strong><p>Choose number of points to send.</font><div class='respPicDiv'><img src='img/responseButtonOffersNo0L1.png' class='respPic'></div></div>","null","5","Alex","3","Kept","0.2,0.8","11","0.2","trustrating_stim/white_mw060.bmp","1.5","55","15"
"html-keyboard-response","181","482632","0.0-19.0-3.14","5fe354a2e44df4fb4634bbc3","bdp_trlrn","Sun Mar 12 2023 23:34:14 GMT-0400 (Eastern Daylight Time)","887299","Trustworthy,Untrustworthy","","null","","","","feedback","","<div class='trialDiv'><img src='trustrating_stim/white_mw060.bmp'><br><font class='baseline'><strong>Alex</strong><p>Received: <strong>4</strong></font> &nbsp; &nbsp; &nbsp; &nbsp; &nbsp; &nbsp;<font class='negOutcome'>Shared back: <strong>0</strong></font></font><div class='respPicDiv'><img src='img/responseButtonOffersNo0_wht.png' class='respPic'></div></div>","null","5","Alex","3","Kept","0.2,0.8","11","0.2","trustrating_stim/white_mw060.bmp","1.5","55","15"
"html-keyboard-response","182","484709","0.0-19.0-1.15","5fe354a2e44df4fb4634bbc3","bdp_trlrn","Sun Mar 12 2023 23:34:14 GMT-0400 (Eastern Daylight Time)","887299","Trustworthy,Untrustworthy","","2074","","","","decision","","<div class='trialDiv'><img src='trustrating_stim/white_mw084.bmp'><br><font class='baseline'><strong>Brian</strong><p>Choose number of points to send.</font><div class='respPicDiv'><img src='img/responseButtonOffersNo0L.png' class='respPic'></div></div>","1","6","Brian","4","Kept","0.2,0.65","12","0.2","trustrating_stim/white_mw084.bmp","3.5","60","16"
"html-keyboard-response","183","484968","0.0-19.0-2.15","5fe354a2e44df4fb4634bbc3","bdp_trlrn","Sun Mar 12 2023 23:34:14 GMT-0400 (Eastern Daylight Time)","887299","Trustworthy,Untrustworthy","","null","","","","decisionFB","","<div class='trialDiv'><img src='trustrating_stim/white_mw084.bmp'><br><font class='baseline'><strong>Brian</strong><p>Choose number of points to send.</font><div class='respPicDiv'><img src='img/responseButtonOffersNo0L1.png' class='respPic'></div></div>","null","6","Brian","4","Kept","0.2,0.65","12","0.2","trustrating_stim/white_mw084.bmp","3.5","59","16"
"html-keyboard-response","184","485977","0.0-19.0-3.15","5fe354a2e44df4fb4634bbc3","bdp_trlrn","Sun Mar 12 2023 23:34:14 GMT-0400 (Eastern Daylight Time)","887299","Trustworthy,Untrustworthy","","null","","","","feedback","","<div class='trialDiv'><img src='trustrating_stim/white_mw084.bmp'><br><font class='baseline'><strong>Brian</strong><p>Received: <strong>4</strong></font> &nbsp; &nbsp; &nbsp; &nbsp; &nbsp; &nbsp;<font class='negOutcome'>Shared back: <strong>0</strong></font></font><div class='respPicDiv'><img src='img/responseButtonOffersNo0_wht.png' class='respPic'></div></div>","null","6","Brian","4","Kept","0.2,0.65","12","0.2","trustrating_stim/white_mw084.bmp","3.5","59","16"
"html-keyboard-response","185","488056","0.0-19.0-1.16","5fe354a2e44df4fb4634bbc3","bdp_trlrn","Sun Mar 12 2023 23:34:14 GMT-0400 (Eastern Daylight Time)","887299","Trustworthy,Untrustworthy","","2078","","","","decision","","<div class='trialDiv'><img src='trustrating_stim/white_00120_931230_fa_edt.bmp'><br><font class='baseline'><strong>Sebastian</strong><p>Choose number of points to send.</font><div class='respPicDiv'><img src='img/responseButtonOffersNo0L.png' class='respPic'></div></div>","5","6","Sebastian","10","Shared","0.65,0.2","9","0.65","trustrating_stim/white_00120_931230_fa_edt.bmp","6","64","17"
"html-keyboard-response","186","488312","0.0-19.0-2.16","5fe354a2e44df4fb4634bbc3","bdp_trlrn","Sun Mar 12 2023 23:34:14 GMT-0400 (Eastern Daylight Time)","887299","Trustworthy,Untrustworthy","","null","","","","decisionFB","","<div class='trialDiv'><img src='trustrating_stim/white_00120_931230_fa_edt.bmp'><br><font class='baseline'><strong>Sebastian</strong><p>Choose number of points to send.</font><div class='respPicDiv'><img src='img/responseButtonOffersNo0L5.png' class='respPic'></div></div>","null","6","Sebastian","10","Shared","0.65,0.2","9","0.65","trustrating_stim/white_00120_931230_fa_edt.bmp","6","59","17"
"html-keyboard-response","187","489321","0.0-19.0-3.16","5fe354a2e44df4fb4634bbc3","bdp_trlrn","Sun Mar 12 2023 23:34:14 GMT-0400 (Eastern Daylight Time)","887299","Trustworthy,Untrustworthy","","null","","","","feedback","","<div class='trialDiv'><img src='trustrating_stim/white_00120_931230_fa_edt.bmp'><br><font class='baseline'><strong>Sebastian</strong><p>Received: <strong>20</strong></font> &nbsp; &nbsp; &nbsp; &nbsp; &nbsp; &nbsp;<font class='posOutcome'>Shared back: <strong>10</strong></font></font><div class='respPicDiv'><img src='img/responseButtonOffersNo0_wht.png' class='respPic'></div></div>","null","6","Sebastian","10","Shared","0.65,0.2","9","0.65","trustrating_stim/white_00120_931230_fa_edt.bmp","6","69","17"
"html-keyboard-response","188","491233","0.0-19.0-1.17","5fe354a2e44df4fb4634bbc3","bdp_trlrn","Sun Mar 12 2023 23:34:14 GMT-0400 (Eastern Daylight Time)","887299","Trustworthy,Untrustworthy","","1910","","","","decision","","<div class='trialDiv'><img src='trustrating_stim/white_mw060.bmp'><br><font class='baseline'><strong>Alex</strong><p>Choose number of points to send.</font><div class='respPicDiv'><img src='img/responseButtonOffersNo0L.png' class='respPic'></div></div>","2","6","Alex","3","Kept","0.2,0.8","11","0.2","trustrating_stim/white_mw060.bmp","1.5","74","18"
"html-keyboard-response","189","491489","0.0-19.0-2.17","5fe354a2e44df4fb4634bbc3","bdp_trlrn","Sun Mar 12 2023 23:34:14 GMT-0400 (Eastern Daylight Time)","887299","Trustworthy,Untrustworthy","","null","","","","decisionFB","","<div class='trialDiv'><img src='trustrating_stim/white_mw060.bmp'><br><font class='baseline'><strong>Alex</strong><p>Choose number of points to send.</font><div class='respPicDiv'><img src='img/responseButtonOffersNo0L2.png' class='respPic'></div></div>","null","6","Alex","3","Kept","0.2,0.8","11","0.2","trustrating_stim/white_mw060.bmp","1.5","72","18"
"html-keyboard-response","190","492497","0.0-19.0-3.17","5fe354a2e44df4fb4634bbc3","bdp_trlrn","Sun Mar 12 2023 23:34:14 GMT-0400 (Eastern Daylight Time)","887299","Trustworthy,Untrustworthy","","null","","","","feedback","","<div class='trialDiv'><img src='trustrating_stim/white_mw060.bmp'><br><font class='baseline'><strong>Alex</strong><p>Received: <strong>8</strong></font> &nbsp; &nbsp; &nbsp; &nbsp; &nbsp; &nbsp;<font class='negOutcome'>Shared back: <strong>0</strong></font></font><div class='respPicDiv'><img src='img/responseButtonOffersNo0_wht.png' class='respPic'></div></div>","null","6","Alex","3","Kept","0.2,0.8","11","0.2","trustrating_stim/white_mw060.bmp","1.5","72","18"
"html-keyboard-response","191","493762","0.0-19.0-1.18","5fe354a2e44df4fb4634bbc3","bdp_trlrn","Sun Mar 12 2023 23:34:14 GMT-0400 (Eastern Daylight Time)","887299","Trustworthy,Untrustworthy","","1264","","","","decision","","<div class='trialDiv'><img src='trustrating_stim/white_00120_931230_fa_edt.bmp'><br><font class='baseline'><strong>Sebastian</strong><p>Choose number of points to send.</font><div class='respPicDiv'><img src='img/responseButtonOffersNo0L.png' class='respPic'></div></div>","5","7","Sebastian","10","Shared","0.65,0.2","9","0.65","trustrating_stim/white_00120_931230_fa_edt.bmp","6","77","19"
"html-keyboard-response","192","494016","0.0-19.0-2.18","5fe354a2e44df4fb4634bbc3","bdp_trlrn","Sun Mar 12 2023 23:34:14 GMT-0400 (Eastern Daylight Time)","887299","Trustworthy,Untrustworthy","","null","","","","decisionFB","","<div class='trialDiv'><img src='trustrating_stim/white_00120_931230_fa_edt.bmp'><br><font class='baseline'><strong>Sebastian</strong><p>Choose number of points to send.</font><div class='respPicDiv'><img src='img/responseButtonOffersNo0L5.png' class='respPic'></div></div>","null","7","Sebastian","10","Shared","0.65,0.2","9","0.65","trustrating_stim/white_00120_931230_fa_edt.bmp","6","72","19"
"html-keyboard-response","193","495026","0.0-19.0-3.18","5fe354a2e44df4fb4634bbc3","bdp_trlrn","Sun Mar 12 2023 23:34:14 GMT-0400 (Eastern Daylight Time)","887299","Trustworthy,Untrustworthy","","null","","","","feedback","","<div class='trialDiv'><img src='trustrating_stim/white_00120_931230_fa_edt.bmp'><br><font class='baseline'><strong>Sebastian</strong><p>Received: <strong>20</strong></font> &nbsp; &nbsp; &nbsp; &nbsp; &nbsp; &nbsp;<font class='posOutcome'>Shared back: <strong>10</strong></font></font><div class='respPicDiv'><img src='img/responseButtonOffersNo0_wht.png' class='respPic'></div></div>","null","7","Sebastian","10","Shared","0.65,0.2","9","0.65","trustrating_stim/white_00120_931230_fa_edt.bmp","6","82","19"
"html-keyboard-response","194","499045","0.0-19.0-1.19","5fe354a2e44df4fb4634bbc3","bdp_trlrn","Sun Mar 12 2023 23:34:14 GMT-0400 (Eastern Daylight Time)","887299","Trustworthy,Untrustworthy","","4016","","","","decision","","<div class='trialDiv'><img src='trustrating_stim/white_mw060.bmp'><br><font class='baseline'><strong>Alex</strong><p>Choose number of points to send.</font><div class='respPicDiv'><img src='img/responseButtonOffersNo0L.png' class='respPic'></div></div>","2","7","Alex","3","Shared","0.2,0.8","11","0.2","trustrating_stim/white_mw060.bmp","1.5","87","20"
"html-keyboard-response","195","499306","0.0-19.0-2.19","5fe354a2e44df4fb4634bbc3","bdp_trlrn","Sun Mar 12 2023 23:34:14 GMT-0400 (Eastern Daylight Time)","887299","Trustworthy,Untrustworthy","","null","","","","decisionFB","","<div class='trialDiv'><img src='trustrating_stim/white_mw060.bmp'><br><font class='baseline'><strong>Alex</strong><p>Choose number of points to send.</font><div class='respPicDiv'><img src='img/responseButtonOffersNo0L2.png' class='respPic'></div></div>","null","7","Alex","3","Shared","0.2,0.8","11","0.2","trustrating_stim/white_mw060.bmp","1.5","85","20"
"html-keyboard-response","196","500312","0.0-19.0-3.19","5fe354a2e44df4fb4634bbc3","bdp_trlrn","Sun Mar 12 2023 23:34:14 GMT-0400 (Eastern Daylight Time)","887299","Trustworthy,Untrustworthy","","null","","","","feedback","","<div class='trialDiv'><img src='trustrating_stim/white_mw060.bmp'><br><font class='baseline'><strong>Alex</strong><p>Received: <strong>8</strong></font> &nbsp; &nbsp; &nbsp; &nbsp; &nbsp; &nbsp;<font class='posOutcome'>Shared back: <strong>4</strong></font></font><div class='respPicDiv'><img src='img/responseButtonOffersNo0_wht.png' class='respPic'></div></div>","null","7","Alex","3","Shared","0.2,0.8","11","0.2","trustrating_stim/white_mw060.bmp","1.5","89","20"
"html-keyboard-response","197","504993","0.0-19.0-1.20","5fe354a2e44df4fb4634bbc3","bdp_trlrn","Sun Mar 12 2023 23:34:14 GMT-0400 (Eastern Daylight Time)","887299","Trustworthy,Untrustworthy","","4679","","","","decision","","<div class='trialDiv'><img src='trustrating_stim/white_mw084.bmp'><br><font class='baseline'><strong>Brian</strong><p>Choose number of points to send.</font><div class='respPicDiv'><img src='img/responseButtonOffersNo0L.png' class='respPic'></div></div>","2","7","Brian","4","Kept","0.2,0.65","12","0.2","trustrating_stim/white_mw084.bmp","3.5","94","21"
"html-keyboard-response","198","505247","0.0-19.0-2.20","5fe354a2e44df4fb4634bbc3","bdp_trlrn","Sun Mar 12 2023 23:34:14 GMT-0400 (Eastern Daylight Time)","887299","Trustworthy,Untrustworthy","","null","","","","decisionFB","","<div class='trialDiv'><img src='trustrating_stim/white_mw084.bmp'><br><font class='baseline'><strong>Brian</strong><p>Choose number of points to send.</font><div class='respPicDiv'><img src='img/responseButtonOffersNo0L2.png' class='respPic'></div></div>","null","7","Brian","4","Kept","0.2,0.65","12","0.2","trustrating_stim/white_mw084.bmp","3.5","92","21"
"html-keyboard-response","199","506260","0.0-19.0-3.20","5fe354a2e44df4fb4634bbc3","bdp_trlrn","Sun Mar 12 2023 23:34:14 GMT-0400 (Eastern Daylight Time)","887299","Trustworthy,Untrustworthy","","null","","","","feedback","","<div class='trialDiv'><img src='trustrating_stim/white_mw084.bmp'><br><font class='baseline'><strong>Brian</strong><p>Received: <strong>8</strong></font> &nbsp; &nbsp; &nbsp; &nbsp; &nbsp; &nbsp;<font class='negOutcome'>Shared back: <strong>0</strong></font></font><div class='respPicDiv'><img src='img/responseButtonOffersNo0_wht.png' class='respPic'></div></div>","null","7","Brian","4","Kept","0.2,0.65","12","0.2","trustrating_stim/white_mw084.bmp","3.5","92","21"
"html-keyboard-response","200","508672","0.0-19.0-1.21","5fe354a2e44df4fb4634bbc3","bdp_trlrn","Sun Mar 12 2023 23:34:14 GMT-0400 (Eastern Daylight Time)","887299","Trustworthy,Untrustworthy","","2411","","","","decision","","<div class='trialDiv'><img src='trustrating_stim/white_00120_931230_fa_edt.bmp'><br><font class='baseline'><strong>Sebastian</strong><p>Choose number of points to send.</font><div class='respPicDiv'><img src='img/responseButtonOffersNo0L.png' class='respPic'></div></div>","5","8","Sebastian","10","Shared","0.65,0.2","9","0.65","trustrating_stim/white_00120_931230_fa_edt.bmp","6","97","22"
"html-keyboard-response","201","508928","0.0-19.0-2.21","5fe354a2e44df4fb4634bbc3","bdp_trlrn","Sun Mar 12 2023 23:34:14 GMT-0400 (Eastern Daylight Time)","887299","Trustworthy,Untrustworthy","","null","","","","decisionFB","","<div class='trialDiv'><img src='trustrating_stim/white_00120_931230_fa_edt.bmp'><br><font class='baseline'><strong>Sebastian</strong><p>Choose number of points to send.</font><div class='respPicDiv'><img src='img/responseButtonOffersNo0L5.png' class='respPic'></div></div>","null","8","Sebastian","10","Shared","0.65,0.2","9","0.65","trustrating_stim/white_00120_931230_fa_edt.bmp","6","92","22"
"html-keyboard-response","202","509939","0.0-19.0-3.21","5fe354a2e44df4fb4634bbc3","bdp_trlrn","Sun Mar 12 2023 23:34:14 GMT-0400 (Eastern Daylight Time)","887299","Trustworthy,Untrustworthy","","null","","","","feedback","","<div class='trialDiv'><img src='trustrating_stim/white_00120_931230_fa_edt.bmp'><br><font class='baseline'><strong>Sebastian</strong><p>Received: <strong>20</strong></font> &nbsp; &nbsp; &nbsp; &nbsp; &nbsp; &nbsp;<font class='posOutcome'>Shared back: <strong>10</strong></font></font><div class='respPicDiv'><img src='img/responseButtonOffersNo0_wht.png' class='respPic'></div></div>","null","8","Sebastian","10","Shared","0.65,0.2","9","0.65","trustrating_stim/white_00120_931230_fa_edt.bmp","6","102","22"
"html-keyboard-response","203","511983","0.0-19.0-1.22","5fe354a2e44df4fb4634bbc3","bdp_trlrn","Sun Mar 12 2023 23:34:14 GMT-0400 (Eastern Daylight Time)","887299","Trustworthy,Untrustworthy","","2042","","","","decision","","<div class='trialDiv'><img src='trustrating_stim/white_mw084.bmp'><br><font class='baseline'><strong>Brian</strong><p>Choose number of points to send.</font><div class='respPicDiv'><img src='img/responseButtonOffersNo0L.png' class='respPic'></div></div>","1","8","Brian","4","Shared","0.2,0.65","12","0.2","trustrating_stim/white_mw084.bmp","3.5","107","23"
"html-keyboard-response","204","512243","0.0-19.0-2.22","5fe354a2e44df4fb4634bbc3","bdp_trlrn","Sun Mar 12 2023 23:34:14 GMT-0400 (Eastern Daylight Time)","887299","Trustworthy,Untrustworthy","","null","","","","decisionFB","","<div class='trialDiv'><img src='trustrating_stim/white_mw084.bmp'><br><font class='baseline'><strong>Brian</strong><p>Choose number of points to send.</font><div class='respPicDiv'><img src='img/responseButtonOffersNo0L1.png' class='respPic'></div></div>","null","8","Brian","4","Shared","0.2,0.65","12","0.2","trustrating_stim/white_mw084.bmp","3.5","106","23"
"html-keyboard-response","205","513251","0.0-19.0-3.22","5fe354a2e44df4fb4634bbc3","bdp_trlrn","Sun Mar 12 2023 23:34:14 GMT-0400 (Eastern Daylight Time)","887299","Trustworthy,Untrustworthy","","null","","","","feedback","","<div class='trialDiv'><img src='trustrating_stim/white_mw084.bmp'><br><font class='baseline'><strong>Brian</strong><p>Received: <strong>4</strong></font> &nbsp; &nbsp; &nbsp; &nbsp; &nbsp; &nbsp;<font class='posOutcome'>Shared back: <strong>2</strong></font></font><div class='respPicDiv'><img src='img/responseButtonOffersNo0_wht.png' class='respPic'></div></div>","null","8","Brian","4","Shared","0.2,0.65","12","0.2","trustrating_stim/white_mw084.bmp","3.5","108","23"
"html-keyboard-response","206","515089","0.0-19.0-1.23","5fe354a2e44df4fb4634bbc3","bdp_trlrn","Sun Mar 12 2023 23:34:14 GMT-0400 (Eastern Daylight Time)","887299","Trustworthy,Untrustworthy","","1837","","","","decision","","<div class='trialDiv'><img src='trustrating_stim/white_mw060.bmp'><br><font class='baseline'><strong>Alex</strong><p>Choose number of points to send.</font><div class='respPicDiv'><img src='img/responseButtonOffersNo0L.png' class='respPic'></div></div>","2","8","Alex","3","Shared","0.2,0.8","11","0.2","trustrating_stim/white_mw060.bmp","1.5","113","24"
"html-keyboard-response","207","515344","0.0-19.0-2.23","5fe354a2e44df4fb4634bbc3","bdp_trlrn","Sun Mar 12 2023 23:34:14 GMT-0400 (Eastern Daylight Time)","887299","Trustworthy,Untrustworthy","","null","","","","decisionFB","","<div class='trialDiv'><img src='trustrating_stim/white_mw060.bmp'><br><font class='baseline'><strong>Alex</strong><p>Choose number of points to send.</font><div class='respPicDiv'><img src='img/responseButtonOffersNo0L2.png' class='respPic'></div></div>","null","8","Alex","3","Shared","0.2,0.8","11","0.2","trustrating_stim/white_mw060.bmp","1.5","111","24"
"html-keyboard-response","208","516352","0.0-19.0-3.23","5fe354a2e44df4fb4634bbc3","bdp_trlrn","Sun Mar 12 2023 23:34:14 GMT-0400 (Eastern Daylight Time)","887299","Trustworthy,Untrustworthy","","null","","","","feedback","","<div class='trialDiv'><img src='trustrating_stim/white_mw060.bmp'><br><font class='baseline'><strong>Alex</strong><p>Received: <strong>8</strong></font> &nbsp; &nbsp; &nbsp; &nbsp; &nbsp; &nbsp;<font class='posOutcome'>Shared back: <strong>4</strong></font></font><div class='respPicDiv'><img src='img/responseButtonOffersNo0_wht.png' class='respPic'></div></div>","null","8","Alex","3","Shared","0.2,0.8","11","0.2","trustrating_stim/white_mw060.bmp","1.5","115","24"
"html-keyboard-response","209","518042","0.0-19.0-1.24","5fe354a2e44df4fb4634bbc3","bdp_trlrn","Sun Mar 12 2023 23:34:14 GMT-0400 (Eastern Daylight Time)","887299","Trustworthy,Untrustworthy","","1689","","","","decision","","<div class='trialDiv'><img src='trustrating_stim/white_mw084.bmp'><br><font class='baseline'><strong>Brian</strong><p>Choose number of points to send.</font><div class='respPicDiv'><img src='img/responseButtonOffersNo0L.png' class='respPic'></div></div>","1","9","Brian","4","Kept","0.2,0.65","12","0.2","trustrating_stim/white_mw084.bmp","3.5","120","25"
"html-keyboard-response","210","518306","0.0-19.0-2.24","5fe354a2e44df4fb4634bbc3","bdp_trlrn","Sun Mar 12 2023 23:34:14 GMT-0400 (Eastern Daylight Time)","887299","Trustworthy,Untrustworthy","","null","","","","decisionFB","","<div class='trialDiv'><img src='trustrating_stim/white_mw084.bmp'><br><font class='baseline'><strong>Brian</strong><p>Choose number of points to send.</font><div class='respPicDiv'><img src='img/responseButtonOffersNo0L1.png' class='respPic'></div></div>","null","9","Brian","4","Kept","0.2,0.65","12","0.2","trustrating_stim/white_mw084.bmp","3.5","119","25"
"html-keyboard-response","211","519312","0.0-19.0-3.24","5fe354a2e44df4fb4634bbc3","bdp_trlrn","Sun Mar 12 2023 23:34:14 GMT-0400 (Eastern Daylight Time)","887299","Trustworthy,Untrustworthy","","null","","","","feedback","","<div class='trialDiv'><img src='trustrating_stim/white_mw084.bmp'><br><font class='baseline'><strong>Brian</strong><p>Received: <strong>4</strong></font> &nbsp; &nbsp; &nbsp; &nbsp; &nbsp; &nbsp;<font class='negOutcome'>Shared back: <strong>0</strong></font></font><div class='respPicDiv'><img src='img/responseButtonOffersNo0_wht.png' class='respPic'></div></div>","null","9","Brian","4","Kept","0.2,0.65","12","0.2","trustrating_stim/white_mw084.bmp","3.5","119","25"
"html-keyboard-response","212","520174","0.0-19.0-1.25","5fe354a2e44df4fb4634bbc3","bdp_trlrn","Sun Mar 12 2023 23:34:14 GMT-0400 (Eastern Daylight Time)","887299","Trustworthy,Untrustworthy","","861","","","","decision","","<div class='trialDiv'><img src='trustrating_stim/white_00120_931230_fa_edt.bmp'><br><font class='baseline'><strong>Sebastian</strong><p>Choose number of points to send.</font><div class='respPicDiv'><img src='img/responseButtonOffersNo0L.png' class='respPic'></div></div>","5","9","Sebastian","10","Shared","0.65,0.2","9","0.65","trustrating_stim/white_00120_931230_fa_edt.bmp","6","124","26"
"html-keyboard-response","213","520435","0.0-19.0-2.25","5fe354a2e44df4fb4634bbc3","bdp_trlrn","Sun Mar 12 2023 23:34:14 GMT-0400 (Eastern Daylight Time)","887299","Trustworthy,Untrustworthy","","null","","","","decisionFB","","<div class='trialDiv'><img src='trustrating_stim/white_00120_931230_fa_edt.bmp'><br><font class='baseline'><strong>Sebastian</strong><p>Choose number of points to send.</font><div class='respPicDiv'><img src='img/responseButtonOffersNo0L5.png' class='respPic'></div></div>","null","9","Sebastian","10","Shared","0.65,0.2","9","0.65","trustrating_stim/white_00120_931230_fa_edt.bmp","6","119","26"
"html-keyboard-response","214","521443","0.0-19.0-3.25","5fe354a2e44df4fb4634bbc3","bdp_trlrn","Sun Mar 12 2023 23:34:14 GMT-0400 (Eastern Daylight Time)","887299","Trustworthy,Untrustworthy","","null","","","","feedback","","<div class='trialDiv'><img src='trustrating_stim/white_00120_931230_fa_edt.bmp'><br><font class='baseline'><strong>Sebastian</strong><p>Received: <strong>20</strong></font> &nbsp; &nbsp; &nbsp; &nbsp; &nbsp; &nbsp;<font class='posOutcome'>Shared back: <strong>10</strong></font></font><div class='respPicDiv'><img src='img/responseButtonOffersNo0_wht.png' class='respPic'></div></div>","null","9","Sebastian","10","Shared","0.65,0.2","9","0.65","trustrating_stim/white_00120_931230_fa_edt.bmp","6","129","26"
"html-keyboard-response","215","524267","0.0-19.0-1.26","5fe354a2e44df4fb4634bbc3","bdp_trlrn","Sun Mar 12 2023 23:34:14 GMT-0400 (Eastern Daylight Time)","887299","Trustworthy,Untrustworthy","","2821","","","","decision","","<div class='trialDiv'><img src='trustrating_stim/white_mw060.bmp'><br><font class='baseline'><strong>Alex</strong><p>Choose number of points to send.</font><div class='respPicDiv'><img src='img/responseButtonOffersNo0L.png' class='respPic'></div></div>","3","9","Alex","3","Kept","0.2,0.8","11","0.2","trustrating_stim/white_mw060.bmp","1.5","134","27"
"html-keyboard-response","216","524527","0.0-19.0-2.26","5fe354a2e44df4fb4634bbc3","bdp_trlrn","Sun Mar 12 2023 23:34:14 GMT-0400 (Eastern Daylight Time)","887299","Trustworthy,Untrustworthy","","null","","","","decisionFB","","<div class='trialDiv'><img src='trustrating_stim/white_mw060.bmp'><br><font class='baseline'><strong>Alex</strong><p>Choose number of points to send.</font><div class='respPicDiv'><img src='img/responseButtonOffersNo0L3.png' class='respPic'></div></div>","null","9","Alex","3","Kept","0.2,0.8","11","0.2","trustrating_stim/white_mw060.bmp","1.5","131","27"
"html-keyboard-response","217","525535","0.0-19.0-3.26","5fe354a2e44df4fb4634bbc3","bdp_trlrn","Sun Mar 12 2023 23:34:14 GMT-0400 (Eastern Daylight Time)","887299","Trustworthy,Untrustworthy","","null","","","","feedback","","<div class='trialDiv'><img src='trustrating_stim/white_mw060.bmp'><br><font class='baseline'><strong>Alex</strong><p>Received: <strong>12</strong></font> &nbsp; &nbsp; &nbsp; &nbsp; &nbsp; &nbsp;<font class='negOutcome'>Shared back: <strong>0</strong></font></font><div class='respPicDiv'><img src='img/responseButtonOffersNo0_wht.png' class='respPic'></div></div>","null","9","Alex","3","Kept","0.2,0.8","11","0.2","trustrating_stim/white_mw060.bmp","1.5","131","27"
"html-keyboard-response","218","526314","0.0-19.0-1.27","5fe354a2e44df4fb4634bbc3","bdp_trlrn","Sun Mar 12 2023 23:34:14 GMT-0400 (Eastern Daylight Time)","887299","Trustworthy,Untrustworthy","","777","","","","decision","","<div class='trialDiv'><img src='trustrating_stim/white_mw084.bmp'><br><font class='baseline'><strong>Brian</strong><p>Choose number of points to send.</font><div class='respPicDiv'><img src='img/responseButtonOffersNo0L.png' class='respPic'></div></div>","3","10","Brian","4","Kept","0.2,0.65","12","0.2","trustrating_stim/white_mw084.bmp","3.5","136","28"
"html-keyboard-response","219","526579","0.0-19.0-2.27","5fe354a2e44df4fb4634bbc3","bdp_trlrn","Sun Mar 12 2023 23:34:14 GMT-0400 (Eastern Daylight Time)","887299","Trustworthy,Untrustworthy","","null","","","","decisionFB","","<div class='trialDiv'><img src='trustrating_stim/white_mw084.bmp'><br><font class='baseline'><strong>Brian</strong><p>Choose number of points to send.</font><div class='respPicDiv'><img src='img/responseButtonOffersNo0L3.png' class='respPic'></div></div>","null","10","Brian","4","Kept","0.2,0.65","12","0.2","trustrating_stim/white_mw084.bmp","3.5","133","28"
"html-keyboard-response","220","527591","0.0-19.0-3.27","5fe354a2e44df4fb4634bbc3","bdp_trlrn","Sun Mar 12 2023 23:34:14 GMT-0400 (Eastern Daylight Time)","887299","Trustworthy,Untrustworthy","","null","","","","feedback","","<div class='trialDiv'><img src='trustrating_stim/white_mw084.bmp'><br><font class='baseline'><strong>Brian</strong><p>Received: <strong>12</strong></font> &nbsp; &nbsp; &nbsp; &nbsp; &nbsp; &nbsp;<font class='negOutcome'>Shared back: <strong>0</strong></font></font><div class='respPicDiv'><img src='img/responseButtonOffersNo0_wht.png' class='respPic'></div></div>","null","10","Brian","4","Kept","0.2,0.65","12","0.2","trustrating_stim/white_mw084.bmp","3.5","133","28"
"html-keyboard-response","221","528421","0.0-19.0-1.28","5fe354a2e44df4fb4634bbc3","bdp_trlrn","Sun Mar 12 2023 23:34:14 GMT-0400 (Eastern Daylight Time)","887299","Trustworthy,Untrustworthy","","829","","","","decision","","<div class='trialDiv'><img src='trustrating_stim/white_00120_931230_fa_edt.bmp'><br><font class='baseline'><strong>Sebastian</strong><p>Choose number of points to send.</font><div class='respPicDiv'><img src='img/responseButtonOffersNo0L.png' class='respPic'></div></div>","5","10","Sebastian","10","Shared","0.65,0.2","9","0.65","trustrating_stim/white_00120_931230_fa_edt.bmp","6","138","29"
