"trial_type","trial_index","time_elapsed","internal_node_id","subject_id","task","startTime","totalTime","labels","view_history","rt","event","trial","time","trialtype","success","stimulus","key_press","aground","name","faceID","outcome","agenttype","agentswpt","agentcurrpshare","face","avgRating","point_total","round"
"pavlovia","0","2","0.0-0.0","63d17cf704d2d7053d56b962","bdp_trlrn","Tue Mar 14 2023 21:10:40 GMT-0400 (Eastern Daylight Time)","385942","Trustworthy,Untrustworthy","","","","","","","","","","","","","","","","","","","",""
"instructions","1","3193","0.0-1.0","63d17cf704d2d7053d56b962","bdp_trlrn","Tue Mar 14 2023 21:10:40 GMT-0400 (Eastern Daylight Time)","385942","Trustworthy,Untrustworthy","[{""page_index"":0,""viewing_time"":3191}]","3191","","","","","","","","","","","","","","","","","",""
"","","","","63d17cf704d2d7053d56b962","bdp_trlrn","Tue Mar 14 2023 21:10:40 GMT-0400 (Eastern Daylight Time)","385942","Trustworthy,Untrustworthy","","","fullscreenenter","2","4836","fullscreenenter","","","","","","","","","","","","","",""
"fullscreen","2","5823","0.0-2.0","63d17cf704d2d7053d56b962","bdp_trlrn","Tue Mar 14 2023 21:10:40 GMT-0400 (Eastern Daylight Time)","385942","Trustworthy,Untrustworthy","","","","","","","true","","","","","","","","","","","","",""
"instructions","3","30676","0.0-4.0","63d17cf704d2d7053d56b962","bdp_trlrn","Tue Mar 14 2023 21:10:40 GMT-0400 (Eastern Daylight Time)","385942","Trustworthy,Untrustworthy","[{""page_index"":0,""viewing_time"":5216},{""page_index"":1,""viewing_time"":19636}]","24852","","","","","","","","","","","","","","","","","",""
"instructions","4","31457","0.0-5.0","63d17cf704d2d7053d56b962","bdp_trlrn","Tue Mar 14 2023 21:10:40 GMT-0400 (Eastern Daylight Time)","385942","Trustworthy,Untrustworthy","[{""page_index"":0,""viewing_time"":781}]","781","","","","","","","","","","","","","","","","","",""
"image-keyboard-response","5","33762","0.0-6.0-1.0","63d17cf704d2d7053d56b962","bdp_trlrn","Tue Mar 14 2023 21:10:40 GMT-0400 (Eastern Daylight Time)","385942","Trustworthy,Untrustworthy","","2193","","","","rating","","trustrating_stim/white_mw035.bmp","4","","","","","","","","","","",""
"image-keyboard-response","6","33966","0.0-6.0-2.0","63d17cf704d2d7053d56b962","bdp_trlrn","Tue Mar 14 2023 21:10:40 GMT-0400 (Eastern Daylight Time)","385942","Trustworthy,Untrustworthy","","null","","","","ratingFB","","trustrating_stim/white_mw035.bmp","null","","","","","","","","","","",""
"image-keyboard-response","7","35357","0.0-6.0-1.1","63d17cf704d2d7053d56b962","bdp_trlrn","Tue Mar 14 2023 21:10:40 GMT-0400 (Eastern Daylight Time)","385942","Trustworthy,Untrustworthy","","1283","","","","rating","","trustrating_stim/white_00120_931230_fa_edt.bmp","5","","","","","","","","","","",""
"image-keyboard-response","8","35559","0.0-6.0-2.1","63d17cf704d2d7053d56b962","bdp_trlrn","Tue Mar 14 2023 21:10:40 GMT-0400 (Eastern Daylight Time)","385942","Trustworthy,Untrustworthy","","null","","","","ratingFB","","trustrating_stim/white_00120_931230_fa_edt.bmp","null","","","","","","","","","","",""
"image-keyboard-response","9","36633","0.0-6.0-1.2","63d17cf704d2d7053d56b962","bdp_trlrn","Tue Mar 14 2023 21:10:40 GMT-0400 (Eastern Daylight Time)","385942","Trustworthy,Untrustworthy","","966","","","","rating","","trustrating_stim/white_mw033.bmp","3","","","","","","","","","","",""
"image-keyboard-response","10","36843","0.0-6.0-2.2","63d17cf704d2d7053d56b962","bdp_trlrn","Tue Mar 14 2023 21:10:40 GMT-0400 (Eastern Daylight Time)","385942","Trustworthy,Untrustworthy","","null","","","","ratingFB","","trustrating_stim/white_mw033.bmp","null","","","","","","","","","","",""
"image-keyboard-response","11","37910","0.0-6.0-1.3","63d17cf704d2d7053d56b962","bdp_trlrn","Tue Mar 14 2023 21:10:40 GMT-0400 (Eastern Daylight Time)","385942","Trustworthy,Untrustworthy","","959","","","","rating","","trustrating_stim/white_00299_940422_fa_edt.bmp","4","","","","","","","","","","",""
"image-keyboard-response","12","38111","0.0-6.0-2.3","63d17cf704d2d7053d56b962","bdp_trlrn","Tue Mar 14 2023 21:10:40 GMT-0400 (Eastern Daylight Time)","385942","Trustworthy,Untrustworthy","","null","","","","ratingFB","","trustrating_stim/white_00299_940422_fa_edt.bmp","null","","","","","","","","","","",""
"image-keyboard-response","13","39713","0.0-6.0-1.4","63d17cf704d2d7053d56b962","bdp_trlrn","Tue Mar 14 2023 21:10:40 GMT-0400 (Eastern Daylight Time)","385942","Trustworthy,Untrustworthy","","1501","","","","rating","","trustrating_stim/white_mw071.bmp","5","","","","","","","","","","",""
"image-keyboard-response","14","39920","0.0-6.0-2.4","63d17cf704d2d7053d56b962","bdp_trlrn","Tue Mar 14 2023 21:10:40 GMT-0400 (Eastern Daylight Time)","385942","Trustworthy,Untrustworthy","","null","","","","ratingFB","","trustrating_stim/white_mw071.bmp","null","","","","","","","","","","",""
"image-keyboard-response","15","41216","0.0-6.0-1.5","63d17cf704d2d7053d56b962","bdp_trlrn","Tue Mar 14 2023 21:10:40 GMT-0400 (Eastern Daylight Time)","385942","Trustworthy,Untrustworthy","","1196","","","","rating","","trustrating_stim/white_00519_940519_fb_edt.bmp","6","","","","","","","","","","",""
"image-keyboard-response","16","41420","0.0-6.0-2.5","63d17cf704d2d7053d56b962","bdp_trlrn","Tue Mar 14 2023 21:10:40 GMT-0400 (Eastern Daylight Time)","385942","Trustworthy,Untrustworthy","","null","","","","ratingFB","","trustrating_stim/white_00519_940519_fb_edt.bmp","null","","","","","","","","","","",""
"image-keyboard-response","17","42097","0.0-6.0-1.6","63d17cf704d2d7053d56b962","bdp_trlrn","Tue Mar 14 2023 21:10:40 GMT-0400 (Eastern Daylight Time)","385942","Trustworthy,Untrustworthy","","570","","","","rating","","trustrating_stim/white_mw060.bmp","5","","","","","","","","","","",""
"image-keyboard-response","18","42299","0.0-6.0-2.6","63d17cf704d2d7053d56b962","bdp_trlrn","Tue Mar 14 2023 21:10:40 GMT-0400 (Eastern Daylight Time)","385942","Trustworthy,Untrustworthy","","null","","","","ratingFB","","trustrating_stim/white_mw060.bmp","null","","","","","","","","","","",""
"image-keyboard-response","19","43149","0.0-6.0-1.7","63d17cf704d2d7053d56b962","bdp_trlrn","Tue Mar 14 2023 21:10:40 GMT-0400 (Eastern Daylight Time)","385942","Trustworthy,Untrustworthy","","742","","","","rating","","trustrating_stim/white_00757_941201_fa_edt.bmp","4","","","","","","","","","","",""
"image-keyboard-response","20","43363","0.0-6.0-2.7","63d17cf704d2d7053d56b962","bdp_trlrn","Tue Mar 14 2023 21:10:40 GMT-0400 (Eastern Daylight Time)","385942","Trustworthy,Untrustworthy","","null","","","","ratingFB","","trustrating_stim/white_00757_941201_fa_edt.bmp","null","","","","","","","","","","",""
"image-keyboard-response","21","44381","0.0-6.0-1.8","63d17cf704d2d7053d56b962","bdp_trlrn","Tue Mar 14 2023 21:10:40 GMT-0400 (Eastern Daylight Time)","385942","Trustworthy,Untrustworthy","","910","","","","rating","","trustrating_stim/white_mw099.bmp","3","","","","","","","","","","",""
"image-keyboard-response","22","44583","0.0-6.0-2.8","63d17cf704d2d7053d56b962","bdp_trlrn","Tue Mar 14 2023 21:10:40 GMT-0400 (Eastern Daylight Time)","385942","Trustworthy,Untrustworthy","","null","","","","ratingFB","","trustrating_stim/white_mw099.bmp","null","","","","","","","","","","",""
"image-keyboard-response","23","45614","0.0-6.0-1.9","63d17cf704d2d7053d56b962","bdp_trlrn","Tue Mar 14 2023 21:10:40 GMT-0400 (Eastern Daylight Time)","385942","Trustworthy,Untrustworthy","","923","","","","rating","","trustrating_stim/white_mw048.bmp","4","","","","","","","","","","",""
"image-keyboard-response","24","45822","0.0-6.0-2.9","63d17cf704d2d7053d56b962","bdp_trlrn","Tue Mar 14 2023 21:10:40 GMT-0400 (Eastern Daylight Time)","385942","Trustworthy,Untrustworthy","","null","","","","ratingFB","","trustrating_stim/white_mw048.bmp","null","","","","","","","","","","",""
"image-keyboard-response","25","46706","0.0-6.0-1.10","63d17cf704d2d7053d56b962","bdp_trlrn","Tue Mar 14 2023 21:10:40 GMT-0400 (Eastern Daylight Time)","385942","Trustworthy,Untrustworthy","","777","","","","rating","","trustrating_stim/white_00223_940128_fb_edt.bmp","5","","","","","","","","","","",""
"image-keyboard-response","26","46916","0.0-6.0-2.10","63d17cf704d2d7053d56b962","bdp_trlrn","Tue Mar 14 2023 21:10:40 GMT-0400 (Eastern Daylight Time)","385942","Trustworthy,Untrustworthy","","null","","","","ratingFB","","trustrating_stim/white_00223_940128_fb_edt.bmp","null","","","","","","","","","","",""
"image-keyboard-response","27","47819","0.0-6.0-1.11","63d17cf704d2d7053d56b962","bdp_trlrn","Tue Mar 14 2023 21:10:40 GMT-0400 (Eastern Daylight Time)","385942","Trustworthy,Untrustworthy","","795","","","","rating","","trustrating_stim/white_00785_941205_fb_edt.bmp","3","","","","","","","","","","",""
"image-keyboard-response","28","48030","0.0-6.0-2.11","63d17cf704d2d7053d56b962","bdp_trlrn","Tue Mar 14 2023 21:10:40 GMT-0400 (Eastern Daylight Time)","385942","Trustworthy,Untrustworthy","","null","","","","ratingFB","","trustrating_stim/white_00785_941205_fb_edt.bmp","null","","","","","","","","","","",""
"image-keyboard-response","29","48880","0.0-6.0-1.12","63d17cf704d2d7053d56b962","bdp_trlrn","Tue Mar 14 2023 21:10:40 GMT-0400 (Eastern Daylight Time)","385942","Trustworthy,Untrustworthy","","742","","","","rating","","trustrating_stim/white_00340_940422_fa_edt.bmp","4","","","","","","","","","","",""
"image-keyboard-response","30","49082","0.0-6.0-2.12","63d17cf704d2d7053d56b962","bdp_trlrn","Tue Mar 14 2023 21:10:40 GMT-0400 (Eastern Daylight Time)","385942","Trustworthy,Untrustworthy","","null","","","","ratingFB","","trustrating_stim/white_00340_940422_fa_edt.bmp","null","","","","","","","","","","",""
"image-keyboard-response","31","49936","0.0-6.0-1.13","63d17cf704d2d7053d56b962","bdp_trlrn","Tue Mar 14 2023 21:10:40 GMT-0400 (Eastern Daylight Time)","385942","Trustworthy,Untrustworthy","","745","","","","rating","","trustrating_stim/white_mw063.bmp","3","","","","","","","","","","",""
"image-keyboard-response","32","50149","0.0-6.0-2.13","63d17cf704d2d7053d56b962","bdp_trlrn","Tue Mar 14 2023 21:10:40 GMT-0400 (Eastern Daylight Time)","385942","Trustworthy,Untrustworthy","","null","","","","ratingFB","","trustrating_stim/white_mw063.bmp","null","","","","","","","","","","",""
"image-keyboard-response","33","51101","0.0-6.0-1.14","63d17cf704d2d7053d56b962","bdp_trlrn","Tue Mar 14 2023 21:10:40 GMT-0400 (Eastern Daylight Time)","385942","Trustworthy,Untrustworthy","","844","","","","rating","","trustrating_stim/white_mw046.bmp","4","","","","","","","","","","",""
"image-keyboard-response","34","51310","0.0-6.0-2.14","63d17cf704d2d7053d56b962","bdp_trlrn","Tue Mar 14 2023 21:10:40 GMT-0400 (Eastern Daylight Time)","385942","Trustworthy,Untrustworthy","","null","","","","ratingFB","","trustrating_stim/white_mw046.bmp","null","","","","","","","","","","",""
"image-keyboard-response","35","51914","0.0-6.0-1.15","63d17cf704d2d7053d56b962","bdp_trlrn","Tue Mar 14 2023 21:10:40 GMT-0400 (Eastern Daylight Time)","385942","Trustworthy,Untrustworthy","","496","","","","rating","","trustrating_stim/white_00761_941201_fb_edt.bmp","3","","","","","","","","","","",""
"image-keyboard-response","36","52129","0.0-6.0-2.15","63d17cf704d2d7053d56b962","bdp_trlrn","Tue Mar 14 2023 21:10:40 GMT-0400 (Eastern Daylight Time)","385942","Trustworthy,Untrustworthy","","null","","","","ratingFB","","trustrating_stim/white_00761_941201_fb_edt.bmp","null","","","","","","","","","","",""
"image-keyboard-response","37","53095","0.0-6.0-1.16","63d17cf704d2d7053d56b962","bdp_trlrn","Tue Mar 14 2023 21:10:40 GMT-0400 (Eastern Daylight Time)","385942","Trustworthy,Untrustworthy","","858","","","","rating","","trustrating_stim/white_mw097.bmp","3","","","","","","","","","","",""
"image-keyboard-response","38","53303","0.0-6.0-2.16","63d17cf704d2d7053d56b962","bdp_trlrn","Tue Mar 14 2023 21:10:40 GMT-0400 (Eastern Daylight Time)","385942","Trustworthy,Untrustworthy","","null","","","","ratingFB","","trustrating_stim/white_mw097.bmp","null","","","","","","","","","","",""
"image-keyboard-response","39","54474","0.0-6.0-1.17","63d17cf704d2d7053d56b962","bdp_trlrn","Tue Mar 14 2023 21:10:40 GMT-0400 (Eastern Daylight Time)","385942","Trustworthy,Untrustworthy","","1064","","","","rating","","trustrating_stim/white_00659_941121_fa_edt.bmp","2","","","","","","","","","","",""
"image-keyboard-response","40","54681","0.0-6.0-2.17","63d17cf704d2d7053d56b962","bdp_trlrn","Tue Mar 14 2023 21:10:40 GMT-0400 (Eastern Daylight Time)","385942","Trustworthy,Untrustworthy","","null","","","","ratingFB","","trustrating_stim/white_00659_941121_fa_edt.bmp","null","","","","","","","","","","",""
"image-keyboard-response","41","56139","0.0-6.0-1.18","63d17cf704d2d7053d56b962","bdp_trlrn","Tue Mar 14 2023 21:10:40 GMT-0400 (Eastern Daylight Time)","385942","Trustworthy,Untrustworthy","","1356","","","","rating","","trustrating_stim/white_mw066.bmp","6","","","","","","","","","","",""
"image-keyboard-response","42","56349","0.0-6.0-2.18","63d17cf704d2d7053d56b962","bdp_trlrn","Tue Mar 14 2023 21:10:40 GMT-0400 (Eastern Daylight Time)","385942","Trustworthy,Untrustworthy","","null","","","","ratingFB","","trustrating_stim/white_mw066.bmp","null","","","","","","","","","","",""
"image-keyboard-response","43","57462","0.0-6.0-1.19","63d17cf704d2d7053d56b962","bdp_trlrn","Tue Mar 14 2023 21:10:40 GMT-0400 (Eastern Daylight Time)","385942","Trustworthy,Untrustworthy","","1004","","","","rating","","trustrating_stim/white_00577_940928_fa_edt.bmp","3","","","","","","","","","","",""
"image-keyboard-response","44","57678","0.0-6.0-2.19","63d17cf704d2d7053d56b962","bdp_trlrn","Tue Mar 14 2023 21:10:40 GMT-0400 (Eastern Daylight Time)","385942","Trustworthy,Untrustworthy","","null","","","","ratingFB","","trustrating_stim/white_00577_940928_fa_edt.bmp","null","","","","","","","","","","",""
"image-keyboard-response","45","58351","0.0-6.0-1.20","63d17cf704d2d7053d56b962","bdp_trlrn","Tue Mar 14 2023 21:10:40 GMT-0400 (Eastern Daylight Time)","385942","Trustworthy,Untrustworthy","","572","","","","rating","","trustrating_stim/white_mw089.bmp","5","","","","","","","","","","",""
"image-keyboard-response","46","58558","0.0-6.0-2.20","63d17cf704d2d7053d56b962","bdp_trlrn","Tue Mar 14 2023 21:10:40 GMT-0400 (Eastern Daylight Time)","385942","Trustworthy,Untrustworthy","","null","","","","ratingFB","","trustrating_stim/white_mw089.bmp","null","","","","","","","","","","",""
"image-keyboard-response","47","59236","0.0-6.0-1.21","63d17cf704d2d7053d56b962","bdp_trlrn","Tue Mar 14 2023 21:10:40 GMT-0400 (Eastern Daylight Time)","385942","Trustworthy,Untrustworthy","","576","","","","rating","","trustrating_stim/white_mw049.bmp","3","","","","","","","","","","",""
"image-keyboard-response","48","59437","0.0-6.0-2.21","63d17cf704d2d7053d56b962","bdp_trlrn","Tue Mar 14 2023 21:10:40 GMT-0400 (Eastern Daylight Time)","385942","Trustworthy,Untrustworthy","","null","","","","ratingFB","","trustrating_stim/white_mw049.bmp","null","","","","","","","","","","",""
"image-keyboard-response","49","60245","0.0-6.0-1.22","63d17cf704d2d7053d56b962","bdp_trlrn","Tue Mar 14 2023 21:10:40 GMT-0400 (Eastern Daylight Time)","385942","Trustworthy,Untrustworthy","","700","","","","rating","","trustrating_stim/white_mw056.bmp","3","","","","","","","","","","",""
"image-keyboard-response","50","60457","0.0-6.0-2.22","63d17cf704d2d7053d56b962","bdp_trlrn","Tue Mar 14 2023 21:10:40 GMT-0400 (Eastern Daylight Time)","385942","Trustworthy,Untrustworthy","","null","","","","ratingFB","","trustrating_stim/white_mw056.bmp","null","","","","","","","","","","",""
"image-keyboard-response","51","61757","0.0-6.0-1.23","63d17cf704d2d7053d56b962","bdp_trlrn","Tue Mar 14 2023 21:10:40 GMT-0400 (Eastern Daylight Time)","385942","Trustworthy,Untrustworthy","","1192","","","","rating","","trustrating_stim/white_00602_940928_fb_edt.bmp","7","","","","","","","","","","",""
"image-keyboard-response","52","61968","0.0-6.0-2.23","63d17cf704d2d7053d56b962","bdp_trlrn","Tue Mar 14 2023 21:10:40 GMT-0400 (Eastern Daylight Time)","385942","Trustworthy,Untrustworthy","","null","","","","ratingFB","","trustrating_stim/white_00602_940928_fb_edt.bmp","null","","","","","","","","","","",""
"image-keyboard-response","53","62941","0.0-6.0-1.24","63d17cf704d2d7053d56b962","bdp_trlrn","Tue Mar 14 2023 21:10:40 GMT-0400 (Eastern Daylight Time)","385942","Trustworthy,Untrustworthy","","865","","","","rating","","trustrating_stim/white_00807_941205_fb_edt.bmp","4","","","","","","","","","","",""
"image-keyboard-response","54","63157","0.0-6.0-2.24","63d17cf704d2d7053d56b962","bdp_trlrn","Tue Mar 14 2023 21:10:40 GMT-0400 (Eastern Daylight Time)","385942","Trustworthy,Untrustworthy","","null","","","","ratingFB","","trustrating_stim/white_00807_941205_fb_edt.bmp","null","","","","","","","","","","",""
"image-keyboard-response","55","64058","0.0-6.0-1.25","63d17cf704d2d7053d56b962","bdp_trlrn","Tue Mar 14 2023 21:10:40 GMT-0400 (Eastern Daylight Time)","385942","Trustworthy,Untrustworthy","","793","","","","rating","","trustrating_stim/white_00129_931230_fb_edt.bmp","7","","","","","","","","","","",""
"image-keyboard-response","56","64269","0.0-6.0-2.25","63d17cf704d2d7053d56b962","bdp_trlrn","Tue Mar 14 2023 21:10:40 GMT-0400 (Eastern Daylight Time)","385942","Trustworthy,Untrustworthy","","null","","","","ratingFB","","trustrating_stim/white_00129_931230_fb_edt.bmp","null","","","","","","","","","","",""
"image-keyboard-response","57","64891","0.0-6.0-1.26","63d17cf704d2d7053d56b962","bdp_trlrn","Tue Mar 14 2023 21:10:40 GMT-0400 (Eastern Daylight Time)","385942","Trustworthy,Untrustworthy","","514","","","","rating","","trustrating_stim/white_00109_931230_fa_edt.bmp","4","","","","","","","","","","",""
"image-keyboard-response","58","65102","0.0-6.0-2.26","63d17cf704d2d7053d56b962","bdp_trlrn","Tue Mar 14 2023 21:10:40 GMT-0400 (Eastern Daylight Time)","385942","Trustworthy,Untrustworthy","","null","","","","ratingFB","","trustrating_stim/white_00109_931230_fa_edt.bmp","null","","","","","","","","","","",""
"image-keyboard-response","59","65737","0.0-6.0-1.27","63d17cf704d2d7053d56b962","bdp_trlrn","Tue Mar 14 2023 21:10:40 GMT-0400 (Eastern Daylight Time)","385942","Trustworthy,Untrustworthy","","526","","","","rating","","trustrating_stim/white_00898_960530_fa_edt.bmp","4","","","","","","","","","","",""
"image-keyboard-response","60","65949","0.0-6.0-2.27","63d17cf704d2d7053d56b962","bdp_trlrn","Tue Mar 14 2023 21:10:40 GMT-0400 (Eastern Daylight Time)","385942","Trustworthy,Untrustworthy","","null","","","","ratingFB","","trustrating_stim/white_00898_960530_fa_edt.bmp","null","","","","","","","","","","",""
"image-keyboard-response","61","66940","0.0-6.0-1.28","63d17cf704d2d7053d56b962","bdp_trlrn","Tue Mar 14 2023 21:10:40 GMT-0400 (Eastern Daylight Time)","385942","Trustworthy,Untrustworthy","","889","","","","rating","","trustrating_stim/white_mw084.bmp","2","","","","","","","","","","",""
"image-keyboard-response","62","67141","0.0-6.0-2.28","63d17cf704d2d7053d56b962","bdp_trlrn","Tue Mar 14 2023 21:10:40 GMT-0400 (Eastern Daylight Time)","385942","Trustworthy,Untrustworthy","","null","","","","ratingFB","","trustrating_stim/white_mw084.bmp","null","","","","","","","","","","",""
"image-keyboard-response","63","68105","0.0-6.0-1.29","63d17cf704d2d7053d56b962","bdp_trlrn","Tue Mar 14 2023 21:10:40 GMT-0400 (Eastern Daylight Time)","385942","Trustworthy,Untrustworthy","","857","","","","rating","","trustrating_stim/white_mw053.bmp","2","","","","","","","","","","",""
"image-keyboard-response","64","68317","0.0-6.0-2.29","63d17cf704d2d7053d56b962","bdp_trlrn","Tue Mar 14 2023 21:10:40 GMT-0400 (Eastern Daylight Time)","385942","Trustworthy,Untrustworthy","","null","","","","ratingFB","","trustrating_stim/white_mw053.bmp","null","","","","","","","","","","",""
"image-keyboard-response","65","69070","0.0-6.0-1.30","63d17cf704d2d7053d56b962","bdp_trlrn","Tue Mar 14 2023 21:10:40 GMT-0400 (Eastern Daylight Time)","385942","Trustworthy,Untrustworthy","","644","","","","rating","","trustrating_stim/white_mw071.bmp","3","","","","","","","","","","",""
"image-keyboard-response","66","69275","0.0-6.0-2.30","63d17cf704d2d7053d56b962","bdp_trlrn","Tue Mar 14 2023 21:10:40 GMT-0400 (Eastern Daylight Time)","385942","Trustworthy,Untrustworthy","","null","","","","ratingFB","","trustrating_stim/white_mw071.bmp","null","","","","","","","","","","",""
"image-keyboard-response","67","69908","0.0-6.0-1.31","63d17cf704d2d7053d56b962","bdp_trlrn","Tue Mar 14 2023 21:10:40 GMT-0400 (Eastern Daylight Time)","385942","Trustworthy,Untrustworthy","","525","","","","rating","","trustrating_stim/white_00577_940928_fa_edt.bmp","5","","","","","","","","","","",""
"image-keyboard-response","68","70124","0.0-6.0-2.31","63d17cf704d2d7053d56b962","bdp_trlrn","Tue Mar 14 2023 21:10:40 GMT-0400 (Eastern Daylight Time)","385942","Trustworthy,Untrustworthy","","null","","","","ratingFB","","trustrating_stim/white_00577_940928_fa_edt.bmp","null","","","","","","","","","","",""
"image-keyboard-response","69","70625","0.0-6.0-1.32","63d17cf704d2d7053d56b962","bdp_trlrn","Tue Mar 14 2023 21:10:40 GMT-0400 (Eastern Daylight Time)","385942","Trustworthy,Untrustworthy","","393","","","","rating","","trustrating_stim/white_mw035.bmp","4","","","","","","","","","","",""
"image-keyboard-response","70","70833","0.0-6.0-2.32","63d17cf704d2d7053d56b962","bdp_trlrn","Tue Mar 14 2023 21:10:40 GMT-0400 (Eastern Daylight Time)","385942","Trustworthy,Untrustworthy","","null","","","","ratingFB","","trustrating_stim/white_mw035.bmp","null","","","","","","","","","","",""
"image-keyboard-response","71","71371","0.0-6.0-1.33","63d17cf704d2d7053d56b962","bdp_trlrn","Tue Mar 14 2023 21:10:40 GMT-0400 (Eastern Daylight Time)","385942","Trustworthy,Untrustworthy","","430","","","","rating","","trustrating_stim/white_mw048.bmp","3","","","","","","","","","","",""
"image-keyboard-response","72","71574","0.0-6.0-2.33","63d17cf704d2d7053d56b962","bdp_trlrn","Tue Mar 14 2023 21:10:40 GMT-0400 (Eastern Daylight Time)","385942","Trustworthy,Untrustworthy","","null","","","","ratingFB","","trustrating_stim/white_mw048.bmp","null","","","","","","","","","","",""
"image-keyboard-response","73","72360","0.0-6.0-1.34","63d17cf704d2d7053d56b962","bdp_trlrn","Tue Mar 14 2023 21:10:40 GMT-0400 (Eastern Daylight Time)","385942","Trustworthy,Untrustworthy","","677","","","","rating","","trustrating_stim/white_mw053.bmp","3","","","","","","","","","","",""
"image-keyboard-response","74","72562","0.0-6.0-2.34","63d17cf704d2d7053d56b962","bdp_trlrn","Tue Mar 14 2023 21:10:40 GMT-0400 (Eastern Daylight Time)","385942","Trustworthy,Untrustworthy","","null","","","","ratingFB","","trustrating_stim/white_mw053.bmp","null","","","","","","","","","","",""
"image-keyboard-response","75","72907","0.0-6.0-1.35","63d17cf704d2d7053d56b962","bdp_trlrn","Tue Mar 14 2023 21:10:40 GMT-0400 (Eastern Daylight Time)","385942","Trustworthy,Untrustworthy","","236","","","","rating","","trustrating_stim/white_00659_941121_fa_edt.bmp","6","","","","","","","","","","",""
"image-keyboard-response","76","73118","0.0-6.0-2.35","63d17cf704d2d7053d56b962","bdp_trlrn","Tue Mar 14 2023 21:10:40 GMT-0400 (Eastern Daylight Time)","385942","Trustworthy,Untrustworthy","","null","","","","ratingFB","","trustrating_stim/white_00659_941121_fa_edt.bmp","null","","","","","","","","","","",""
"image-keyboard-response","77","73601","0.0-6.0-1.36","63d17cf704d2d7053d56b962","bdp_trlrn","Tue Mar 14 2023 21:10:40 GMT-0400 (Eastern Daylight Time)","385942","Trustworthy,Untrustworthy","","375","","","","rating","","trustrating_stim/white_00785_941205_fb_edt.bmp","5","","","","","","","","","","",""
"image-keyboard-response","78","73813","0.0-6.0-2.36","63d17cf704d2d7053d56b962","bdp_trlrn","Tue Mar 14 2023 21:10:40 GMT-0400 (Eastern Daylight Time)","385942","Trustworthy,Untrustworthy","","null","","","","ratingFB","","trustrating_stim/white_00785_941205_fb_edt.bmp","null","","","","","","","","","","",""
"image-keyboard-response","79","74836","0.0-6.0-1.37","63d17cf704d2d7053d56b962","bdp_trlrn","Tue Mar 14 2023 21:10:40 GMT-0400 (Eastern Daylight Time)","385942","Trustworthy,Untrustworthy","","922","","","","rating","","trustrating_stim/white_00223_940128_fb_edt.bmp","4","","","","","","","","","","",""
"image-keyboard-response","80","75047","0.0-6.0-2.37","63d17cf704d2d7053d56b962","bdp_trlrn","Tue Mar 14 2023 21:10:40 GMT-0400 (Eastern Daylight Time)","385942","Trustworthy,Untrustworthy","","null","","","","ratingFB","","trustrating_stim/white_00223_940128_fb_edt.bmp","null","","","","","","","","","","",""
"image-keyboard-response","81","75794","0.0-6.0-1.38","63d17cf704d2d7053d56b962","bdp_trlrn","Tue Mar 14 2023 21:10:40 GMT-0400 (Eastern Daylight Time)","385942","Trustworthy,Untrustworthy","","638","","","","rating","","trustrating_stim/white_mw056.bmp","4","","","","","","","","","","",""
"image-keyboard-response","82","76004","0.0-6.0-2.38","63d17cf704d2d7053d56b962","bdp_trlrn","Tue Mar 14 2023 21:10:40 GMT-0400 (Eastern Daylight Time)","385942","Trustworthy,Untrustworthy","","null","","","","ratingFB","","trustrating_stim/white_mw056.bmp","null","","","","","","","","","","",""
"image-keyboard-response","83","76552","0.0-6.0-1.39","63d17cf704d2d7053d56b962","bdp_trlrn","Tue Mar 14 2023 21:10:40 GMT-0400 (Eastern Daylight Time)","385942","Trustworthy,Untrustworthy","","439","","","","rating","","trustrating_stim/white_mw097.bmp","4","","","","","","","","","","",""
"image-keyboard-response","84","76762","0.0-6.0-2.39","63d17cf704d2d7053d56b962","bdp_trlrn","Tue Mar 14 2023 21:10:40 GMT-0400 (Eastern Daylight Time)","385942","Trustworthy,Untrustworthy","","null","","","","ratingFB","","trustrating_stim/white_mw097.bmp","null","","","","","","","","","","",""
"image-keyboard-response","85","77213","0.0-6.0-1.40","63d17cf704d2d7053d56b962","bdp_trlrn","Tue Mar 14 2023 21:10:40 GMT-0400 (Eastern Daylight Time)","385942","Trustworthy,Untrustworthy","","343","","","","rating","","trustrating_stim/white_00109_931230_fa_edt.bmp","3","","","","","","","","","","",""
"image-keyboard-response","86","77425","0.0-6.0-2.40","63d17cf704d2d7053d56b962","bdp_trlrn","Tue Mar 14 2023 21:10:40 GMT-0400 (Eastern Daylight Time)","385942","Trustworthy,Untrustworthy","","null","","","","ratingFB","","trustrating_stim/white_00109_931230_fa_edt.bmp","null","","","","","","","","","","",""
"image-keyboard-response","87","77863","0.0-6.0-1.41","63d17cf704d2d7053d56b962","bdp_trlrn","Tue Mar 14 2023 21:10:40 GMT-0400 (Eastern Daylight Time)","385942","Trustworthy,Untrustworthy","","337","","","","rating","","trustrating_stim/white_mw099.bmp","3","","","","","","","","","","",""
"image-keyboard-response","88","78073","0.0-6.0-2.41","63d17cf704d2d7053d56b962","bdp_trlrn","Tue Mar 14 2023 21:10:40 GMT-0400 (Eastern Daylight Time)","385942","Trustworthy,Untrustworthy","","null","","","","ratingFB","","trustrating_stim/white_mw099.bmp","null","","","","","","","","","","",""
"image-keyboard-response","89","78465","0.0-6.0-1.42","63d17cf704d2d7053d56b962","bdp_trlrn","Tue Mar 14 2023 21:10:40 GMT-0400 (Eastern Daylight Time)","385942","Trustworthy,Untrustworthy","","291","","","","rating","","trustrating_stim/white_00761_941201_fb_edt.bmp","3","","","","","","","","","","",""
"image-keyboard-response","90","78677","0.0-6.0-2.42","63d17cf704d2d7053d56b962","bdp_trlrn","Tue Mar 14 2023 21:10:40 GMT-0400 (Eastern Daylight Time)","385942","Trustworthy,Untrustworthy","","null","","","","ratingFB","","trustrating_stim/white_00761_941201_fb_edt.bmp","null","","","","","","","","","","",""
"image-keyboard-response","91","78988","0.0-6.0-1.43","63d17cf704d2d7053d56b962","bdp_trlrn","Tue Mar 14 2023 21:10:40 GMT-0400 (Eastern Daylight Time)","385942","Trustworthy,Untrustworthy","","210","","","","rating","","trustrating_stim/white_mw046.bmp","4","","","","","","","","","","",""
"image-keyboard-response","92","79202","0.0-6.0-2.43","63d17cf704d2d7053d56b962","bdp_trlrn","Tue Mar 14 2023 21:10:40 GMT-0400 (Eastern Daylight Time)","385942","Trustworthy,Untrustworthy","","null","","","","ratingFB","","trustrating_stim/white_mw046.bmp","null","","","","","","","","","","",""
"image-keyboard-response","93","79894","0.0-6.0-1.44","63d17cf704d2d7053d56b962","bdp_trlrn","Tue Mar 14 2023 21:10:40 GMT-0400 (Eastern Daylight Time)","385942","Trustworthy,Untrustworthy","","584","","","","rating","","trustrating_stim/white_00602_940928_fb_edt.bmp","6","","","","","","","","","","",""
"image-keyboard-response","94","80096","0.0-6.0-2.44","63d17cf704d2d7053d56b962","bdp_trlrn","Tue Mar 14 2023 21:10:40 GMT-0400 (Eastern Daylight Time)","385942","Trustworthy,Untrustworthy","","null","","","","ratingFB","","trustrating_stim/white_00602_940928_fb_edt.bmp","null","","","","","","","","","","",""
"image-keyboard-response","95","80933","0.0-6.0-1.45","63d17cf704d2d7053d56b962","bdp_trlrn","Tue Mar 14 2023 21:10:40 GMT-0400 (Eastern Daylight Time)","385942","Trustworthy,Untrustworthy","","728","","","","rating","","trustrating_stim/white_mw033.bmp","3","","","","","","","","","","",""
"image-keyboard-response","96","81148","0.0-6.0-2.45","63d17cf704d2d7053d56b962","bdp_trlrn","Tue Mar 14 2023 21:10:40 GMT-0400 (Eastern Daylight Time)","385942","Trustworthy,Untrustworthy","","null","","","","ratingFB","","trustrating_stim/white_mw033.bmp","null","","","","","","","","","","",""
"image-keyboard-response","97","82126","0.0-6.0-1.46","63d17cf704d2d7053d56b962","bdp_trlrn","Tue Mar 14 2023 21:10:40 GMT-0400 (Eastern Daylight Time)","385942","Trustworthy,Untrustworthy","","870","","","","rating","","trustrating_stim/white_00807_941205_fb_edt.bmp","3","","","","","","","","","","",""
"image-keyboard-response","98","82337","0.0-6.0-2.46","63d17cf704d2d7053d56b962","bdp_trlrn","Tue Mar 14 2023 21:10:40 GMT-0400 (Eastern Daylight Time)","385942","Trustworthy,Untrustworthy","","null","","","","ratingFB","","trustrating_stim/white_00807_941205_fb_edt.bmp","null","","","","","","","","","","",""
"image-keyboard-response","99","82888","0.0-6.0-1.47","63d17cf704d2d7053d56b962","bdp_trlrn","Tue Mar 14 2023 21:10:40 GMT-0400 (Eastern Daylight Time)","385942","Trustworthy,Untrustworthy","","449","","","","rating","","trustrating_stim/white_00299_940422_fa_edt.bmp","5","","","","","","","","","","",""
"image-keyboard-response","100","83092","0.0-6.0-2.47","63d17cf704d2d7053d56b962","bdp_trlrn","Tue Mar 14 2023 21:10:40 GMT-0400 (Eastern Daylight Time)","385942","Trustworthy,Untrustworthy","","null","","","","ratingFB","","trustrating_stim/white_00299_940422_fa_edt.bmp","null","","","","","","","","","","",""
"image-keyboard-response","101","83981","0.0-6.0-1.48","63d17cf704d2d7053d56b962","bdp_trlrn","Tue Mar 14 2023 21:10:40 GMT-0400 (Eastern Daylight Time)","385942","Trustworthy,Untrustworthy","","787","","","","rating","","trustrating_stim/white_00898_960530_fa_edt.bmp","3","","","","","","","","","","",""
"image-keyboard-response","102","84193","0.0-6.0-2.48","63d17cf704d2d7053d56b962","bdp_trlrn","Tue Mar 14 2023 21:10:40 GMT-0400 (Eastern Daylight Time)","385942","Trustworthy,Untrustworthy","","null","","","","ratingFB","","trustrating_stim/white_00898_960530_fa_edt.bmp","null","","","","","","","","","","",""
"image-keyboard-response","103","85408","0.0-6.0-1.49","63d17cf704d2d7053d56b962","bdp_trlrn","Tue Mar 14 2023 21:10:40 GMT-0400 (Eastern Daylight Time)","385942","Trustworthy,Untrustworthy","","1108","","","","rating","","trustrating_stim/white_mw060.bmp","3","","","","","","","","","","",""
"image-keyboard-response","104","85612","0.0-6.0-2.49","63d17cf704d2d7053d56b962","bdp_trlrn","Tue Mar 14 2023 21:10:40 GMT-0400 (Eastern Daylight Time)","385942","Trustworthy,Untrustworthy","","null","","","","ratingFB","","trustrating_stim/white_mw060.bmp","null","","","","","","","","","","",""
"image-keyboard-response","105","86090","0.0-6.0-1.50","63d17cf704d2d7053d56b962","bdp_trlrn","Tue Mar 14 2023 21:10:40 GMT-0400 (Eastern Daylight Time)","385942","Trustworthy,Untrustworthy","","370","","","","rating","","trustrating_stim/white_mw063.bmp","3","","","","","","","","","","",""
"image-keyboard-response","106","86306","0.0-6.0-2.50","63d17cf704d2d7053d56b962","bdp_trlrn","Tue Mar 14 2023 21:10:40 GMT-0400 (Eastern Daylight Time)","385942","Trustworthy,Untrustworthy","","null","","","","ratingFB","","trustrating_stim/white_mw063.bmp","null","","","","","","","","","","",""
"image-keyboard-response","107","86736","0.0-6.0-1.51","63d17cf704d2d7053d56b962","bdp_trlrn","Tue Mar 14 2023 21:10:40 GMT-0400 (Eastern Daylight Time)","385942","Trustworthy,Untrustworthy","","322","","","","rating","","trustrating_stim/white_mw089.bmp","3","","","","","","","","","","",""
"image-keyboard-response","108","86939","0.0-6.0-2.51","63d17cf704d2d7053d56b962","bdp_trlrn","Tue Mar 14 2023 21:10:40 GMT-0400 (Eastern Daylight Time)","385942","Trustworthy,Untrustworthy","","null","","","","ratingFB","","trustrating_stim/white_mw089.bmp","null","","","","","","","","","","",""
"image-keyboard-response","109","87685","0.0-6.0-1.52","63d17cf704d2d7053d56b962","bdp_trlrn","Tue Mar 14 2023 21:10:40 GMT-0400 (Eastern Daylight Time)","385942","Trustworthy,Untrustworthy","","638","","","","rating","","trustrating_stim/white_00757_941201_fa_edt.bmp","3","","","","","","","","","","",""
"image-keyboard-response","110","87896","0.0-6.0-2.52","63d17cf704d2d7053d56b962","bdp_trlrn","Tue Mar 14 2023 21:10:40 GMT-0400 (Eastern Daylight Time)","385942","Trustworthy,Untrustworthy","","null","","","","ratingFB","","trustrating_stim/white_00757_941201_fa_edt.bmp","null","","","","","","","","","","",""
"image-keyboard-response","111","88738","0.0-6.0-1.53","63d17cf704d2d7053d56b962","bdp_trlrn","Tue Mar 14 2023 21:10:40 GMT-0400 (Eastern Daylight Time)","385942","Trustworthy,Untrustworthy","","735","","","","rating","","trustrating_stim/white_mw049.bmp","3","","","","","","","","","","",""
"image-keyboard-response","112","88946","0.0-6.0-2.53","63d17cf704d2d7053d56b962","bdp_trlrn","Tue Mar 14 2023 21:10:40 GMT-0400 (Eastern Daylight Time)","385942","Trustworthy,Untrustworthy","","null","","","","ratingFB","","trustrating_stim/white_mw049.bmp","null","","","","","","","","","","",""
"image-keyboard-response","113","89742","0.0-6.0-1.54","63d17cf704d2d7053d56b962","bdp_trlrn","Tue Mar 14 2023 21:10:40 GMT-0400 (Eastern Daylight Time)","385942","Trustworthy,Untrustworthy","","688","","","","rating","","trustrating_stim/white_00129_931230_fb_edt.bmp","3","","","","","","","","","","",""
"image-keyboard-response","114","89951","0.0-6.0-2.54","63d17cf704d2d7053d56b962","bdp_trlrn","Tue Mar 14 2023 21:10:40 GMT-0400 (Eastern Daylight Time)","385942","Trustworthy,Untrustworthy","","null","","","","ratingFB","","trustrating_stim/white_00129_931230_fb_edt.bmp","null","","","","","","","","","","",""
"image-keyboard-response","115","91199","0.0-6.0-1.55","63d17cf704d2d7053d56b962","bdp_trlrn","Tue Mar 14 2023 21:10:40 GMT-0400 (Eastern Daylight Time)","385942","Trustworthy,Untrustworthy","","1141","","","","rating","","trustrating_stim/white_00519_940519_fb_edt.bmp","7","","","","","","","","","","",""
"image-keyboard-response","116","91415","0.0-6.0-2.55","63d17cf704d2d7053d56b962","bdp_trlrn","Tue Mar 14 2023 21:10:40 GMT-0400 (Eastern Daylight Time)","385942","Trustworthy,Untrustworthy","","null","","","","ratingFB","","trustrating_stim/white_00519_940519_fb_edt.bmp","null","","","","","","","","","","",""
"image-keyboard-response","117","92258","0.0-6.0-1.56","63d17cf704d2d7053d56b962","bdp_trlrn","Tue Mar 14 2023 21:10:40 GMT-0400 (Eastern Daylight Time)","385942","Trustworthy,Untrustworthy","","736","","","","rating","","trustrating_stim/white_00340_940422_fa_edt.bmp","3","","","","","","","","","","",""
"image-keyboard-response","118","92463","0.0-6.0-2.56","63d17cf704d2d7053d56b962","bdp_trlrn","Tue Mar 14 2023 21:10:40 GMT-0400 (Eastern Daylight Time)","385942","Trustworthy,Untrustworthy","","null","","","","ratingFB","","trustrating_stim/white_00340_940422_fa_edt.bmp","null","","","","","","","","","","",""
"image-keyboard-response","119","93076","0.0-6.0-1.57","63d17cf704d2d7053d56b962","bdp_trlrn","Tue Mar 14 2023 21:10:40 GMT-0400 (Eastern Daylight Time)","385942","Trustworthy,Untrustworthy","","512","","","","rating","","trustrating_stim/white_mw066.bmp","3","","","","","","","","","","",""
"image-keyboard-response","120","93284","0.0-6.0-2.57","63d17cf704d2d7053d56b962","bdp_trlrn","Tue Mar 14 2023 21:10:40 GMT-0400 (Eastern Daylight Time)","385942","Trustworthy,Untrustworthy","","null","","","","ratingFB","","trustrating_stim/white_mw066.bmp","null","","","","","","","","","","",""
"image-keyboard-response","121","94066","0.0-6.0-1.58","63d17cf704d2d7053d56b962","bdp_trlrn","Tue Mar 14 2023 21:10:40 GMT-0400 (Eastern Daylight Time)","385942","Trustworthy,Untrustworthy","","681","","","","rating","","trustrating_stim/white_00120_931230_fa_edt.bmp","4","","","","","","","","","","",""
"image-keyboard-response","122","94271","0.0-6.0-2.58","63d17cf704d2d7053d56b962","bdp_trlrn","Tue Mar 14 2023 21:10:40 GMT-0400 (Eastern Daylight Time)","385942","Trustworthy,Untrustworthy","","null","","","","ratingFB","","trustrating_stim/white_00120_931230_fa_edt.bmp","null","","","","","","","","","","",""
"image-keyboard-response","123","94636","0.0-6.0-1.59","63d17cf704d2d7053d56b962","bdp_trlrn","Tue Mar 14 2023 21:10:40 GMT-0400 (Eastern Daylight Time)","385942","Trustworthy,Untrustworthy","","256","","","","rating","","trustrating_stim/white_mw084.bmp","3","","","","","","","","","","",""
"image-keyboard-response","124","94842","0.0-6.0-2.59","63d17cf704d2d7053d56b962","bdp_trlrn","Tue Mar 14 2023 21:10:40 GMT-0400 (Eastern Daylight Time)","385942","Trustworthy,Untrustworthy","","null","","","","ratingFB","","trustrating_stim/white_mw084.bmp","null","","","","","","","","","","",""
"instructions","125","95948","0.0-7.0","63d17cf704d2d7053d56b962","bdp_trlrn","Tue Mar 14 2023 21:10:40 GMT-0400 (Eastern Daylight Time)","385942","Trustworthy,Untrustworthy","[{""page_index"":0,""viewing_time"":1005}]","1005","","","","","","","","","","","","","","","","","",""
"instructions","126","122156","0.0-8.0","63d17cf704d2d7053d56b962","bdp_trlrn","Tue Mar 14 2023 21:10:40 GMT-0400 (Eastern Daylight Time)","385942","Trustworthy,Untrustworthy","[{""page_index"":0,""viewing_time"":3685},{""page_index"":1,""viewing_time"":1220},{""page_index"":2,""viewing_time"":3498},{""page_index"":3,""viewing_time"":3820},{""page_index"":4,""viewing_time"":2388},{""page_index"":5,""viewing_time"":4200},{""page_index"":6,""viewing_time"":5775},{""page_index"":7,""viewing_time"":1519}]","26105","","","","","","","","","","","","","","","","","",""
"html-keyboard-response","127","125406","0.0-9.0","63d17cf704d2d7053d56b962","bdp_trlrn","Tue Mar 14 2023 21:10:40 GMT-0400 (Eastern Daylight Time)","385942","Trustworthy,Untrustworthy","","3249","","","","","","<div class='header' style='text-align:left; position: absolute; top: 5%; left: 5%;'><small>Task 2 of 5</small></div><div class='instruxDiv'><p><strong>1) What is the minimum number of points you can choose to send to your partner?</strong></p><p>a) 0</p><p>b) 1</p><p>c) 5</p>","C","","","","","","","","","","",""
"html-keyboard-response","128","129086","0.0-10.0","63d17cf704d2d7053d56b962","bdp_trlrn","Tue Mar 14 2023 21:10:40 GMT-0400 (Eastern Daylight Time)","385942","Trustworthy,Untrustworthy","","3571","","","","","","<div class='header' style='text-align:left; position: absolute; top: 5%; left: 5%;'><small>Task 2 of 5</small></div><div class='instruxDiv'><p><strong>1) What is the minimum number of points you can choose to send to your partner?</strong></p><p>a) 1</p><p>b) 1</p><p style='color:#FF0000'>c) 5</p><h3 style='color:#FF0000'>Incorrect!</h3><h3 class='center-content'>The correct response is b).</h3><h3 class='center-content'>The minimum number of points you can choose to send to your partner is 1 point.</h3><p><em>Press SPACEBAR to continue</em></p></div>"," ","","","","","","","","","","",""
"html-keyboard-response","129","133964","0.0-11.0","63d17cf704d2d7053d56b962","bdp_trlrn","Tue Mar 14 2023 21:10:40 GMT-0400 (Eastern Daylight Time)","385942","Trustworthy,Untrustworthy","","4767","","","","","","<div class='header' style='text-align:left; position: absolute; top: 5%; left: 5%;'><small>Task 2 of 5</small></div><div class='instruxDiv'><p><strong>2) What is the maximum number of points you can choose to send to your partner?</strong></p><p>a) 8</p><p>b) 5</p><p>c) 3</p>","B","","","","","","","","","","",""
"html-keyboard-response","130","135882","0.0-12.0","63d17cf704d2d7053d56b962","bdp_trlrn","Tue Mar 14 2023 21:10:40 GMT-0400 (Eastern Daylight Time)","385942","Trustworthy,Untrustworthy","","1815","","","","","","<div class='header' style='text-align:left; position: absolute; top: 5%; left: 5%;'><small>Task 2 of 5</small></div><div class='instruxDiv'><p><strong>2) What is the maximum number of points you can choose to send to your partner?</strong></p><p>a) 8</p><p style='color:#00FF00'>b) 5</p><p>c) 3</p><h3 style='color:#00FF00'>Correct!</h3><h3 class='center-content'>The correct response is b).</h3><h3 class='center-content'>The maximum number of points you can choose to send to your partner is 5 points.</h3><p><em>Press SPACEBAR to continue</em></p></div>"," ","","","","","","","","","","",""
"html-keyboard-response","131","139996","0.0-13.0","63d17cf704d2d7053d56b962","bdp_trlrn","Tue Mar 14 2023 21:10:40 GMT-0400 (Eastern Daylight Time)","385942","Trustworthy,Untrustworthy","","4013","","","","","","<div class='header' style='text-align:left; position: absolute; top: 5%; left: 5%;'><small>Task 2 of 5</small></div><div class='instruxDiv'><p><strong>3) What happens to the amount of points you send to your partner?</strong></p><p>a) Nothing</p><p>b) It doubles</p><p>c) It quadruples</p>","A","","","","","","","","","","",""
"html-keyboard-response","132","141999","0.0-14.0","63d17cf704d2d7053d56b962","bdp_trlrn","Tue Mar 14 2023 21:10:40 GMT-0400 (Eastern Daylight Time)","385942","Trustworthy,Untrustworthy","","1888","","","","","","<div class='header' style='text-align:left; position: absolute; top: 5%; left: 5%;'><small>Task 2 of 5</small></div><div class='instruxDiv'><p><strong>3) What happens to the amount of points you send to your partner?</strong></p><p style='color:#FF0000'>a) Nothing</p><p>b) It doubles</p><p>c) It quadruples</p><h3 style='color:#FF0000'>Incorrect!</h3><h3 class='center-content'>The correct response is c).</h3><h3 class='center-content'>The amount of points you send to your partner quadruples.</h3><p><em>Press SPACEBAR to continue</em></p></div>"," ","","","","","","","","","","",""
"html-keyboard-response","133","147214","0.0-15.0","63d17cf704d2d7053d56b962","bdp_trlrn","Tue Mar 14 2023 21:10:40 GMT-0400 (Eastern Daylight Time)","385942","Trustworthy,Untrustworthy","","5105","","","","","","<div class='header' style='text-align:left; position: absolute; top: 5%; left: 5%;'><small>Task 2 of 5</small></div><div class='instruxDiv'><p><strong>4) If you decided to share 4 out of 5 points with your partner, and they decided to share half of the amount they received with you, how many points would you receive back from them on this round?</strong></p><p>a) 16</p><p>b) 0</p><p>c) 8</p>","A","","","","","","","","","","",""
"html-keyboard-response","134","148811","0.0-16.0","63d17cf704d2d7053d56b962","bdp_trlrn","Tue Mar 14 2023 21:10:40 GMT-0400 (Eastern Daylight Time)","385942","Trustworthy,Untrustworthy","","1493","","","","","","<div class='header' style='text-align:left; position: absolute; top: 5%; left: 5%;'><small>Task 2 of 5</small></div><div class='instruxDiv'><p><strong>4) If you decided to share 4 out of 5 points with your partner, and they decided to share half of the amount they received with you, how many points would you receive back from them on this round?</strong></p><p style='color:#FF0000'>a) 16</p><p>b) 0</p><p>c) 8</p><h3 style='color:#FF0000'>Incorrect!</h3><h3 class='center-content'>The correct response is c).</h3><h3 class='center-content'>If you shared 4 out of 5 points with your partner and they decided to share half of the amount they received with you, you would receive 8 points back (i.e. (4 x 4)/2 = 8).</h3><p><em>Press SPACEBAR to continue</em></p></div>"," ","","","","","","","","","","",""
"html-keyboard-response","135","153941","0.0-17.0","63d17cf704d2d7053d56b962","bdp_trlrn","Tue Mar 14 2023 21:10:40 GMT-0400 (Eastern Daylight Time)","385942","Trustworthy,Untrustworthy","","null","","","","","","<div class='header' style='text-align:left; position: absolute; top: 5%; left: 5%;'><small>Task 2 of 5</small></div><div class='instruxDiv'><p>Thank you for completing the quiz<p>These are the actual partners you will be interacting with in the next block:<p><div class='tc' align='center'><img class='introPic' src='trustrating_stim/white_mw053.bmp'><br><strong>Chris</strong></div><div class='bl' align='center'><img class='introPic' src='trustrating_stim/white_mw071.bmp'><br><strong>Tyler</strong></div><div class='br' align='center'><img class='introPic' src='trustrating_stim/white_00519_940519_fb_edt.bmp'><br><strong>Alex</strong></div></div><p>Across <strong>66 rounds</strong> you will interact with each partner <strong>22 times</strong> (in random order).<p style='align:center; color:white'><font <em>Press SPACEBAR to continue</em></p>","null","","","","","","","","","","",""
"instructions","136","156930","0.0-18.0","63d17cf704d2d7053d56b962","bdp_trlrn","Tue Mar 14 2023 21:10:40 GMT-0400 (Eastern Daylight Time)","385942","Trustworthy,Untrustworthy","[{""page_index"":0,""viewing_time"":356},{""page_index"":1,""viewing_time"":2633}]","2989","","","","","","","","","","","","","","","","","",""
"html-keyboard-response","137","158348","0.0-19.0-1.0","63d17cf704d2d7053d56b962","bdp_trlrn","Tue Mar 14 2023 21:10:40 GMT-0400 (Eastern Daylight Time)","385942","Trustworthy,Untrustworthy","","1316","","","","decision","","<div class='trialDiv'><img src='trustrating_stim/white_00519_940519_fb_edt.bmp'><br><font class='baseline'><strong>Alex</strong><p>Choose number of points to send.</font><div class='respPicDiv'><img src='img/responseButtonOffersNo0L.png' class='respPic'></div></div>","1","1","Alex","10","Kept","0.2,0.8","9","0.2","trustrating_stim/white_00519_940519_fb_edt.bmp","6.5","5","1"
"html-keyboard-response","138","158602","0.0-19.0-2.0","63d17cf704d2d7053d56b962","bdp_trlrn","Tue Mar 14 2023 21:10:40 GMT-0400 (Eastern Daylight Time)","385942","Trustworthy,Untrustworthy","","null","","","","decisionFB","","<div class='trialDiv'><img src='trustrating_stim/white_00519_940519_fb_edt.bmp'><br><font class='baseline'><strong>Alex</strong><p>Choose number of points to send.</font><div class='respPicDiv'><img src='img/responseButtonOffersNo0L1.png' class='respPic'></div></div>","null","1","Alex","10","Kept","0.2,0.8","9","0.2","trustrating_stim/white_00519_940519_fb_edt.bmp","6.5","4","1"
"html-keyboard-response","139","159608","0.0-19.0-3.0","63d17cf704d2d7053d56b962","bdp_trlrn","Tue Mar 14 2023 21:10:40 GMT-0400 (Eastern Daylight Time)","385942","Trustworthy,Untrustworthy","","null","","","","feedback","","<div class='trialDiv'><img src='trustrating_stim/white_00519_940519_fb_edt.bmp'><br><font class='baseline'><strong>Alex</strong><p>Received: <strong>4</strong></font> &nbsp; &nbsp; &nbsp; &nbsp; &nbsp; &nbsp;<font class='negOutcome'>Shared back: <strong>0</strong></font></font><div class='respPicDiv'><img src='img/responseButtonOffersNo0_wht.png' class='respPic'></div></div>","null","1","Alex","10","Kept","0.2,0.8","9","0.2","trustrating_stim/white_00519_940519_fb_edt.bmp","6.5","4","1"
"html-keyboard-response","140","160888","0.0-19.0-1.1","63d17cf704d2d7053d56b962","bdp_trlrn","Tue Mar 14 2023 21:10:40 GMT-0400 (Eastern Daylight Time)","385942","Trustworthy,Untrustworthy","","1279","","","","decision","","<div class='trialDiv'><img src='trustrating_stim/white_mw053.bmp'><br><font class='baseline'><strong>Chris</strong><p>Choose number of points to send.</font><div class='respPicDiv'><img src='img/responseButtonOffersNo0L.png' class='respPic'></div></div>","1","1","Chris","1","Kept","0.65,0.2","8","0.65","trustrating_stim/white_mw053.bmp","2.5","9","2"
"html-keyboard-response","141","161151","0.0-19.0-2.1","63d17cf704d2d7053d56b962","bdp_trlrn","Tue Mar 14 2023 21:10:40 GMT-0400 (Eastern Daylight Time)","385942","Trustworthy,Untrustworthy","","null","","","","decisionFB","","<div class='trialDiv'><img src='trustrating_stim/white_mw053.bmp'><br><font class='baseline'><strong>Chris</strong><p>Choose number of points to send.</font><div class='respPicDiv'><img src='img/responseButtonOffersNo0L1.png' class='respPic'></div></div>","null","1","Chris","1","Kept","0.65,0.2","8","0.65","trustrating_stim/white_mw053.bmp","2.5","8","2"
"html-keyboard-response","142","162158","0.0-19.0-3.1","63d17cf704d2d7053d56b962","bdp_trlrn","Tue Mar 14 2023 21:10:40 GMT-0400 (Eastern Daylight Time)","385942","Trustworthy,Untrustworthy","","null","","","","feedback","","<div class='trialDiv'><img src='trustrating_stim/white_mw053.bmp'><br><font class='baseline'><strong>Chris</strong><p>Received: <strong>4</strong></font> &nbsp; &nbsp; &nbsp; &nbsp; &nbsp; &nbsp;<font class='negOutcome'>Shared back: <strong>0</strong></font></font><div class='respPicDiv'><img src='img/responseButtonOffersNo0_wht.png' class='respPic'></div></div>","null","1","Chris","1","Kept","0.65,0.2","8","0.65","trustrating_stim/white_mw053.bmp","2.5","8","2"
"html-keyboard-response","143","163333","0.0-19.0-1.2","63d17cf704d2d7053d56b962","bdp_trlrn","Tue Mar 14 2023 21:10:40 GMT-0400 (Eastern Daylight Time)","385942","Trustworthy,Untrustworthy","","1174","","","","decision","","<div class='trialDiv'><img src='trustrating_stim/white_mw071.bmp'><br><font class='baseline'><strong>Tyler</strong><p>Choose number of points to send.</font><div class='respPicDiv'><img src='img/responseButtonOffersNo0L.png' class='respPic'></div></div>","1","1","Tyler","6","Kept","0.2,0.65","8","0.2","trustrating_stim/white_mw071.bmp","4","13","3"
"html-keyboard-response","144","163592","0.0-19.0-2.2","63d17cf704d2d7053d56b962","bdp_trlrn","Tue Mar 14 2023 21:10:40 GMT-0400 (Eastern Daylight Time)","385942","Trustworthy,Untrustworthy","","null","","","","decisionFB","","<div class='trialDiv'><img src='trustrating_stim/white_mw071.bmp'><br><font class='baseline'><strong>Tyler</strong><p>Choose number of points to send.</font><div class='respPicDiv'><img src='img/responseButtonOffersNo0L1.png' class='respPic'></div></div>","null","1","Tyler","6","Kept","0.2,0.65","8","0.2","trustrating_stim/white_mw071.bmp","4","12","3"
"html-keyboard-response","145","164599","0.0-19.0-3.2","63d17cf704d2d7053d56b962","bdp_trlrn","Tue Mar 14 2023 21:10:40 GMT-0400 (Eastern Daylight Time)","385942","Trustworthy,Untrustworthy","","null","","","","feedback","","<div class='trialDiv'><img src='trustrating_stim/white_mw071.bmp'><br><font class='baseline'><strong>Tyler</strong><p>Received: <strong>4</strong></font> &nbsp; &nbsp; &nbsp; &nbsp; &nbsp; &nbsp;<font class='negOutcome'>Shared back: <strong>0</strong></font></font><div class='respPicDiv'><img src='img/responseButtonOffersNo0_wht.png' class='respPic'></div></div>","null","1","Tyler","6","Kept","0.2,0.65","8","0.2","trustrating_stim/white_mw071.bmp","4","12","3"
"html-keyboard-response","146","165131","0.0-19.0-1.3","63d17cf704d2d7053d56b962","bdp_trlrn","Tue Mar 14 2023 21:10:40 GMT-0400 (Eastern Daylight Time)","385942","Trustworthy,Untrustworthy","","531","","","","decision","","<div class='trialDiv'><img src='trustrating_stim/white_00519_940519_fb_edt.bmp'><br><font class='baseline'><strong>Alex</strong><p>Choose number of points to send.</font><div class='respPicDiv'><img src='img/responseButtonOffersNo0L.png' class='respPic'></div></div>","1","2","Alex","10","Shared","0.2,0.8","9","0.2","trustrating_stim/white_00519_940519_fb_edt.bmp","6.5","17","4"
"html-keyboard-response","147","165387","0.0-19.0-2.3","63d17cf704d2d7053d56b962","bdp_trlrn","Tue Mar 14 2023 21:10:40 GMT-0400 (Eastern Daylight Time)","385942","Trustworthy,Untrustworthy","","null","","","","decisionFB","","<div class='trialDiv'><img src='trustrating_stim/white_00519_940519_fb_edt.bmp'><br><font class='baseline'><strong>Alex</strong><p>Choose number of points to send.</font><div class='respPicDiv'><img src='img/responseButtonOffersNo0L1.png' class='respPic'></div></div>","null","2","Alex","10","Shared","0.2,0.8","9","0.2","trustrating_stim/white_00519_940519_fb_edt.bmp","6.5","16","4"
"html-keyboard-response","148","166395","0.0-19.0-3.3","63d17cf704d2d7053d56b962","bdp_trlrn","Tue Mar 14 2023 21:10:40 GMT-0400 (Eastern Daylight Time)","385942","Trustworthy,Untrustworthy","","null","","","","feedback","","<div class='trialDiv'><img src='trustrating_stim/white_00519_940519_fb_edt.bmp'><br><font class='baseline'><strong>Alex</strong><p>Received: <strong>4</strong></font> &nbsp; &nbsp; &nbsp; &nbsp; &nbsp; &nbsp;<font class='posOutcome'>Shared back: <strong>2</strong></font></font><div class='respPicDiv'><img src='img/responseButtonOffersNo0_wht.png' class='respPic'></div></div>","null","2","Alex","10","Shared","0.2,0.8","9","0.2","trustrating_stim/white_00519_940519_fb_edt.bmp","6.5","18","4"
"html-keyboard-response","149","166894","0.0-19.0-1.4","63d17cf704d2d7053d56b962","bdp_trlrn","Tue Mar 14 2023 21:10:40 GMT-0400 (Eastern Daylight Time)","385942","Trustworthy,Untrustworthy","","498","","","","decision","","<div class='trialDiv'><img src='trustrating_stim/white_mw071.bmp'><br><font class='baseline'><strong>Tyler</strong><p>Choose number of points to send.</font><div class='respPicDiv'><img src='img/responseButtonOffersNo0L.png' class='respPic'></div></div>","1","2","Tyler","6","Kept","0.2,0.65","8","0.2","trustrating_stim/white_mw071.bmp","4","23","5"
"html-keyboard-response","150","167151","0.0-19.0-2.4","63d17cf704d2d7053d56b962","bdp_trlrn","Tue Mar 14 2023 21:10:40 GMT-0400 (Eastern Daylight Time)","385942","Trustworthy,Untrustworthy","","null","","","","decisionFB","","<div class='trialDiv'><img src='trustrating_stim/white_mw071.bmp'><br><font class='baseline'><strong>Tyler</strong><p>Choose number of points to send.</font><div class='respPicDiv'><img src='img/responseButtonOffersNo0L1.png' class='respPic'></div></div>","null","2","Tyler","6","Kept","0.2,0.65","8","0.2","trustrating_stim/white_mw071.bmp","4","22","5"
"html-keyboard-response","151","168157","0.0-19.0-3.4","63d17cf704d2d7053d56b962","bdp_trlrn","Tue Mar 14 2023 21:10:40 GMT-0400 (Eastern Daylight Time)","385942","Trustworthy,Untrustworthy","","null","","","","feedback","","<div class='trialDiv'><img src='trustrating_stim/white_mw071.bmp'><br><font class='baseline'><strong>Tyler</strong><p>Received: <strong>4</strong></font> &nbsp; &nbsp; &nbsp; &nbsp; &nbsp; &nbsp;<font class='negOutcome'>Shared back: <strong>0</strong></font></font><div class='respPicDiv'><img src='img/responseButtonOffersNo0_wht.png' class='respPic'></div></div>","null","2","Tyler","6","Kept","0.2,0.65","8","0.2","trustrating_stim/white_mw071.bmp","4","22","5"
"html-keyboard-response","152","168533","0.0-19.0-1.5","63d17cf704d2d7053d56b962","bdp_trlrn","Tue Mar 14 2023 21:10:40 GMT-0400 (Eastern Daylight Time)","385942","Trustworthy,Untrustworthy","","376","","","","decision","","<div class='trialDiv'><img src='trustrating_stim/white_mw053.bmp'><br><font class='baseline'><strong>Chris</strong><p>Choose number of points to send.</font><div class='respPicDiv'><img src='img/responseButtonOffersNo0L.png' class='respPic'></div></div>","1","2","Chris","1","Kept","0.65,0.2","8","0.65","trustrating_stim/white_mw053.bmp","2.5","27","6"
"html-keyboard-response","153","168789","0.0-19.0-2.5","63d17cf704d2d7053d56b962","bdp_trlrn","Tue Mar 14 2023 21:10:40 GMT-0400 (Eastern Daylight Time)","385942","Trustworthy,Untrustworthy","","null","","","","decisionFB","","<div class='trialDiv'><img src='trustrating_stim/white_mw053.bmp'><br><font class='baseline'><strong>Chris</strong><p>Choose number of points to send.</font><div class='respPicDiv'><img src='img/responseButtonOffersNo0L1.png' class='respPic'></div></div>","null","2","Chris","1","Kept","0.65,0.2","8","0.65","trustrating_stim/white_mw053.bmp","2.5","26","6"
"html-keyboard-response","154","169794","0.0-19.0-3.5","63d17cf704d2d7053d56b962","bdp_trlrn","Tue Mar 14 2023 21:10:40 GMT-0400 (Eastern Daylight Time)","385942","Trustworthy,Untrustworthy","","null","","","","feedback","","<div class='trialDiv'><img src='trustrating_stim/white_mw053.bmp'><br><font class='baseline'><strong>Chris</strong><p>Received: <strong>4</strong></font> &nbsp; &nbsp; &nbsp; &nbsp; &nbsp; &nbsp;<font class='negOutcome'>Shared back: <strong>0</strong></font></font><div class='respPicDiv'><img src='img/responseButtonOffersNo0_wht.png' class='respPic'></div></div>","null","2","Chris","1","Kept","0.65,0.2","8","0.65","trustrating_stim/white_mw053.bmp","2.5","26","6"
"html-keyboard-response","155","170583","0.0-19.0-1.6","63d17cf704d2d7053d56b962","bdp_trlrn","Tue Mar 14 2023 21:10:40 GMT-0400 (Eastern Daylight Time)","385942","Trustworthy,Untrustworthy","","788","","","","decision","","<div class='trialDiv'><img src='trustrating_stim/white_00519_940519_fb_edt.bmp'><br><font class='baseline'><strong>Alex</strong><p>Choose number of points to send.</font><div class='respPicDiv'><img src='img/responseButtonOffersNo0L.png' class='respPic'></div></div>","2","3","Alex","10","Kept","0.2,0.8","9","0.2","trustrating_stim/white_00519_940519_fb_edt.bmp","6.5","31","7"
"html-keyboard-response","156","170843","0.0-19.0-2.6","63d17cf704d2d7053d56b962","bdp_trlrn","Tue Mar 14 2023 21:10:40 GMT-0400 (Eastern Daylight Time)","385942","Trustworthy,Untrustworthy","","null","","","","decisionFB","","<div class='trialDiv'><img src='trustrating_stim/white_00519_940519_fb_edt.bmp'><br><font class='baseline'><strong>Alex</strong><p>Choose number of points to send.</font><div class='respPicDiv'><img src='img/responseButtonOffersNo0L2.png' class='respPic'></div></div>","null","3","Alex","10","Kept","0.2,0.8","9","0.2","trustrating_stim/white_00519_940519_fb_edt.bmp","6.5","29","7"
"html-keyboard-response","157","171853","0.0-19.0-3.6","63d17cf704d2d7053d56b962","bdp_trlrn","Tue Mar 14 2023 21:10:40 GMT-0400 (Eastern Daylight Time)","385942","Trustworthy,Untrustworthy","","null","","","","feedback","","<div class='trialDiv'><img src='trustrating_stim/white_00519_940519_fb_edt.bmp'><br><font class='baseline'><strong>Alex</strong><p>Received: <strong>8</strong></font> &nbsp; &nbsp; &nbsp; &nbsp; &nbsp; &nbsp;<font class='negOutcome'>Shared back: <strong>0</strong></font></font><div class='respPicDiv'><img src='img/responseButtonOffersNo0_wht.png' class='respPic'></div></div>","null","3","Alex","10","Kept","0.2,0.8","9","0.2","trustrating_stim/white_00519_940519_fb_edt.bmp","6.5","29","7"
"html-keyboard-response","158","172126","0.0-19.0-1.7","63d17cf704d2d7053d56b962","bdp_trlrn","Tue Mar 14 2023 21:10:40 GMT-0400 (Eastern Daylight Time)","385942","Trustworthy,Untrustworthy","","273","","","","decision","","<div class='trialDiv'><img src='trustrating_stim/white_mw053.bmp'><br><font class='baseline'><strong>Chris</strong><p>Choose number of points to send.</font><div class='respPicDiv'><img src='img/responseButtonOffersNo0L.png' class='respPic'></div></div>","3","3","Chris","1","Shared","0.65,0.2","8","0.65","trustrating_stim/white_mw053.bmp","2.5","34","8"
"html-keyboard-response","159","172377","0.0-19.0-2.7","63d17cf704d2d7053d56b962","bdp_trlrn","Tue Mar 14 2023 21:10:40 GMT-0400 (Eastern Daylight Time)","385942","Trustworthy,Untrustworthy","","null","","","","decisionFB","","<div class='trialDiv'><img src='trustrating_stim/white_mw053.bmp'><br><font class='baseline'><strong>Chris</strong><p>Choose number of points to send.</font><div class='respPicDiv'><img src='img/responseButtonOffersNo0L3.png' class='respPic'></div></div>","null","3","Chris","1","Shared","0.65,0.2","8","0.65","trustrating_stim/white_mw053.bmp","2.5","31","8"
"html-keyboard-response","160","173382","0.0-19.0-3.7","63d17cf704d2d7053d56b962","bdp_trlrn","Tue Mar 14 2023 21:10:40 GMT-0400 (Eastern Daylight Time)","385942","Trustworthy,Untrustworthy","","null","","","","feedback","","<div class='trialDiv'><img src='trustrating_stim/white_mw053.bmp'><br><font class='baseline'><strong>Chris</strong><p>Received: <strong>12</strong></font> &nbsp; &nbsp; &nbsp; &nbsp; &nbsp; &nbsp;<font class='posOutcome'>Shared back: <strong>6</strong></font></font><div class='respPicDiv'><img src='img/responseButtonOffersNo0_wht.png' class='respPic'></div></div>","null","3","Chris","1","Shared","0.65,0.2","8","0.65","trustrating_stim/white_mw053.bmp","2.5","37","8"
"html-keyboard-response","161","173578","0.0-19.0-1.8","63d17cf704d2d7053d56b962","bdp_trlrn","Tue Mar 14 2023 21:10:40 GMT-0400 (Eastern Daylight Time)","385942","Trustworthy,Untrustworthy","","196","","","","decision","","<div class='trialDiv'><img src='trustrating_stim/white_mw071.bmp'><br><font class='baseline'><strong>Tyler</strong><p>Choose number of points to send.</font><div class='respPicDiv'><img src='img/responseButtonOffersNo0L.png' class='respPic'></div></div>","3","3","Tyler","6","Kept","0.2,0.65","8","0.2","trustrating_stim/white_mw071.bmp","4","42","9"
"html-keyboard-response","162","173843","0.0-19.0-2.8","63d17cf704d2d7053d56b962","bdp_trlrn","Tue Mar 14 2023 21:10:40 GMT-0400 (Eastern Daylight Time)","385942","Trustworthy,Untrustworthy","","null","","","","decisionFB","","<div class='trialDiv'><img src='trustrating_stim/white_mw071.bmp'><br><font class='baseline'><strong>Tyler</strong><p>Choose number of points to send.</font><div class='respPicDiv'><img src='img/responseButtonOffersNo0L3.png' class='respPic'></div></div>","null","3","Tyler","6","Kept","0.2,0.65","8","0.2","trustrating_stim/white_mw071.bmp","4","39","9"
"html-keyboard-response","163","174849","0.0-19.0-3.8","63d17cf704d2d7053d56b962","bdp_trlrn","Tue Mar 14 2023 21:10:40 GMT-0400 (Eastern Daylight Time)","385942","Trustworthy,Untrustworthy","","null","","","","feedback","","<div class='trialDiv'><img src='trustrating_stim/white_mw071.bmp'><br><font class='baseline'><strong>Tyler</strong><p>Received: <strong>12</strong></font> &nbsp; &nbsp; &nbsp; &nbsp; &nbsp; &nbsp;<font class='negOutcome'>Shared back: <strong>0</strong></font></font><div class='respPicDiv'><img src='img/responseButtonOffersNo0_wht.png' class='respPic'></div></div>","null","3","Tyler","6","Kept","0.2,0.65","8","0.2","trustrating_stim/white_mw071.bmp","4","39","9"
"html-keyboard-response","164","175014","0.0-19.0-1.9","63d17cf704d2d7053d56b962","bdp_trlrn","Tue Mar 14 2023 21:10:40 GMT-0400 (Eastern Daylight Time)","385942","Trustworthy,Untrustworthy","","165","","","","decision","","<div class='trialDiv'><img src='trustrating_stim/white_mw053.bmp'><br><font class='baseline'><strong>Chris</strong><p>Choose number of points to send.</font><div class='respPicDiv'><img src='img/responseButtonOffersNo0L.png' class='respPic'></div></div>","5","4","Chris","1","Shared","0.65,0.2","8","0.65","trustrating_stim/white_mw053.bmp","2.5","44","10"
"html-keyboard-response","165","175280","0.0-19.0-2.9","63d17cf704d2d7053d56b962","bdp_trlrn","Tue Mar 14 2023 21:10:40 GMT-0400 (Eastern Daylight Time)","385942","Trustworthy,Untrustworthy","","null","","","","decisionFB","","<div class='trialDiv'><img src='trustrating_stim/white_mw053.bmp'><br><font class='baseline'><strong>Chris</strong><p>Choose number of points to send.</font><div class='respPicDiv'><img src='img/responseButtonOffersNo0L5.png' class='respPic'></div></div>","null","4","Chris","1","Shared","0.65,0.2","8","0.65","trustrating_stim/white_mw053.bmp","2.5","39","10"
"html-keyboard-response","166","176284","0.0-19.0-3.9","63d17cf704d2d7053d56b962","bdp_trlrn","Tue Mar 14 2023 21:10:40 GMT-0400 (Eastern Daylight Time)","385942","Trustworthy,Untrustworthy","","null","","","","feedback","","<div class='trialDiv'><img src='trustrating_stim/white_mw053.bmp'><br><font class='baseline'><strong>Chris</strong><p>Received: <strong>20</strong></font> &nbsp; &nbsp; &nbsp; &nbsp; &nbsp; &nbsp;<font class='posOutcome'>Shared back: <strong>10</strong></font></font><div class='respPicDiv'><img src='img/responseButtonOffersNo0_wht.png' class='respPic'></div></div>","null","4","Chris","1","Shared","0.65,0.2","8","0.65","trustrating_stim/white_mw053.bmp","2.5","49","10"
"html-keyboard-response","167","176461","0.0-19.0-1.10","63d17cf704d2d7053d56b962","bdp_trlrn","Tue Mar 14 2023 21:10:40 GMT-0400 (Eastern Daylight Time)","385942","Trustworthy,Untrustworthy","","176","","","","decision","","<div class='trialDiv'><img src='trustrating_stim/white_mw071.bmp'><br><font class='baseline'><strong>Tyler</strong><p>Choose number of points to send.</font><div class='respPicDiv'><img src='img/responseButtonOffersNo0L.png' class='respPic'></div></div>","5","4","Tyler","6","Kept","0.2,0.65","8","0.2","trustrating_stim/white_mw071.bmp","4","54","11"
"html-keyboard-response","168","176715","0.0-19.0-2.10","63d17cf704d2d7053d56b962","bdp_trlrn","Tue Mar 14 2023 21:10:40 GMT-0400 (Eastern Daylight Time)","385942","Trustworthy,Untrustworthy","","null","","","","decisionFB","","<div class='trialDiv'><img src='trustrating_stim/white_mw071.bmp'><br><font class='baseline'><strong>Tyler</strong><p>Choose number of points to send.</font><div class='respPicDiv'><img src='img/responseButtonOffersNo0L5.png' class='respPic'></div></div>","null","4","Tyler","6","Kept","0.2,0.65","8","0.2","trustrating_stim/white_mw071.bmp","4","49","11"
"html-keyboard-response","169","177723","0.0-19.0-3.10","63d17cf704d2d7053d56b962","bdp_trlrn","Tue Mar 14 2023 21:10:40 GMT-0400 (Eastern Daylight Time)","385942","Trustworthy,Untrustworthy","","null","","","","feedback","","<div class='trialDiv'><img src='trustrating_stim/white_mw071.bmp'><br><font class='baseline'><strong>Tyler</strong><p>Received: <strong>20</strong></font> &nbsp; &nbsp; &nbsp; &nbsp; &nbsp; &nbsp;<font class='negOutcome'>Shared back: <strong>0</strong></font></font><div class='respPicDiv'><img src='img/responseButtonOffersNo0_wht.png' class='respPic'></div></div>","null","4","Tyler","6","Kept","0.2,0.65","8","0.2","trustrating_stim/white_mw071.bmp","4","49","11"
"html-keyboard-response","170","177880","0.0-19.0-1.11","63d17cf704d2d7053d56b962","bdp_trlrn","Tue Mar 14 2023 21:10:40 GMT-0400 (Eastern Daylight Time)","385942","Trustworthy,Untrustworthy","","156","","","","decision","","<div class='trialDiv'><img src='trustrating_stim/white_00519_940519_fb_edt.bmp'><br><font class='baseline'><strong>Alex</strong><p>Choose number of points to send.</font><div class='respPicDiv'><img src='img/responseButtonOffersNo0L.png' class='respPic'></div></div>","1","4","Alex","10","Kept","0.2,0.8","9","0.2","trustrating_stim/white_00519_940519_fb_edt.bmp","6.5","54","12"
"html-keyboard-response","171","178139","0.0-19.0-2.11","63d17cf704d2d7053d56b962","bdp_trlrn","Tue Mar 14 2023 21:10:40 GMT-0400 (Eastern Daylight Time)","385942","Trustworthy,Untrustworthy","","null","","","","decisionFB","","<div class='trialDiv'><img src='trustrating_stim/white_00519_940519_fb_edt.bmp'><br><font class='baseline'><strong>Alex</strong><p>Choose number of points to send.</font><div class='respPicDiv'><img src='img/responseButtonOffersNo0L1.png' class='respPic'></div></div>","null","4","Alex","10","Kept","0.2,0.8","9","0.2","trustrating_stim/white_00519_940519_fb_edt.bmp","6.5","53","12"
"html-keyboard-response","172","179141","0.0-19.0-3.11","63d17cf704d2d7053d56b962","bdp_trlrn","Tue Mar 14 2023 21:10:40 GMT-0400 (Eastern Daylight Time)","385942","Trustworthy,Untrustworthy","","null","","","","feedback","","<div class='trialDiv'><img src='trustrating_stim/white_00519_940519_fb_edt.bmp'><br><font class='baseline'><strong>Alex</strong><p>Received: <strong>4</strong></font> &nbsp; &nbsp; &nbsp; &nbsp; &nbsp; &nbsp;<font class='negOutcome'>Shared back: <strong>0</strong></font></font><div class='respPicDiv'><img src='img/responseButtonOffersNo0_wht.png' class='respPic'></div></div>","null","4","Alex","10","Kept","0.2,0.8","9","0.2","trustrating_stim/white_00519_940519_fb_edt.bmp","6.5","53","12"
"html-keyboard-response","173","179200","0.0-19.0-1.12","63d17cf704d2d7053d56b962","bdp_trlrn","Tue Mar 14 2023 21:10:40 GMT-0400 (Eastern Daylight Time)","385942","Trustworthy,Untrustworthy","","58","","","","decision","","<div class='trialDiv'><img src='trustrating_stim/white_mw071.bmp'><br><font class='baseline'><strong>Tyler</strong><p>Choose number of points to send.</font><div class='respPicDiv'><img src='img/responseButtonOffersNo0L.png' class='respPic'></div></div>","1","5","Tyler","6","Kept","0.2,0.65","8","0.2","trustrating_stim/white_mw071.bmp","4","58","13"
"html-keyboard-response","174","179464","0.0-19.0-2.12","63d17cf704d2d7053d56b962","bdp_trlrn","Tue Mar 14 2023 21:10:40 GMT-0400 (Eastern Daylight Time)","385942","Trustworthy,Untrustworthy","","null","","","","decisionFB","","<div class='trialDiv'><img src='trustrating_stim/white_mw071.bmp'><br><font class='baseline'><strong>Tyler</strong><p>Choose number of points to send.</font><div class='respPicDiv'><img src='img/responseButtonOffersNo0L1.png' class='respPic'></div></div>","null","5","Tyler","6","Kept","0.2,0.65","8","0.2","trustrating_stim/white_mw071.bmp","4","57","13"
"html-keyboard-response","175","180470","0.0-19.0-3.12","63d17cf704d2d7053d56b962","bdp_trlrn","Tue Mar 14 2023 21:10:40 GMT-0400 (Eastern Daylight Time)","385942","Trustworthy,Untrustworthy","","null","","","","feedback","","<div class='trialDiv'><img src='trustrating_stim/white_mw071.bmp'><br><font class='baseline'><strong>Tyler</strong><p>Received: <strong>4</strong></font> &nbsp; &nbsp; &nbsp; &nbsp; &nbsp; &nbsp;<font class='negOutcome'>Shared back: <strong>0</strong></font></font><div class='respPicDiv'><img src='img/responseButtonOffersNo0_wht.png' class='respPic'></div></div>","null","5","Tyler","6","Kept","0.2,0.65","8","0.2","trustrating_stim/white_mw071.bmp","4","57","13"
"html-keyboard-response","176","180568","0.0-19.0-1.13","63d17cf704d2d7053d56b962","bdp_trlrn","Tue Mar 14 2023 21:10:40 GMT-0400 (Eastern Daylight Time)","385942","Trustworthy,Untrustworthy","","98","","","","decision","","<div class='trialDiv'><img src='trustrating_stim/white_mw053.bmp'><br><font class='baseline'><strong>Chris</strong><p>Choose number of points to send.</font><div class='respPicDiv'><img src='img/responseButtonOffersNo0L.png' class='respPic'></div></div>","1","5","Chris","1","Shared","0.65,0.2","8","0.65","trustrating_stim/white_mw053.bmp","2.5","62","14"
"html-keyboard-response","177","180824","0.0-19.0-2.13","63d17cf704d2d7053d56b962","bdp_trlrn","Tue Mar 14 2023 21:10:40 GMT-0400 (Eastern Daylight Time)","385942","Trustworthy,Untrustworthy","","null","","","","decisionFB","","<div class='trialDiv'><img src='trustrating_stim/white_mw053.bmp'><br><font class='baseline'><strong>Chris</strong><p>Choose number of points to send.</font><div class='respPicDiv'><img src='img/responseButtonOffersNo0L1.png' class='respPic'></div></div>","null","5","Chris","1","Shared","0.65,0.2","8","0.65","trustrating_stim/white_mw053.bmp","2.5","61","14"
"html-keyboard-response","178","181827","0.0-19.0-3.13","63d17cf704d2d7053d56b962","bdp_trlrn","Tue Mar 14 2023 21:10:40 GMT-0400 (Eastern Daylight Time)","385942","Trustworthy,Untrustworthy","","null","","","","feedback","","<div class='trialDiv'><img src='trustrating_stim/white_mw053.bmp'><br><font class='baseline'><strong>Chris</strong><p>Received: <strong>4</strong></font> &nbsp; &nbsp; &nbsp; &nbsp; &nbsp; &nbsp;<font class='posOutcome'>Shared back: <strong>2</strong></font></font><div class='respPicDiv'><img src='img/responseButtonOffersNo0_wht.png' class='respPic'></div></div>","null","5","Chris","1","Shared","0.65,0.2","8","0.65","trustrating_stim/white_mw053.bmp","2.5","63","14"
"html-keyboard-response","179","182003","0.0-19.0-1.14","63d17cf704d2d7053d56b962","bdp_trlrn","Tue Mar 14 2023 21:10:40 GMT-0400 (Eastern Daylight Time)","385942","Trustworthy,Untrustworthy","","175","","","","decision","","<div class='trialDiv'><img src='trustrating_stim/white_00519_940519_fb_edt.bmp'><br><font class='baseline'><strong>Alex</strong><p>Choose number of points to send.</font><div class='respPicDiv'><img src='img/responseButtonOffersNo0L.png' class='respPic'></div></div>","1","5","Alex","10","Kept","0.2,0.8","9","0.2","trustrating_stim/white_00519_940519_fb_edt.bmp","6.5","68","15"
"html-keyboard-response","180","182260","0.0-19.0-2.14","63d17cf704d2d7053d56b962","bdp_trlrn","Tue Mar 14 2023 21:10:40 GMT-0400 (Eastern Daylight Time)","385942","Trustworthy,Untrustworthy","","null","","","","decisionFB","","<div class='trialDiv'><img src='trustrating_stim/white_00519_940519_fb_edt.bmp'><br><font class='baseline'><strong>Alex</strong><p>Choose number of points to send.</font><div class='respPicDiv'><img src='img/responseButtonOffersNo0L1.png' class='respPic'></div></div>","null","5","Alex","10","Kept","0.2,0.8","9","0.2","trustrating_stim/white_00519_940519_fb_edt.bmp","6.5","67","15"
"html-keyboard-response","181","183267","0.0-19.0-3.14","63d17cf704d2d7053d56b962","bdp_trlrn","Tue Mar 14 2023 21:10:40 GMT-0400 (Eastern Daylight Time)","385942","Trustworthy,Untrustworthy","","null","","","","feedback","","<div class='trialDiv'><img src='trustrating_stim/white_00519_940519_fb_edt.bmp'><br><font class='baseline'><strong>Alex</strong><p>Received: <strong>4</strong></font> &nbsp; &nbsp; &nbsp; &nbsp; &nbsp; &nbsp;<font class='negOutcome'>Shared back: <strong>0</strong></font></font><div class='respPicDiv'><img src='img/responseButtonOffersNo0_wht.png' class='respPic'></div></div>","null","5","Alex","10","Kept","0.2,0.8","9","0.2","trustrating_stim/white_00519_940519_fb_edt.bmp","6.5","67","15"
"html-keyboard-response","182","183343","0.0-19.0-1.15","63d17cf704d2d7053d56b962","bdp_trlrn","Tue Mar 14 2023 21:10:40 GMT-0400 (Eastern Daylight Time)","385942","Trustworthy,Untrustworthy","","76","","","","decision","","<div class='trialDiv'><img src='trustrating_stim/white_mw071.bmp'><br><font class='baseline'><strong>Tyler</strong><p>Choose number of points to send.</font><div class='respPicDiv'><img src='img/responseButtonOffersNo0L.png' class='respPic'></div></div>","1","6","Tyler","6","Kept","0.2,0.65","8","0.2","trustrating_stim/white_mw071.bmp","4","72","16"
"html-keyboard-response","183","183604","0.0-19.0-2.15","63d17cf704d2d7053d56b962","bdp_trlrn","Tue Mar 14 2023 21:10:40 GMT-0400 (Eastern Daylight Time)","385942","Trustworthy,Untrustworthy","","null","","","","decisionFB","","<div class='trialDiv'><img src='trustrating_stim/white_mw071.bmp'><br><font class='baseline'><strong>Tyler</strong><p>Choose number of points to send.</font><div class='respPicDiv'><img src='img/responseButtonOffersNo0L1.png' class='respPic'></div></div>","null","6","Tyler","6","Kept","0.2,0.65","8","0.2","trustrating_stim/white_mw071.bmp","4","71","16"
"html-keyboard-response","184","184608","0.0-19.0-3.15","63d17cf704d2d7053d56b962","bdp_trlrn","Tue Mar 14 2023 21:10:40 GMT-0400 (Eastern Daylight Time)","385942","Trustworthy,Untrustworthy","","null","","","","feedback","","<div class='trialDiv'><img src='trustrating_stim/white_mw071.bmp'><br><font class='baseline'><strong>Tyler</strong><p>Received: <strong>4</strong></font> &nbsp; &nbsp; &nbsp; &nbsp; &nbsp; &nbsp;<font class='negOutcome'>Shared back: <strong>0</strong></font></font><div class='respPicDiv'><img src='img/responseButtonOffersNo0_wht.png' class='respPic'></div></div>","null","6","Tyler","6","Kept","0.2,0.65","8","0.2","trustrating_stim/white_mw071.bmp","4","71","16"
"html-keyboard-response","185","185026","0.0-19.0-1.16","63d17cf704d2d7053d56b962","bdp_trlrn","Tue Mar 14 2023 21:10:40 GMT-0400 (Eastern Daylight Time)","385942","Trustworthy,Untrustworthy","","417","","","","decision","","<div class='trialDiv'><img src='trustrating_stim/white_mw053.bmp'><br><font class='baseline'><strong>Chris</strong><p>Choose number of points to send.</font><div class='respPicDiv'><img src='img/responseButtonOffersNo0L.png' class='respPic'></div></div>","2","6","Chris","1","Shared","0.65,0.2","8","0.65","trustrating_stim/white_mw053.bmp","2.5","76","17"
"html-keyboard-response","186","185287","0.0-19.0-2.16","63d17cf704d2d7053d56b962","bdp_trlrn","Tue Mar 14 2023 21:10:40 GMT-0400 (Eastern Daylight Time)","385942","Trustworthy,Untrustworthy","","null","","","","decisionFB","","<div class='trialDiv'><img src='trustrating_stim/white_mw053.bmp'><br><font class='baseline'><strong>Chris</strong><p>Choose number of points to send.</font><div class='respPicDiv'><img src='img/responseButtonOffersNo0L2.png' class='respPic'></div></div>","null","6","Chris","1","Shared","0.65,0.2","8","0.65","trustrating_stim/white_mw053.bmp","2.5","74","17"
"html-keyboard-response","187","186294","0.0-19.0-3.16","63d17cf704d2d7053d56b962","bdp_trlrn","Tue Mar 14 2023 21:10:40 GMT-0400 (Eastern Daylight Time)","385942","Trustworthy,Untrustworthy","","null","","","","feedback","","<div class='trialDiv'><img src='trustrating_stim/white_mw053.bmp'><br><font class='baseline'><strong>Chris</strong><p>Received: <strong>8</strong></font> &nbsp; &nbsp; &nbsp; &nbsp; &nbsp; &nbsp;<font class='posOutcome'>Shared back: <strong>4</strong></font></font><div class='respPicDiv'><img src='img/responseButtonOffersNo0_wht.png' class='respPic'></div></div>","null","6","Chris","1","Shared","0.65,0.2","8","0.65","trustrating_stim/white_mw053.bmp","2.5","78","17"
"html-keyboard-response","188","186650","0.0-19.0-1.17","63d17cf704d2d7053d56b962","bdp_trlrn","Tue Mar 14 2023 21:10:40 GMT-0400 (Eastern Daylight Time)","385942","Trustworthy,Untrustworthy","","355","","","","decision","","<div class='trialDiv'><img src='trustrating_stim/white_00519_940519_fb_edt.bmp'><br><font class='baseline'><strong>Alex</strong><p>Choose number of points to send.</font><div class='respPicDiv'><img src='img/responseButtonOffersNo0L.png' class='respPic'></div></div>","2","6","Alex","10","Kept","0.2,0.8","9","0.2","trustrating_stim/white_00519_940519_fb_edt.bmp","6.5","83","18"
"html-keyboard-response","189","186911","0.0-19.0-2.17","63d17cf704d2d7053d56b962","bdp_trlrn","Tue Mar 14 2023 21:10:40 GMT-0400 (Eastern Daylight Time)","385942","Trustworthy,Untrustworthy","","null","","","","decisionFB","","<div class='trialDiv'><img src='trustrating_stim/white_00519_940519_fb_edt.bmp'><br><font class='baseline'><strong>Alex</strong><p>Choose number of points to send.</font><div class='respPicDiv'><img src='img/responseButtonOffersNo0L2.png' class='respPic'></div></div>","null","6","Alex","10","Kept","0.2,0.8","9","0.2","trustrating_stim/white_00519_940519_fb_edt.bmp","6.5","81","18"
"html-keyboard-response","190","187917","0.0-19.0-3.17","63d17cf704d2d7053d56b962","bdp_trlrn","Tue Mar 14 2023 21:10:40 GMT-0400 (Eastern Daylight Time)","385942","Trustworthy,Untrustworthy","","null","","","","feedback","","<div class='trialDiv'><img src='trustrating_stim/white_00519_940519_fb_edt.bmp'><br><font class='baseline'><strong>Alex</strong><p>Received: <strong>8</strong></font> &nbsp; &nbsp; &nbsp; &nbsp; &nbsp; &nbsp;<font class='negOutcome'>Shared back: <strong>0</strong></font></font><div class='respPicDiv'><img src='img/responseButtonOffersNo0_wht.png' class='respPic'></div></div>","null","6","Alex","10","Kept","0.2,0.8","9","0.2","trustrating_stim/white_00519_940519_fb_edt.bmp","6.5","81","18"
"html-keyboard-response","191","188608","0.0-19.0-1.18","63d17cf704d2d7053d56b962","bdp_trlrn","Tue Mar 14 2023 21:10:40 GMT-0400 (Eastern Daylight Time)","385942","Trustworthy,Untrustworthy","","691","","","","decision","","<div class='trialDiv'><img src='trustrating_stim/white_mw053.bmp'><br><font class='baseline'><strong>Chris</strong><p>Choose number of points to send.</font><div class='respPicDiv'><img src='img/responseButtonOffersNo0L.png' class='respPic'></div></div>","3","7","Chris","1","Shared","0.65,0.2","8","0.65","trustrating_stim/white_mw053.bmp","2.5","86","19"
"html-keyboard-response","192","188861","0.0-19.0-2.18","63d17cf704d2d7053d56b962","bdp_trlrn","Tue Mar 14 2023 21:10:40 GMT-0400 (Eastern Daylight Time)","385942","Trustworthy,Untrustworthy","","null","","","","decisionFB","","<div class='trialDiv'><img src='trustrating_stim/white_mw053.bmp'><br><font class='baseline'><strong>Chris</strong><p>Choose number of points to send.</font><div class='respPicDiv'><img src='img/responseButtonOffersNo0L3.png' class='respPic'></div></div>","null","7","Chris","1","Shared","0.65,0.2","8","0.65","trustrating_stim/white_mw053.bmp","2.5","83","19"
"html-keyboard-response","193","189867","0.0-19.0-3.18","63d17cf704d2d7053d56b962","bdp_trlrn","Tue Mar 14 2023 21:10:40 GMT-0400 (Eastern Daylight Time)","385942","Trustworthy,Untrustworthy","","null","","","","feedback","","<div class='trialDiv'><img src='trustrating_stim/white_mw053.bmp'><br><font class='baseline'><strong>Chris</strong><p>Received: <strong>12</strong></font> &nbsp; &nbsp; &nbsp; &nbsp; &nbsp; &nbsp;<font class='posOutcome'>Shared back: <strong>6</strong></font></font><div class='respPicDiv'><img src='img/responseButtonOffersNo0_wht.png' class='respPic'></div></div>","null","7","Chris","1","Shared","0.65,0.2","8","0.65","trustrating_stim/white_mw053.bmp","2.5","89","19"
"html-keyboard-response","194","190187","0.0-19.0-1.19","63d17cf704d2d7053d56b962","bdp_trlrn","Tue Mar 14 2023 21:10:40 GMT-0400 (Eastern Daylight Time)","385942","Trustworthy,Untrustworthy","","319","","","","decision","","<div class='trialDiv'><img src='trustrating_stim/white_mw071.bmp'><br><font class='baseline'><strong>Tyler</strong><p>Choose number of points to send.</font><div class='respPicDiv'><img src='img/responseButtonOffersNo0L.png' class='respPic'></div></div>","3","7","Tyler","6","Kept","0.2,0.65","8","0.2","trustrating_stim/white_mw071.bmp","4","94","20"
"html-keyboard-response","195","190453","0.0-19.0-2.19","63d17cf704d2d7053d56b962","bdp_trlrn","Tue Mar 14 2023 21:10:40 GMT-0400 (Eastern Daylight Time)","385942","Trustworthy,Untrustworthy","","null","","","","decisionFB","","<div class='trialDiv'><img src='trustrating_stim/white_mw071.bmp'><br><font class='baseline'><strong>Tyler</strong><p>Choose number of points to send.</font><div class='respPicDiv'><img src='img/responseButtonOffersNo0L3.png' class='respPic'></div></div>","null","7","Tyler","6","Kept","0.2,0.65","8","0.2","trustrating_stim/white_mw071.bmp","4","91","20"
"html-keyboard-response","196","191460","0.0-19.0-3.19","63d17cf704d2d7053d56b962","bdp_trlrn","Tue Mar 14 2023 21:10:40 GMT-0400 (Eastern Daylight Time)","385942","Trustworthy,Untrustworthy","","null","","","","feedback","","<div class='trialDiv'><img src='trustrating_stim/white_mw071.bmp'><br><font class='baseline'><strong>Tyler</strong><p>Received: <strong>12</strong></font> &nbsp; &nbsp; &nbsp; &nbsp; &nbsp; &nbsp;<font class='negOutcome'>Shared back: <strong>0</strong></font></font><div class='respPicDiv'><img src='img/responseButtonOffersNo0_wht.png' class='respPic'></div></div>","null","7","Tyler","6","Kept","0.2,0.65","8","0.2","trustrating_stim/white_mw071.bmp","4","91","20"
"html-keyboard-response","197","192025","0.0-19.0-1.20","63d17cf704d2d7053d56b962","bdp_trlrn","Tue Mar 14 2023 21:10:40 GMT-0400 (Eastern Daylight Time)","385942","Trustworthy,Untrustworthy","","564","","","","decision","","<div class='trialDiv'><img src='trustrating_stim/white_00519_940519_fb_edt.bmp'><br><font class='baseline'><strong>Alex</strong><p>Choose number of points to send.</font><div class='respPicDiv'><img src='img/responseButtonOffersNo0L.png' class='respPic'></div></div>","3","7","Alex","10","Kept","0.2,0.8","9","0.2","trustrating_stim/white_00519_940519_fb_edt.bmp","6.5","96","21"
"html-keyboard-response","198","192280","0.0-19.0-2.20","63d17cf704d2d7053d56b962","bdp_trlrn","Tue Mar 14 2023 21:10:40 GMT-0400 (Eastern Daylight Time)","385942","Trustworthy,Untrustworthy","","null","","","","decisionFB","","<div class='trialDiv'><img src='trustrating_stim/white_00519_940519_fb_edt.bmp'><br><font class='baseline'><strong>Alex</strong><p>Choose number of points to send.</font><div class='respPicDiv'><img src='img/responseButtonOffersNo0L3.png' class='respPic'></div></div>","null","7","Alex","10","Kept","0.2,0.8","9","0.2","trustrating_stim/white_00519_940519_fb_edt.bmp","6.5","93","21"
"html-keyboard-response","199","193284","0.0-19.0-3.20","63d17cf704d2d7053d56b962","bdp_trlrn","Tue Mar 14 2023 21:10:40 GMT-0400 (Eastern Daylight Time)","385942","Trustworthy,Untrustworthy","","null","","","","feedback","","<div class='trialDiv'><img src='trustrating_stim/white_00519_940519_fb_edt.bmp'><br><font class='baseline'><strong>Alex</strong><p>Received: <strong>12</strong></font> &nbsp; &nbsp; &nbsp; &nbsp; &nbsp; &nbsp;<font class='negOutcome'>Shared back: <strong>0</strong></font></font><div class='respPicDiv'><img src='img/responseButtonOffersNo0_wht.png' class='respPic'></div></div>","null","7","Alex","10","Kept","0.2,0.8","9","0.2","trustrating_stim/white_00519_940519_fb_edt.bmp","6.5","93","21"
"html-keyboard-response","200","194174","0.0-19.0-1.21","63d17cf704d2d7053d56b962","bdp_trlrn","Tue Mar 14 2023 21:10:40 GMT-0400 (Eastern Daylight Time)","385942","Trustworthy,Untrustworthy","","890","","","","decision","","<div class='trialDiv'><img src='trustrating_stim/white_mw071.bmp'><br><font class='baseline'><strong>Tyler</strong><p>Choose number of points to send.</font><div class='respPicDiv'><img src='img/responseButtonOffersNo0L.png' class='respPic'></div></div>","1","8","Tyler","6","Kept","0.2,0.65","8","0.2","trustrating_stim/white_mw071.bmp","4","98","22"
"html-keyboard-response","201","194429","0.0-19.0-2.21","63d17cf704d2d7053d56b962","bdp_trlrn","Tue Mar 14 2023 21:10:40 GMT-0400 (Eastern Daylight Time)","385942","Trustworthy,Untrustworthy","","null","","","","decisionFB","","<div class='trialDiv'><img src='trustrating_stim/white_mw071.bmp'><br><font class='baseline'><strong>Tyler</strong><p>Choose number of points to send.</font><div class='respPicDiv'><img src='img/responseButtonOffersNo0L1.png' class='respPic'></div></div>","null","8","Tyler","6","Kept","0.2,0.65","8","0.2","trustrating_stim/white_mw071.bmp","4","97","22"
"html-keyboard-response","202","195433","0.0-19.0-3.21","63d17cf704d2d7053d56b962","bdp_trlrn","Tue Mar 14 2023 21:10:40 GMT-0400 (Eastern Daylight Time)","385942","Trustworthy,Untrustworthy","","null","","","","feedback","","<div class='trialDiv'><img src='trustrating_stim/white_mw071.bmp'><br><font class='baseline'><strong>Tyler</strong><p>Received: <strong>4</strong></font> &nbsp; &nbsp; &nbsp; &nbsp; &nbsp; &nbsp;<font class='negOutcome'>Shared back: <strong>0</strong></font></font><div class='respPicDiv'><img src='img/responseButtonOffersNo0_wht.png' class='respPic'></div></div>","null","8","Tyler","6","Kept","0.2,0.65","8","0.2","trustrating_stim/white_mw071.bmp","4","97","22"
"html-keyboard-response","203","195743","0.0-19.0-1.22","63d17cf704d2d7053d56b962","bdp_trlrn","Tue Mar 14 2023 21:10:40 GMT-0400 (Eastern Daylight Time)","385942","Trustworthy,Untrustworthy","","309","","","","decision","","<div class='trialDiv'><img src='trustrating_stim/white_mw053.bmp'><br><font class='baseline'><strong>Chris</strong><p>Choose number of points to send.</font><div class='respPicDiv'><img src='img/responseButtonOffersNo0L.png' class='respPic'></div></div>","5","8","Chris","1","Kept","0.65,0.2","8","0.65","trustrating_stim/white_mw053.bmp","2.5","102","23"
"html-keyboard-response","204","196005","0.0-19.0-2.22","63d17cf704d2d7053d56b962","bdp_trlrn","Tue Mar 14 2023 21:10:40 GMT-0400 (Eastern Daylight Time)","385942","Trustworthy,Untrustworthy","","null","","","","decisionFB","","<div class='trialDiv'><img src='trustrating_stim/white_mw053.bmp'><br><font class='baseline'><strong>Chris</strong><p>Choose number of points to send.</font><div class='respPicDiv'><img src='img/responseButtonOffersNo0L5.png' class='respPic'></div></div>","null","8","Chris","1","Kept","0.65,0.2","8","0.65","trustrating_stim/white_mw053.bmp","2.5","97","23"
"html-keyboard-response","205","197010","0.0-19.0-3.22","63d17cf704d2d7053d56b962","bdp_trlrn","Tue Mar 14 2023 21:10:40 GMT-0400 (Eastern Daylight Time)","385942","Trustworthy,Untrustworthy","","null","","","","feedback","","<div class='trialDiv'><img src='trustrating_stim/white_mw053.bmp'><br><font class='baseline'><strong>Chris</strong><p>Received: <strong>20</strong></font> &nbsp; &nbsp; &nbsp; &nbsp; &nbsp; &nbsp;<font class='negOutcome'>Shared back: <strong>0</strong></font></font><div class='respPicDiv'><img src='img/responseButtonOffersNo0_wht.png' class='respPic'></div></div>","null","8","Chris","1","Kept","0.65,0.2","8","0.65","trustrating_stim/white_mw053.bmp","2.5","97","23"
"html-keyboard-response","206","197094","0.0-19.0-1.23","63d17cf704d2d7053d56b962","bdp_trlrn","Tue Mar 14 2023 21:10:40 GMT-0400 (Eastern Daylight Time)","385942","Trustworthy,Untrustworthy","","83","","","","decision","","<div class='trialDiv'><img src='trustrating_stim/white_00519_940519_fb_edt.bmp'><br><font class='baseline'><strong>Alex</strong><p>Choose number of points to send.</font><div class='respPicDiv'><img src='img/responseButtonOffersNo0L.png' class='respPic'></div></div>","1","8","Alex","10","Shared","0.2,0.8","9","0.2","trustrating_stim/white_00519_940519_fb_edt.bmp","6.5","102","24"
"html-keyboard-response","207","197348","0.0-19.0-2.23","63d17cf704d2d7053d56b962","bdp_trlrn","Tue Mar 14 2023 21:10:40 GMT-0400 (Eastern Daylight Time)","385942","Trustworthy,Untrustworthy","","null","","","","decisionFB","","<div class='trialDiv'><img src='trustrating_stim/white_00519_940519_fb_edt.bmp'><br><font class='baseline'><strong>Alex</strong><p>Choose number of points to send.</font><div class='respPicDiv'><img src='img/responseButtonOffersNo0L1.png' class='respPic'></div></div>","null","8","Alex","10","Shared","0.2,0.8","9","0.2","trustrating_stim/white_00519_940519_fb_edt.bmp","6.5","101","24"
"html-keyboard-response","208","198353","0.0-19.0-3.23","63d17cf704d2d7053d56b962","bdp_trlrn","Tue Mar 14 2023 21:10:40 GMT-0400 (Eastern Daylight Time)","385942","Trustworthy,Untrustworthy","","null","","","","feedback","","<div class='trialDiv'><img src='trustrating_stim/white_00519_940519_fb_edt.bmp'><br><font class='baseline'><strong>Alex</strong><p>Received: <strong>4</strong></font> &nbsp; &nbsp; &nbsp; &nbsp; &nbsp; &nbsp;<font class='posOutcome'>Shared back: <strong>2</strong></font></font><div class='respPicDiv'><img src='img/responseButtonOffersNo0_wht.png' class='respPic'></div></div>","null","8","Alex","10","Shared","0.2,0.8","9","0.2","trustrating_stim/white_00519_940519_fb_edt.bmp","6.5","103","24"
"html-keyboard-response","209","198429","0.0-19.0-1.24","63d17cf704d2d7053d56b962","bdp_trlrn","Tue Mar 14 2023 21:10:40 GMT-0400 (Eastern Daylight Time)","385942","Trustworthy,Untrustworthy","","75","","","","decision","","<div class='trialDiv'><img src='trustrating_stim/white_mw071.bmp'><br><font class='baseline'><strong>Tyler</strong><p>Choose number of points to send.</font><div class='respPicDiv'><img src='img/responseButtonOffersNo0L.png' class='respPic'></div></div>","1","9","Tyler","6","Shared","0.2,0.65","8","0.2","trustrating_stim/white_mw071.bmp","4","108","25"
"html-keyboard-response","210","198692","0.0-19.0-2.24","63d17cf704d2d7053d56b962","bdp_trlrn","Tue Mar 14 2023 21:10:40 GMT-0400 (Eastern Daylight Time)","385942","Trustworthy,Untrustworthy","","null","","","","decisionFB","","<div class='trialDiv'><img src='trustrating_stim/white_mw071.bmp'><br><font class='baseline'><strong>Tyler</strong><p>Choose number of points to send.</font><div class='respPicDiv'><img src='img/responseButtonOffersNo0L1.png' class='respPic'></div></div>","null","9","Tyler","6","Shared","0.2,0.65","8","0.2","trustrating_stim/white_mw071.bmp","4","107","25"
"html-keyboard-response","211","199698","0.0-19.0-3.24","63d17cf704d2d7053d56b962","bdp_trlrn","Tue Mar 14 2023 21:10:40 GMT-0400 (Eastern Daylight Time)","385942","Trustworthy,Untrustworthy","","null","","","","feedback","","<div class='trialDiv'><img src='trustrating_stim/white_mw071.bmp'><br><font class='baseline'><strong>Tyler</strong><p>Received: <strong>4</strong></font> &nbsp; &nbsp; &nbsp; &nbsp; &nbsp; &nbsp;<font class='posOutcome'>Shared back: <strong>2</strong></font></font><div class='respPicDiv'><img src='img/responseButtonOffersNo0_wht.png' class='respPic'></div></div>","null","9","Tyler","6","Shared","0.2,0.65","8","0.2","trustrating_stim/white_mw071.bmp","4","109","25"
"html-keyboard-response","212","199761","0.0-19.0-1.25","63d17cf704d2d7053d56b962","bdp_trlrn","Tue Mar 14 2023 21:10:40 GMT-0400 (Eastern Daylight Time)","385942","Trustworthy,Untrustworthy","","63","","","","decision","","<div class='trialDiv'><img src='trustrating_stim/white_mw053.bmp'><br><font class='baseline'><strong>Chris</strong><p>Choose number of points to send.</font><div class='respPicDiv'><img src='img/responseButtonOffersNo0L.png' class='respPic'></div></div>","1","9","Chris","1","Shared","0.65,0.2","8","0.65","trustrating_stim/white_mw053.bmp","2.5","114","26"
"html-keyboard-response","213","200022","0.0-19.0-2.25","63d17cf704d2d7053d56b962","bdp_trlrn","Tue Mar 14 2023 21:10:40 GMT-0400 (Eastern Daylight Time)","385942","Trustworthy,Untrustworthy","","null","","","","decisionFB","","<div class='trialDiv'><img src='trustrating_stim/white_mw053.bmp'><br><font class='baseline'><strong>Chris</strong><p>Choose number of points to send.</font><div class='respPicDiv'><img src='img/responseButtonOffersNo0L1.png' class='respPic'></div></div>","null","9","Chris","1","Shared","0.65,0.2","8","0.65","trustrating_stim/white_mw053.bmp","2.5","113","26"
"html-keyboard-response","214","201028","0.0-19.0-3.25","63d17cf704d2d7053d56b962","bdp_trlrn","Tue Mar 14 2023 21:10:40 GMT-0400 (Eastern Daylight Time)","385942","Trustworthy,Untrustworthy","","null","","","","feedback","","<div class='trialDiv'><img src='trustrating_stim/white_mw053.bmp'><br><font class='baseline'><strong>Chris</strong><p>Received: <strong>4</strong></font> &nbsp; &nbsp; &nbsp; &nbsp; &nbsp; &nbsp;<font class='posOutcome'>Shared back: <strong>2</strong></font></font><div class='respPicDiv'><img src='img/responseButtonOffersNo0_wht.png' class='respPic'></div></div>","null","9","Chris","1","Shared","0.65,0.2","8","0.65","trustrating_stim/white_mw053.bmp","2.5","115","26"
"html-keyboard-response","215","201045","0.0-19.0-1.26","63d17cf704d2d7053d56b962","bdp_trlrn","Tue Mar 14 2023 21:10:40 GMT-0400 (Eastern Daylight Time)","385942","Trustworthy,Untrustworthy","","17","","","","decision","","<div class='trialDiv'><img src='trustrating_stim/white_00519_940519_fb_edt.bmp'><br><font class='baseline'><strong>Alex</strong><p>Choose number of points to send.</font><div class='respPicDiv'><img src='img/responseButtonOffersNo0L.png' class='respPic'></div></div>","1","9","Alex","10","Shared","0.2,0.8","9","0.2","trustrating_stim/white_00519_940519_fb_edt.bmp","6.5","120","27"
"html-keyboard-response","216","201306","0.0-19.0-2.26","63d17cf704d2d7053d56b962","bdp_trlrn","Tue Mar 14 2023 21:10:40 GMT-0400 (Eastern Daylight Time)","385942","Trustworthy,Untrustworthy","","null","","","","decisionFB","","<div class='trialDiv'><img src='trustrating_stim/white_00519_940519_fb_edt.bmp'><br><font class='baseline'><strong>Alex</strong><p>Choose number of points to send.</font><div class='respPicDiv'><img src='img/responseButtonOffersNo0L1.png' class='respPic'></div></div>","null","9","Alex","10","Shared","0.2,0.8","9","0.2","trustrating_stim/white_00519_940519_fb_edt.bmp","6.5","119","27"
"html-keyboard-response","217","202312","0.0-19.0-3.26","63d17cf704d2d7053d56b962","bdp_trlrn","Tue Mar 14 2023 21:10:40 GMT-0400 (Eastern Daylight Time)","385942","Trustworthy,Untrustworthy","","null","","","","feedback","","<div class='trialDiv'><img src='trustrating_stim/white_00519_940519_fb_edt.bmp'><br><font class='baseline'><strong>Alex</strong><p>Received: <strong>4</strong></font> &nbsp; &nbsp; &nbsp; &nbsp; &nbsp; &nbsp;<font class='posOutcome'>Shared back: <strong>2</strong></font></font><div class='respPicDiv'><img src='img/responseButtonOffersNo0_wht.png' class='respPic'></div></div>","null","9","Alex","10","Shared","0.2,0.8","9","0.2","trustrating_stim/white_00519_940519_fb_edt.bmp","6.5","121","27"
"html-keyboard-response","218","202397","0.0-19.0-1.27","63d17cf704d2d7053d56b962","bdp_trlrn","Tue Mar 14 2023 21:10:40 GMT-0400 (Eastern Daylight Time)","385942","Trustworthy,Untrustworthy","","84","","","","decision","","<div class='trialDiv'><img src='trustrating_stim/white_mw053.bmp'><br><font class='baseline'><strong>Chris</strong><p>Choose number of points to send.</font><div class='respPicDiv'><img src='img/responseButtonOffersNo0L.png' class='respPic'></div></div>","1","10","Chris","1","Kept","0.65,0.2","8","0.65","trustrating_stim/white_mw053.bmp","2.5","126","28"
"html-keyboard-response","219","202650","0.0-19.0-2.27","63d17cf704d2d7053d56b962","bdp_trlrn","Tue Mar 14 2023 21:10:40 GMT-0400 (Eastern Daylight Time)","385942","Trustworthy,Untrustworthy","","null","","","","decisionFB","","<div class='trialDiv'><img src='trustrating_stim/white_mw053.bmp'><br><font class='baseline'><strong>Chris</strong><p>Choose number of points to send.</font><div class='respPicDiv'><img src='img/responseButtonOffersNo0L1.png' class='respPic'></div></div>","null","10","Chris","1","Kept","0.65,0.2","8","0.65","trustrating_stim/white_mw053.bmp","2.5","125","28"
"html-keyboard-response","220","203652","0.0-19.0-3.27","63d17cf704d2d7053d56b962","bdp_trlrn","Tue Mar 14 2023 21:10:40 GMT-0400 (Eastern Daylight Time)","385942","Trustworthy,Untrustworthy","","null","","","","feedback","","<div class='trialDiv'><img src='trustrating_stim/white_mw053.bmp'><br><font class='baseline'><strong>Chris</strong><p>Received: <strong>4</strong></font> &nbsp; &nbsp; &nbsp; &nbsp; &nbsp; &nbsp;<font class='negOutcome'>Shared back: <strong>0</strong></font></font><div class='respPicDiv'><img src='img/responseButtonOffersNo0_wht.png' class='respPic'></div></div>","null","10","Chris","1","Kept","0.65,0.2","8","0.65","trustrating_stim/white_mw053.bmp","2.5","125","28"
"html-keyboard-response","221","204060","0.0-19.0-1.28","63d17cf704d2d7053d56b962","bdp_trlrn","Tue Mar 14 2023 21:10:40 GMT-0400 (Eastern Daylight Time)","385942","Trustworthy,Untrustworthy","","407","","","","decision","","<div class='trialDiv'><img src='trustrating_stim/white_mw071.bmp'><br><font class='baseline'><strong>Tyler</strong><p>Choose number of points to send.</font><div class='respPicDiv'><img src='img/responseButtonOffersNo0L.png' class='respPic'></div></div>","1","10","Tyler","6","Shared","0.2,0.65","8","0.2","trustrating_stim/white_mw071.bmp","4","130","29"
