"trial_type","trial_index","time_elapsed","internal_node_id","subject_id","task","startTime","totalTime","labels","view_history","rt","event","trial","time","trialtype","success","stimulus","key_press","aground","name","faceID","outcome","agenttype","agentswpt","agentcurrpshare","face","avgRating","point_total","round"
"pavlovia","0","4","0.0-0.0","602b3ed14ae791260d6d12c5","bdp_trlrn","Mon Mar 13 2023 14:04:39 GMT-0400 (Eastern Daylight Time)","612748","Trustworthy,Untrustworthy","","","","","","","","","","","","","","","","","","","",""
"instructions","1","4118","0.0-1.0","602b3ed14ae791260d6d12c5","bdp_trlrn","Mon Mar 13 2023 14:04:39 GMT-0400 (Eastern Daylight Time)","612748","Trustworthy,Untrustworthy","[{""page_index"":0,""viewing_time"":4113}]","4113","","","","","","","","","","","","","","","","","",""
"","","","","602b3ed14ae791260d6d12c5","bdp_trlrn","Mon Mar 13 2023 14:04:39 GMT-0400 (Eastern Daylight Time)","612748","Trustworthy,Untrustworthy","","","fullscreenenter","2","6041","fullscreenenter","","","","","","","","","","","","","",""
"fullscreen","2","7001","0.0-2.0","602b3ed14ae791260d6d12c5","bdp_trlrn","Mon Mar 13 2023 14:04:39 GMT-0400 (Eastern Daylight Time)","612748","Trustworthy,Untrustworthy","","","","","","","true","","","","","","","","","","","","",""
"instructions","3","13764","0.0-4.0","602b3ed14ae791260d6d12c5","bdp_trlrn","Mon Mar 13 2023 14:04:39 GMT-0400 (Eastern Daylight Time)","612748","Trustworthy,Untrustworthy","[{""page_index"":0,""viewing_time"":5305},{""page_index"":1,""viewing_time"":1455}]","6760","","","","","","","","","","","","","","","","","",""
"instructions","4","14891","0.0-5.0","602b3ed14ae791260d6d12c5","bdp_trlrn","Mon Mar 13 2023 14:04:39 GMT-0400 (Eastern Daylight Time)","612748","Trustworthy,Untrustworthy","[{""page_index"":0,""viewing_time"":1126}]","1126","","","","","","","","","","","","","","","","","",""
"image-keyboard-response","5","16641","0.0-6.0-1.0","602b3ed14ae791260d6d12c5","bdp_trlrn","Mon Mar 13 2023 14:04:39 GMT-0400 (Eastern Daylight Time)","612748","Trustworthy,Untrustworthy","","1644","","","","rating","","trustrating_stim/white_00602_940928_fb_edt.bmp","6","","","","","","","","","","",""
"image-keyboard-response","6","16852","0.0-6.0-2.0","602b3ed14ae791260d6d12c5","bdp_trlrn","Mon Mar 13 2023 14:04:39 GMT-0400 (Eastern Daylight Time)","612748","Trustworthy,Untrustworthy","","null","","","","ratingFB","","trustrating_stim/white_00602_940928_fb_edt.bmp","null","","","","","","","","","","",""
"image-keyboard-response","7","18721","0.0-6.0-1.1","602b3ed14ae791260d6d12c5","bdp_trlrn","Mon Mar 13 2023 14:04:39 GMT-0400 (Eastern Daylight Time)","612748","Trustworthy,Untrustworthy","","1762","","","","rating","","trustrating_stim/white_mw089.bmp","4","","","","","","","","","","",""
"image-keyboard-response","8","18933","0.0-6.0-2.1","602b3ed14ae791260d6d12c5","bdp_trlrn","Mon Mar 13 2023 14:04:39 GMT-0400 (Eastern Daylight Time)","612748","Trustworthy,Untrustworthy","","null","","","","ratingFB","","trustrating_stim/white_mw089.bmp","null","","","","","","","","","","",""
"image-keyboard-response","9","21381","0.0-6.0-1.2","602b3ed14ae791260d6d12c5","bdp_trlrn","Mon Mar 13 2023 14:04:39 GMT-0400 (Eastern Daylight Time)","612748","Trustworthy,Untrustworthy","","2341","","","","rating","","trustrating_stim/white_mw053.bmp","3","","","","","","","","","","",""
"image-keyboard-response","10","21597","0.0-6.0-2.2","602b3ed14ae791260d6d12c5","bdp_trlrn","Mon Mar 13 2023 14:04:39 GMT-0400 (Eastern Daylight Time)","612748","Trustworthy,Untrustworthy","","null","","","","ratingFB","","trustrating_stim/white_mw053.bmp","null","","","","","","","","","","",""
"image-keyboard-response","11","23451","0.0-6.0-1.3","602b3ed14ae791260d6d12c5","bdp_trlrn","Mon Mar 13 2023 14:04:39 GMT-0400 (Eastern Daylight Time)","612748","Trustworthy,Untrustworthy","","1747","","","","rating","","trustrating_stim/white_mw049.bmp","5","","","","","","","","","","",""
"image-keyboard-response","12","23662","0.0-6.0-2.3","602b3ed14ae791260d6d12c5","bdp_trlrn","Mon Mar 13 2023 14:04:39 GMT-0400 (Eastern Daylight Time)","612748","Trustworthy,Untrustworthy","","null","","","","ratingFB","","trustrating_stim/white_mw049.bmp","null","","","","","","","","","","",""
"image-keyboard-response","13","25610","0.0-6.0-1.4","602b3ed14ae791260d6d12c5","bdp_trlrn","Mon Mar 13 2023 14:04:39 GMT-0400 (Eastern Daylight Time)","612748","Trustworthy,Untrustworthy","","1842","","","","rating","","trustrating_stim/white_mw099.bmp","1","","","","","","","","","","",""
"image-keyboard-response","14","25825","0.0-6.0-2.4","602b3ed14ae791260d6d12c5","bdp_trlrn","Mon Mar 13 2023 14:04:39 GMT-0400 (Eastern Daylight Time)","612748","Trustworthy,Untrustworthy","","null","","","","ratingFB","","trustrating_stim/white_mw099.bmp","null","","","","","","","","","","",""
"image-keyboard-response","15","27146","0.0-6.0-1.5","602b3ed14ae791260d6d12c5","bdp_trlrn","Mon Mar 13 2023 14:04:39 GMT-0400 (Eastern Daylight Time)","612748","Trustworthy,Untrustworthy","","1212","","","","rating","","trustrating_stim/white_mw071.bmp","2","","","","","","","","","","",""
"image-keyboard-response","16","27360","0.0-6.0-2.5","602b3ed14ae791260d6d12c5","bdp_trlrn","Mon Mar 13 2023 14:04:39 GMT-0400 (Eastern Daylight Time)","612748","Trustworthy,Untrustworthy","","null","","","","ratingFB","","trustrating_stim/white_mw071.bmp","null","","","","","","","","","","",""
"image-keyboard-response","17","29247","0.0-6.0-1.6","602b3ed14ae791260d6d12c5","bdp_trlrn","Mon Mar 13 2023 14:04:39 GMT-0400 (Eastern Daylight Time)","612748","Trustworthy,Untrustworthy","","1782","","","","rating","","trustrating_stim/white_00577_940928_fa_edt.bmp","2","","","","","","","","","","",""
"image-keyboard-response","18","29458","0.0-6.0-2.6","602b3ed14ae791260d6d12c5","bdp_trlrn","Mon Mar 13 2023 14:04:39 GMT-0400 (Eastern Daylight Time)","612748","Trustworthy,Untrustworthy","","null","","","","ratingFB","","trustrating_stim/white_00577_940928_fa_edt.bmp","null","","","","","","","","","","",""
"image-keyboard-response","19","31193","0.0-6.0-1.7","602b3ed14ae791260d6d12c5","bdp_trlrn","Mon Mar 13 2023 14:04:39 GMT-0400 (Eastern Daylight Time)","612748","Trustworthy,Untrustworthy","","1630","","","","rating","","trustrating_stim/white_00761_941201_fb_edt.bmp","1","","","","","","","","","","",""
"image-keyboard-response","20","31404","0.0-6.0-2.7","602b3ed14ae791260d6d12c5","bdp_trlrn","Mon Mar 13 2023 14:04:39 GMT-0400 (Eastern Daylight Time)","612748","Trustworthy,Untrustworthy","","null","","","","ratingFB","","trustrating_stim/white_00761_941201_fb_edt.bmp","null","","","","","","","","","","",""
"image-keyboard-response","21","34216","0.0-6.0-1.8","602b3ed14ae791260d6d12c5","bdp_trlrn","Mon Mar 13 2023 14:04:39 GMT-0400 (Eastern Daylight Time)","612748","Trustworthy,Untrustworthy","","2704","","","","rating","","trustrating_stim/white_00223_940128_fb_edt.bmp","4","","","","","","","","","","",""
"image-keyboard-response","22","34434","0.0-6.0-2.8","602b3ed14ae791260d6d12c5","bdp_trlrn","Mon Mar 13 2023 14:04:39 GMT-0400 (Eastern Daylight Time)","612748","Trustworthy,Untrustworthy","","null","","","","ratingFB","","trustrating_stim/white_00223_940128_fb_edt.bmp","null","","","","","","","","","","",""
"image-keyboard-response","23","35824","0.0-6.0-1.9","602b3ed14ae791260d6d12c5","bdp_trlrn","Mon Mar 13 2023 14:04:39 GMT-0400 (Eastern Daylight Time)","612748","Trustworthy,Untrustworthy","","1281","","","","rating","","trustrating_stim/white_mw097.bmp","1","","","","","","","","","","",""
"image-keyboard-response","24","36035","0.0-6.0-2.9","602b3ed14ae791260d6d12c5","bdp_trlrn","Mon Mar 13 2023 14:04:39 GMT-0400 (Eastern Daylight Time)","612748","Trustworthy,Untrustworthy","","null","","","","ratingFB","","trustrating_stim/white_mw097.bmp","null","","","","","","","","","","",""
"image-keyboard-response","25","41009","0.0-6.0-1.10","602b3ed14ae791260d6d12c5","bdp_trlrn","Mon Mar 13 2023 14:04:39 GMT-0400 (Eastern Daylight Time)","612748","Trustworthy,Untrustworthy","","4869","","","","rating","","trustrating_stim/white_00659_941121_fa_edt.bmp","1","","","","","","","","","","",""
"image-keyboard-response","26","41212","0.0-6.0-2.10","602b3ed14ae791260d6d12c5","bdp_trlrn","Mon Mar 13 2023 14:04:39 GMT-0400 (Eastern Daylight Time)","612748","Trustworthy,Untrustworthy","","null","","","","ratingFB","","trustrating_stim/white_00659_941121_fa_edt.bmp","null","","","","","","","","","","",""
"image-keyboard-response","27","43534","0.0-6.0-1.11","602b3ed14ae791260d6d12c5","bdp_trlrn","Mon Mar 13 2023 14:04:39 GMT-0400 (Eastern Daylight Time)","612748","Trustworthy,Untrustworthy","","2215","","","","rating","","trustrating_stim/white_mw048.bmp","3","","","","","","","","","","",""
"image-keyboard-response","28","43744","0.0-6.0-2.11","602b3ed14ae791260d6d12c5","bdp_trlrn","Mon Mar 13 2023 14:04:39 GMT-0400 (Eastern Daylight Time)","612748","Trustworthy,Untrustworthy","","null","","","","ratingFB","","trustrating_stim/white_mw048.bmp","null","","","","","","","","","","",""
"image-keyboard-response","29","45701","0.0-6.0-1.12","602b3ed14ae791260d6d12c5","bdp_trlrn","Mon Mar 13 2023 14:04:39 GMT-0400 (Eastern Daylight Time)","612748","Trustworthy,Untrustworthy","","1851","","","","rating","","trustrating_stim/white_mw033.bmp","4","","","","","","","","","","",""
"image-keyboard-response","30","45909","0.0-6.0-2.12","602b3ed14ae791260d6d12c5","bdp_trlrn","Mon Mar 13 2023 14:04:39 GMT-0400 (Eastern Daylight Time)","612748","Trustworthy,Untrustworthy","","null","","","","ratingFB","","trustrating_stim/white_mw033.bmp","null","","","","","","","","","","",""
"image-keyboard-response","31","47867","0.0-6.0-1.13","602b3ed14ae791260d6d12c5","bdp_trlrn","Mon Mar 13 2023 14:04:39 GMT-0400 (Eastern Daylight Time)","612748","Trustworthy,Untrustworthy","","1851","","","","rating","","trustrating_stim/white_mw046.bmp","4","","","","","","","","","","",""
"image-keyboard-response","32","48074","0.0-6.0-2.13","602b3ed14ae791260d6d12c5","bdp_trlrn","Mon Mar 13 2023 14:04:39 GMT-0400 (Eastern Daylight Time)","612748","Trustworthy,Untrustworthy","","null","","","","ratingFB","","trustrating_stim/white_mw046.bmp","null","","","","","","","","","","",""
"image-keyboard-response","33","49863","0.0-6.0-1.14","602b3ed14ae791260d6d12c5","bdp_trlrn","Mon Mar 13 2023 14:04:39 GMT-0400 (Eastern Daylight Time)","612748","Trustworthy,Untrustworthy","","1683","","","","rating","","trustrating_stim/white_00120_931230_fa_edt.bmp","6","","","","","","","","","","",""
"image-keyboard-response","34","50073","0.0-6.0-2.14","602b3ed14ae791260d6d12c5","bdp_trlrn","Mon Mar 13 2023 14:04:39 GMT-0400 (Eastern Daylight Time)","612748","Trustworthy,Untrustworthy","","null","","","","ratingFB","","trustrating_stim/white_00120_931230_fa_edt.bmp","null","","","","","","","","","","",""
"image-keyboard-response","35","51930","0.0-6.0-1.15","602b3ed14ae791260d6d12c5","bdp_trlrn","Mon Mar 13 2023 14:04:39 GMT-0400 (Eastern Daylight Time)","612748","Trustworthy,Untrustworthy","","1751","","","","rating","","trustrating_stim/white_mw066.bmp","4","","","","","","","","","","",""
"image-keyboard-response","36","52136","0.0-6.0-2.15","602b3ed14ae791260d6d12c5","bdp_trlrn","Mon Mar 13 2023 14:04:39 GMT-0400 (Eastern Daylight Time)","612748","Trustworthy,Untrustworthy","","null","","","","ratingFB","","trustrating_stim/white_mw066.bmp","null","","","","","","","","","","",""
"image-keyboard-response","37","54540","0.0-6.0-1.16","602b3ed14ae791260d6d12c5","bdp_trlrn","Mon Mar 13 2023 14:04:39 GMT-0400 (Eastern Daylight Time)","612748","Trustworthy,Untrustworthy","","2298","","","","rating","","trustrating_stim/white_mw060.bmp","2","","","","","","","","","","",""
"image-keyboard-response","38","54751","0.0-6.0-2.16","602b3ed14ae791260d6d12c5","bdp_trlrn","Mon Mar 13 2023 14:04:39 GMT-0400 (Eastern Daylight Time)","612748","Trustworthy,Untrustworthy","","null","","","","ratingFB","","trustrating_stim/white_mw060.bmp","null","","","","","","","","","","",""
"image-keyboard-response","39","56754","0.0-6.0-1.17","602b3ed14ae791260d6d12c5","bdp_trlrn","Mon Mar 13 2023 14:04:39 GMT-0400 (Eastern Daylight Time)","612748","Trustworthy,Untrustworthy","","1897","","","","rating","","trustrating_stim/white_mw084.bmp","5","","","","","","","","","","",""
"image-keyboard-response","40","56965","0.0-6.0-2.17","602b3ed14ae791260d6d12c5","bdp_trlrn","Mon Mar 13 2023 14:04:39 GMT-0400 (Eastern Daylight Time)","612748","Trustworthy,Untrustworthy","","null","","","","ratingFB","","trustrating_stim/white_mw084.bmp","null","","","","","","","","","","",""
"image-keyboard-response","41","59580","0.0-6.0-1.18","602b3ed14ae791260d6d12c5","bdp_trlrn","Mon Mar 13 2023 14:04:39 GMT-0400 (Eastern Daylight Time)","612748","Trustworthy,Untrustworthy","","2509","","","","rating","","trustrating_stim/white_mw035.bmp","7","","","","","","","","","","",""
"image-keyboard-response","42","59795","0.0-6.0-2.18","602b3ed14ae791260d6d12c5","bdp_trlrn","Mon Mar 13 2023 14:04:39 GMT-0400 (Eastern Daylight Time)","612748","Trustworthy,Untrustworthy","","null","","","","ratingFB","","trustrating_stim/white_mw035.bmp","null","","","","","","","","","","",""
"image-keyboard-response","43","62821","0.0-6.0-1.19","602b3ed14ae791260d6d12c5","bdp_trlrn","Mon Mar 13 2023 14:04:39 GMT-0400 (Eastern Daylight Time)","612748","Trustworthy,Untrustworthy","","2917","","","","rating","","trustrating_stim/white_00519_940519_fb_edt.bmp","6","","","","","","","","","","",""
"image-keyboard-response","44","63026","0.0-6.0-2.19","602b3ed14ae791260d6d12c5","bdp_trlrn","Mon Mar 13 2023 14:04:39 GMT-0400 (Eastern Daylight Time)","612748","Trustworthy,Untrustworthy","","null","","","","ratingFB","","trustrating_stim/white_00519_940519_fb_edt.bmp","null","","","","","","","","","","",""
"image-keyboard-response","45","64792","0.0-6.0-1.20","602b3ed14ae791260d6d12c5","bdp_trlrn","Mon Mar 13 2023 14:04:39 GMT-0400 (Eastern Daylight Time)","612748","Trustworthy,Untrustworthy","","1659","","","","rating","","trustrating_stim/white_00129_931230_fb_edt.bmp","7","","","","","","","","","","",""
"image-keyboard-response","46","65008","0.0-6.0-2.20","602b3ed14ae791260d6d12c5","bdp_trlrn","Mon Mar 13 2023 14:04:39 GMT-0400 (Eastern Daylight Time)","612748","Trustworthy,Untrustworthy","","null","","","","ratingFB","","trustrating_stim/white_00129_931230_fb_edt.bmp","null","","","","","","","","","","",""
"image-keyboard-response","47","66660","0.0-6.0-1.21","602b3ed14ae791260d6d12c5","bdp_trlrn","Mon Mar 13 2023 14:04:39 GMT-0400 (Eastern Daylight Time)","612748","Trustworthy,Untrustworthy","","1545","","","","rating","","trustrating_stim/white_mw063.bmp","4","","","","","","","","","","",""
"image-keyboard-response","48","66872","0.0-6.0-2.21","602b3ed14ae791260d6d12c5","bdp_trlrn","Mon Mar 13 2023 14:04:39 GMT-0400 (Eastern Daylight Time)","612748","Trustworthy,Untrustworthy","","null","","","","ratingFB","","trustrating_stim/white_mw063.bmp","null","","","","","","","","","","",""
"image-keyboard-response","49","69166","0.0-6.0-1.22","602b3ed14ae791260d6d12c5","bdp_trlrn","Mon Mar 13 2023 14:04:39 GMT-0400 (Eastern Daylight Time)","612748","Trustworthy,Untrustworthy","","2186","","","","rating","","trustrating_stim/white_00757_941201_fa_edt.bmp","1","","","","","","","","","","",""
"image-keyboard-response","50","69370","0.0-6.0-2.22","602b3ed14ae791260d6d12c5","bdp_trlrn","Mon Mar 13 2023 14:04:39 GMT-0400 (Eastern Daylight Time)","612748","Trustworthy,Untrustworthy","","null","","","","ratingFB","","trustrating_stim/white_00757_941201_fa_edt.bmp","null","","","","","","","","","","",""
"image-keyboard-response","51","81457","0.0-6.0-1.23","602b3ed14ae791260d6d12c5","bdp_trlrn","Mon Mar 13 2023 14:04:39 GMT-0400 (Eastern Daylight Time)","612748","Trustworthy,Untrustworthy","","11981","","","","rating","","trustrating_stim/white_00109_931230_fa_edt.bmp","5","","","","","","","","","","",""
"image-keyboard-response","52","81675","0.0-6.0-2.23","602b3ed14ae791260d6d12c5","bdp_trlrn","Mon Mar 13 2023 14:04:39 GMT-0400 (Eastern Daylight Time)","612748","Trustworthy,Untrustworthy","","null","","","","ratingFB","","trustrating_stim/white_00109_931230_fa_edt.bmp","null","","","","","","","","","","",""
"image-keyboard-response","53","84268","0.0-6.0-1.24","602b3ed14ae791260d6d12c5","bdp_trlrn","Mon Mar 13 2023 14:04:39 GMT-0400 (Eastern Daylight Time)","612748","Trustworthy,Untrustworthy","","2485","","","","rating","","trustrating_stim/white_00340_940422_fa_edt.bmp","1","","","","","","","","","","",""
"image-keyboard-response","54","84472","0.0-6.0-2.24","602b3ed14ae791260d6d12c5","bdp_trlrn","Mon Mar 13 2023 14:04:39 GMT-0400 (Eastern Daylight Time)","612748","Trustworthy,Untrustworthy","","null","","","","ratingFB","","trustrating_stim/white_00340_940422_fa_edt.bmp","null","","","","","","","","","","",""
"image-keyboard-response","55","87828","0.0-6.0-1.25","602b3ed14ae791260d6d12c5","bdp_trlrn","Mon Mar 13 2023 14:04:39 GMT-0400 (Eastern Daylight Time)","612748","Trustworthy,Untrustworthy","","3249","","","","rating","","trustrating_stim/white_00807_941205_fb_edt.bmp","3","","","","","","","","","","",""
"image-keyboard-response","56","88037","0.0-6.0-2.25","602b3ed14ae791260d6d12c5","bdp_trlrn","Mon Mar 13 2023 14:04:39 GMT-0400 (Eastern Daylight Time)","612748","Trustworthy,Untrustworthy","","null","","","","ratingFB","","trustrating_stim/white_00807_941205_fb_edt.bmp","null","","","","","","","","","","",""
"image-keyboard-response","57","89960","0.0-6.0-1.26","602b3ed14ae791260d6d12c5","bdp_trlrn","Mon Mar 13 2023 14:04:39 GMT-0400 (Eastern Daylight Time)","612748","Trustworthy,Untrustworthy","","1817","","","","rating","","trustrating_stim/white_00299_940422_fa_edt.bmp","5","","","","","","","","","","",""
"image-keyboard-response","58","90168","0.0-6.0-2.26","602b3ed14ae791260d6d12c5","bdp_trlrn","Mon Mar 13 2023 14:04:39 GMT-0400 (Eastern Daylight Time)","612748","Trustworthy,Untrustworthy","","null","","","","ratingFB","","trustrating_stim/white_00299_940422_fa_edt.bmp","null","","","","","","","","","","",""
"image-keyboard-response","59","91831","0.0-6.0-1.27","602b3ed14ae791260d6d12c5","bdp_trlrn","Mon Mar 13 2023 14:04:39 GMT-0400 (Eastern Daylight Time)","612748","Trustworthy,Untrustworthy","","1558","","","","rating","","trustrating_stim/white_mw056.bmp","3","","","","","","","","","","",""
"image-keyboard-response","60","92033","0.0-6.0-2.27","602b3ed14ae791260d6d12c5","bdp_trlrn","Mon Mar 13 2023 14:04:39 GMT-0400 (Eastern Daylight Time)","612748","Trustworthy,Untrustworthy","","null","","","","ratingFB","","trustrating_stim/white_mw056.bmp","null","","","","","","","","","","",""
"image-keyboard-response","61","93787","0.0-6.0-1.28","602b3ed14ae791260d6d12c5","bdp_trlrn","Mon Mar 13 2023 14:04:39 GMT-0400 (Eastern Daylight Time)","612748","Trustworthy,Untrustworthy","","1648","","","","rating","","trustrating_stim/white_00898_960530_fa_edt.bmp","6","","","","","","","","","","",""
"image-keyboard-response","62","93997","0.0-6.0-2.28","602b3ed14ae791260d6d12c5","bdp_trlrn","Mon Mar 13 2023 14:04:39 GMT-0400 (Eastern Daylight Time)","612748","Trustworthy,Untrustworthy","","null","","","","ratingFB","","trustrating_stim/white_00898_960530_fa_edt.bmp","null","","","","","","","","","","",""
"image-keyboard-response","63","96176","0.0-6.0-1.29","602b3ed14ae791260d6d12c5","bdp_trlrn","Mon Mar 13 2023 14:04:39 GMT-0400 (Eastern Daylight Time)","612748","Trustworthy,Untrustworthy","","2073","","","","rating","","trustrating_stim/white_00785_941205_fb_edt.bmp","4","","","","","","","","","","",""
"image-keyboard-response","64","96393","0.0-6.0-2.29","602b3ed14ae791260d6d12c5","bdp_trlrn","Mon Mar 13 2023 14:04:39 GMT-0400 (Eastern Daylight Time)","612748","Trustworthy,Untrustworthy","","null","","","","ratingFB","","trustrating_stim/white_00785_941205_fb_edt.bmp","null","","","","","","","","","","",""
"image-keyboard-response","65","98091","0.0-6.0-1.30","602b3ed14ae791260d6d12c5","bdp_trlrn","Mon Mar 13 2023 14:04:39 GMT-0400 (Eastern Daylight Time)","612748","Trustworthy,Untrustworthy","","1589","","","","rating","","trustrating_stim/white_00129_931230_fb_edt.bmp","7","","","","","","","","","","",""
"image-keyboard-response","66","98294","0.0-6.0-2.30","602b3ed14ae791260d6d12c5","bdp_trlrn","Mon Mar 13 2023 14:04:39 GMT-0400 (Eastern Daylight Time)","612748","Trustworthy,Untrustworthy","","null","","","","ratingFB","","trustrating_stim/white_00129_931230_fb_edt.bmp","null","","","","","","","","","","",""
"image-keyboard-response","67","100044","0.0-6.0-1.31","602b3ed14ae791260d6d12c5","bdp_trlrn","Mon Mar 13 2023 14:04:39 GMT-0400 (Eastern Daylight Time)","612748","Trustworthy,Untrustworthy","","1644","","","","rating","","trustrating_stim/white_00223_940128_fb_edt.bmp","4","","","","","","","","","","",""
"image-keyboard-response","68","100259","0.0-6.0-2.31","602b3ed14ae791260d6d12c5","bdp_trlrn","Mon Mar 13 2023 14:04:39 GMT-0400 (Eastern Daylight Time)","612748","Trustworthy,Untrustworthy","","null","","","","ratingFB","","trustrating_stim/white_00223_940128_fb_edt.bmp","null","","","","","","","","","","",""
"image-keyboard-response","69","103474","0.0-6.0-1.32","602b3ed14ae791260d6d12c5","bdp_trlrn","Mon Mar 13 2023 14:04:39 GMT-0400 (Eastern Daylight Time)","612748","Trustworthy,Untrustworthy","","3111","","","","rating","","trustrating_stim/white_mw049.bmp","6","","","","","","","","","","",""
"image-keyboard-response","70","103689","0.0-6.0-2.32","602b3ed14ae791260d6d12c5","bdp_trlrn","Mon Mar 13 2023 14:04:39 GMT-0400 (Eastern Daylight Time)","612748","Trustworthy,Untrustworthy","","null","","","","ratingFB","","trustrating_stim/white_mw049.bmp","null","","","","","","","","","","",""
"image-keyboard-response","71","104988","0.0-6.0-1.33","602b3ed14ae791260d6d12c5","bdp_trlrn","Mon Mar 13 2023 14:04:39 GMT-0400 (Eastern Daylight Time)","612748","Trustworthy,Untrustworthy","","1193","","","","rating","","trustrating_stim/white_00761_941201_fb_edt.bmp","1","","","","","","","","","","",""
"image-keyboard-response","72","105202","0.0-6.0-2.33","602b3ed14ae791260d6d12c5","bdp_trlrn","Mon Mar 13 2023 14:04:39 GMT-0400 (Eastern Daylight Time)","612748","Trustworthy,Untrustworthy","","null","","","","ratingFB","","trustrating_stim/white_00761_941201_fb_edt.bmp","null","","","","","","","","","","",""
"image-keyboard-response","73","107394","0.0-6.0-1.34","602b3ed14ae791260d6d12c5","bdp_trlrn","Mon Mar 13 2023 14:04:39 GMT-0400 (Eastern Daylight Time)","612748","Trustworthy,Untrustworthy","","2083","","","","rating","","trustrating_stim/white_mw089.bmp","3","","","","","","","","","","",""
"image-keyboard-response","74","107603","0.0-6.0-2.34","602b3ed14ae791260d6d12c5","bdp_trlrn","Mon Mar 13 2023 14:04:39 GMT-0400 (Eastern Daylight Time)","612748","Trustworthy,Untrustworthy","","null","","","","ratingFB","","trustrating_stim/white_mw089.bmp","null","","","","","","","","","","",""
"image-keyboard-response","75","110035","0.0-6.0-1.35","602b3ed14ae791260d6d12c5","bdp_trlrn","Mon Mar 13 2023 14:04:39 GMT-0400 (Eastern Daylight Time)","612748","Trustworthy,Untrustworthy","","2311","","","","rating","","trustrating_stim/white_mw056.bmp","4","","","","","","","","","","",""
"image-keyboard-response","76","110250","0.0-6.0-2.35","602b3ed14ae791260d6d12c5","bdp_trlrn","Mon Mar 13 2023 14:04:39 GMT-0400 (Eastern Daylight Time)","612748","Trustworthy,Untrustworthy","","null","","","","ratingFB","","trustrating_stim/white_mw056.bmp","null","","","","","","","","","","",""
"image-keyboard-response","77","113294","0.0-6.0-1.36","602b3ed14ae791260d6d12c5","bdp_trlrn","Mon Mar 13 2023 14:04:39 GMT-0400 (Eastern Daylight Time)","612748","Trustworthy,Untrustworthy","","2924","","","","rating","","trustrating_stim/white_00120_931230_fa_edt.bmp","7","","","","","","","","","","",""
"image-keyboard-response","78","113510","0.0-6.0-2.36","602b3ed14ae791260d6d12c5","bdp_trlrn","Mon Mar 13 2023 14:04:39 GMT-0400 (Eastern Daylight Time)","612748","Trustworthy,Untrustworthy","","null","","","","ratingFB","","trustrating_stim/white_00120_931230_fa_edt.bmp","null","","","","","","","","","","",""
"image-keyboard-response","79","116054","0.0-6.0-1.37","602b3ed14ae791260d6d12c5","bdp_trlrn","Mon Mar 13 2023 14:04:39 GMT-0400 (Eastern Daylight Time)","612748","Trustworthy,Untrustworthy","","2436","","","","rating","","trustrating_stim/white_00519_940519_fb_edt.bmp","5","","","","","","","","","","",""
"image-keyboard-response","80","116261","0.0-6.0-2.37","602b3ed14ae791260d6d12c5","bdp_trlrn","Mon Mar 13 2023 14:04:39 GMT-0400 (Eastern Daylight Time)","612748","Trustworthy,Untrustworthy","","null","","","","ratingFB","","trustrating_stim/white_00519_940519_fb_edt.bmp","null","","","","","","","","","","",""
"image-keyboard-response","81","121957","0.0-6.0-1.38","602b3ed14ae791260d6d12c5","bdp_trlrn","Mon Mar 13 2023 14:04:39 GMT-0400 (Eastern Daylight Time)","612748","Trustworthy,Untrustworthy","","5591","","","","rating","","trustrating_stim/white_mw060.bmp","1","","","","","","","","","","",""
"image-keyboard-response","82","122169","0.0-6.0-2.38","602b3ed14ae791260d6d12c5","bdp_trlrn","Mon Mar 13 2023 14:04:39 GMT-0400 (Eastern Daylight Time)","612748","Trustworthy,Untrustworthy","","null","","","","ratingFB","","trustrating_stim/white_mw060.bmp","null","","","","","","","","","","",""
"image-keyboard-response","83","124487","0.0-6.0-1.39","602b3ed14ae791260d6d12c5","bdp_trlrn","Mon Mar 13 2023 14:04:39 GMT-0400 (Eastern Daylight Time)","612748","Trustworthy,Untrustworthy","","2212","","","","rating","","trustrating_stim/white_mw071.bmp","3","","","","","","","","","","",""
"image-keyboard-response","84","124699","0.0-6.0-2.39","602b3ed14ae791260d6d12c5","bdp_trlrn","Mon Mar 13 2023 14:04:39 GMT-0400 (Eastern Daylight Time)","612748","Trustworthy,Untrustworthy","","null","","","","ratingFB","","trustrating_stim/white_mw071.bmp","null","","","","","","","","","","",""
"image-keyboard-response","85","125915","0.0-6.0-1.40","602b3ed14ae791260d6d12c5","bdp_trlrn","Mon Mar 13 2023 14:04:39 GMT-0400 (Eastern Daylight Time)","612748","Trustworthy,Untrustworthy","","1107","","","","rating","","trustrating_stim/white_mw099.bmp","1","","","","","","","","","","",""
"image-keyboard-response","86","126131","0.0-6.0-2.40","602b3ed14ae791260d6d12c5","bdp_trlrn","Mon Mar 13 2023 14:04:39 GMT-0400 (Eastern Daylight Time)","612748","Trustworthy,Untrustworthy","","null","","","","ratingFB","","trustrating_stim/white_mw099.bmp","null","","","","","","","","","","",""
"image-keyboard-response","87","127848","0.0-6.0-1.41","602b3ed14ae791260d6d12c5","bdp_trlrn","Mon Mar 13 2023 14:04:39 GMT-0400 (Eastern Daylight Time)","612748","Trustworthy,Untrustworthy","","1608","","","","rating","","trustrating_stim/white_00577_940928_fa_edt.bmp","1","","","","","","","","","","",""
"image-keyboard-response","88","128063","0.0-6.0-2.41","602b3ed14ae791260d6d12c5","bdp_trlrn","Mon Mar 13 2023 14:04:39 GMT-0400 (Eastern Daylight Time)","612748","Trustworthy,Untrustworthy","","null","","","","ratingFB","","trustrating_stim/white_00577_940928_fa_edt.bmp","null","","","","","","","","","","",""
"image-keyboard-response","89","129637","0.0-6.0-1.42","602b3ed14ae791260d6d12c5","bdp_trlrn","Mon Mar 13 2023 14:04:39 GMT-0400 (Eastern Daylight Time)","612748","Trustworthy,Untrustworthy","","1466","","","","rating","","trustrating_stim/white_00659_941121_fa_edt.bmp","1","","","","","","","","","","",""
"image-keyboard-response","90","129845","0.0-6.0-2.42","602b3ed14ae791260d6d12c5","bdp_trlrn","Mon Mar 13 2023 14:04:39 GMT-0400 (Eastern Daylight Time)","612748","Trustworthy,Untrustworthy","","null","","","","ratingFB","","trustrating_stim/white_00659_941121_fa_edt.bmp","null","","","","","","","","","","",""
"image-keyboard-response","91","132509","0.0-6.0-1.43","602b3ed14ae791260d6d12c5","bdp_trlrn","Mon Mar 13 2023 14:04:39 GMT-0400 (Eastern Daylight Time)","612748","Trustworthy,Untrustworthy","","2556","","","","rating","","trustrating_stim/white_00898_960530_fa_edt.bmp","7","","","","","","","","","","",""
"image-keyboard-response","92","132725","0.0-6.0-2.43","602b3ed14ae791260d6d12c5","bdp_trlrn","Mon Mar 13 2023 14:04:39 GMT-0400 (Eastern Daylight Time)","612748","Trustworthy,Untrustworthy","","null","","","","ratingFB","","trustrating_stim/white_00898_960530_fa_edt.bmp","null","","","","","","","","","","",""
"image-keyboard-response","93","134198","0.0-6.0-1.44","602b3ed14ae791260d6d12c5","bdp_trlrn","Mon Mar 13 2023 14:04:39 GMT-0400 (Eastern Daylight Time)","612748","Trustworthy,Untrustworthy","","1364","","","","rating","","trustrating_stim/white_mw097.bmp","1","","","","","","","","","","",""
"image-keyboard-response","94","134409","0.0-6.0-2.44","602b3ed14ae791260d6d12c5","bdp_trlrn","Mon Mar 13 2023 14:04:39 GMT-0400 (Eastern Daylight Time)","612748","Trustworthy,Untrustworthy","","null","","","","ratingFB","","trustrating_stim/white_mw097.bmp","null","","","","","","","","","","",""
"image-keyboard-response","95","135741","0.0-6.0-1.45","602b3ed14ae791260d6d12c5","bdp_trlrn","Mon Mar 13 2023 14:04:39 GMT-0400 (Eastern Daylight Time)","612748","Trustworthy,Untrustworthy","","1227","","","","rating","","trustrating_stim/white_00757_941201_fa_edt.bmp","1","","","","","","","","","","",""
"image-keyboard-response","96","135958","0.0-6.0-2.45","602b3ed14ae791260d6d12c5","bdp_trlrn","Mon Mar 13 2023 14:04:39 GMT-0400 (Eastern Daylight Time)","612748","Trustworthy,Untrustworthy","","null","","","","ratingFB","","trustrating_stim/white_00757_941201_fa_edt.bmp","null","","","","","","","","","","",""
"image-keyboard-response","97","137710","0.0-6.0-1.46","602b3ed14ae791260d6d12c5","bdp_trlrn","Mon Mar 13 2023 14:04:39 GMT-0400 (Eastern Daylight Time)","612748","Trustworthy,Untrustworthy","","1632","","","","rating","","trustrating_stim/white_mw046.bmp","3","","","","","","","","","","",""
"image-keyboard-response","98","137922","0.0-6.0-2.46","602b3ed14ae791260d6d12c5","bdp_trlrn","Mon Mar 13 2023 14:04:39 GMT-0400 (Eastern Daylight Time)","612748","Trustworthy,Untrustworthy","","null","","","","ratingFB","","trustrating_stim/white_mw046.bmp","null","","","","","","","","","","",""
"image-keyboard-response","99","139309","0.0-6.0-1.47","602b3ed14ae791260d6d12c5","bdp_trlrn","Mon Mar 13 2023 14:04:39 GMT-0400 (Eastern Daylight Time)","612748","Trustworthy,Untrustworthy","","1282","","","","rating","","trustrating_stim/white_00807_941205_fb_edt.bmp","3","","","","","","","","","","",""
"image-keyboard-response","100","139520","0.0-6.0-2.47","602b3ed14ae791260d6d12c5","bdp_trlrn","Mon Mar 13 2023 14:04:39 GMT-0400 (Eastern Daylight Time)","612748","Trustworthy,Untrustworthy","","null","","","","ratingFB","","trustrating_stim/white_00807_941205_fb_edt.bmp","null","","","","","","","","","","",""
"image-keyboard-response","101","140748","0.0-6.0-1.48","602b3ed14ae791260d6d12c5","bdp_trlrn","Mon Mar 13 2023 14:04:39 GMT-0400 (Eastern Daylight Time)","612748","Trustworthy,Untrustworthy","","1120","","","","rating","","trustrating_stim/white_00340_940422_fa_edt.bmp","1","","","","","","","","","","",""
"image-keyboard-response","102","140952","0.0-6.0-2.48","602b3ed14ae791260d6d12c5","bdp_trlrn","Mon Mar 13 2023 14:04:39 GMT-0400 (Eastern Daylight Time)","612748","Trustworthy,Untrustworthy","","null","","","","ratingFB","","trustrating_stim/white_00340_940422_fa_edt.bmp","null","","","","","","","","","","",""
"image-keyboard-response","103","142546","0.0-6.0-1.49","602b3ed14ae791260d6d12c5","bdp_trlrn","Mon Mar 13 2023 14:04:39 GMT-0400 (Eastern Daylight Time)","612748","Trustworthy,Untrustworthy","","1489","","","","rating","","trustrating_stim/white_mw053.bmp","4","","","","","","","","","","",""
"image-keyboard-response","104","142751","0.0-6.0-2.49","602b3ed14ae791260d6d12c5","bdp_trlrn","Mon Mar 13 2023 14:04:39 GMT-0400 (Eastern Daylight Time)","612748","Trustworthy,Untrustworthy","","null","","","","ratingFB","","trustrating_stim/white_mw053.bmp","null","","","","","","","","","","",""
"image-keyboard-response","105","144248","0.0-6.0-1.50","602b3ed14ae791260d6d12c5","bdp_trlrn","Mon Mar 13 2023 14:04:39 GMT-0400 (Eastern Daylight Time)","612748","Trustworthy,Untrustworthy","","1391","","","","rating","","trustrating_stim/white_00602_940928_fb_edt.bmp","6","","","","","","","","","","",""
"image-keyboard-response","106","144465","0.0-6.0-2.50","602b3ed14ae791260d6d12c5","bdp_trlrn","Mon Mar 13 2023 14:04:39 GMT-0400 (Eastern Daylight Time)","612748","Trustworthy,Untrustworthy","","null","","","","ratingFB","","trustrating_stim/white_00602_940928_fb_edt.bmp","null","","","","","","","","","","",""
"image-keyboard-response","107","148043","0.0-6.0-1.51","602b3ed14ae791260d6d12c5","bdp_trlrn","Mon Mar 13 2023 14:04:39 GMT-0400 (Eastern Daylight Time)","612748","Trustworthy,Untrustworthy","","3472","","","","rating","","trustrating_stim/white_00109_931230_fa_edt.bmp","2","","","","","","","","","","",""
"image-keyboard-response","108","148260","0.0-6.0-2.51","602b3ed14ae791260d6d12c5","bdp_trlrn","Mon Mar 13 2023 14:04:39 GMT-0400 (Eastern Daylight Time)","612748","Trustworthy,Untrustworthy","","null","","","","ratingFB","","trustrating_stim/white_00109_931230_fa_edt.bmp","null","","","","","","","","","","",""
"image-keyboard-response","109","150039","0.0-6.0-1.52","602b3ed14ae791260d6d12c5","bdp_trlrn","Mon Mar 13 2023 14:04:39 GMT-0400 (Eastern Daylight Time)","612748","Trustworthy,Untrustworthy","","1671","","","","rating","","trustrating_stim/white_mw084.bmp","5","","","","","","","","","","",""
"image-keyboard-response","110","150244","0.0-6.0-2.52","602b3ed14ae791260d6d12c5","bdp_trlrn","Mon Mar 13 2023 14:04:39 GMT-0400 (Eastern Daylight Time)","612748","Trustworthy,Untrustworthy","","null","","","","ratingFB","","trustrating_stim/white_mw084.bmp","null","","","","","","","","","","",""
"image-keyboard-response","111","162522","0.0-6.0-1.53","602b3ed14ae791260d6d12c5","bdp_trlrn","Mon Mar 13 2023 14:04:39 GMT-0400 (Eastern Daylight Time)","612748","Trustworthy,Untrustworthy","","12157","","","","rating","","trustrating_stim/white_00299_940422_fa_edt.bmp","5","","","","","","","","","","",""
"image-keyboard-response","112","162732","0.0-6.0-2.53","602b3ed14ae791260d6d12c5","bdp_trlrn","Mon Mar 13 2023 14:04:39 GMT-0400 (Eastern Daylight Time)","612748","Trustworthy,Untrustworthy","","null","","","","ratingFB","","trustrating_stim/white_00299_940422_fa_edt.bmp","null","","","","","","","","","","",""
"image-keyboard-response","113","165754","0.0-6.0-1.54","602b3ed14ae791260d6d12c5","bdp_trlrn","Mon Mar 13 2023 14:04:39 GMT-0400 (Eastern Daylight Time)","612748","Trustworthy,Untrustworthy","","2915","","","","rating","","trustrating_stim/white_mw066.bmp","6","","","","","","","","","","",""
"image-keyboard-response","114","165963","0.0-6.0-2.54","602b3ed14ae791260d6d12c5","bdp_trlrn","Mon Mar 13 2023 14:04:39 GMT-0400 (Eastern Daylight Time)","612748","Trustworthy,Untrustworthy","","null","","","","ratingFB","","trustrating_stim/white_mw066.bmp","null","","","","","","","","","","",""
"image-keyboard-response","115","167286","0.0-6.0-1.55","602b3ed14ae791260d6d12c5","bdp_trlrn","Mon Mar 13 2023 14:04:39 GMT-0400 (Eastern Daylight Time)","612748","Trustworthy,Untrustworthy","","1203","","","","rating","","trustrating_stim/white_mw035.bmp","6","","","","","","","","","","",""
"image-keyboard-response","116","167495","0.0-6.0-2.55","602b3ed14ae791260d6d12c5","bdp_trlrn","Mon Mar 13 2023 14:04:39 GMT-0400 (Eastern Daylight Time)","612748","Trustworthy,Untrustworthy","","null","","","","ratingFB","","trustrating_stim/white_mw035.bmp","null","","","","","","","","","","",""
"image-keyboard-response","117","168954","0.0-6.0-1.56","602b3ed14ae791260d6d12c5","bdp_trlrn","Mon Mar 13 2023 14:04:39 GMT-0400 (Eastern Daylight Time)","612748","Trustworthy,Untrustworthy","","1338","","","","rating","","trustrating_stim/white_mw033.bmp","5","","","","","","","","","","",""
"image-keyboard-response","118","169159","0.0-6.0-2.56","602b3ed14ae791260d6d12c5","bdp_trlrn","Mon Mar 13 2023 14:04:39 GMT-0400 (Eastern Daylight Time)","612748","Trustworthy,Untrustworthy","","null","","","","ratingFB","","trustrating_stim/white_mw033.bmp","null","","","","","","","","","","",""
"image-keyboard-response","119","170792","0.0-6.0-1.57","602b3ed14ae791260d6d12c5","bdp_trlrn","Mon Mar 13 2023 14:04:39 GMT-0400 (Eastern Daylight Time)","612748","Trustworthy,Untrustworthy","","1527","","","","rating","","trustrating_stim/white_mw063.bmp","2","","","","","","","","","","",""
"image-keyboard-response","120","171006","0.0-6.0-2.57","602b3ed14ae791260d6d12c5","bdp_trlrn","Mon Mar 13 2023 14:04:39 GMT-0400 (Eastern Daylight Time)","612748","Trustworthy,Untrustworthy","","null","","","","ratingFB","","trustrating_stim/white_mw063.bmp","null","","","","","","","","","","",""
"image-keyboard-response","121","172874","0.0-6.0-1.58","602b3ed14ae791260d6d12c5","bdp_trlrn","Mon Mar 13 2023 14:04:39 GMT-0400 (Eastern Daylight Time)","612748","Trustworthy,Untrustworthy","","1761","","","","rating","","trustrating_stim/white_00785_941205_fb_edt.bmp","3","","","","","","","","","","",""
"image-keyboard-response","122","173089","0.0-6.0-2.58","602b3ed14ae791260d6d12c5","bdp_trlrn","Mon Mar 13 2023 14:04:39 GMT-0400 (Eastern Daylight Time)","612748","Trustworthy,Untrustworthy","","null","","","","ratingFB","","trustrating_stim/white_00785_941205_fb_edt.bmp","null","","","","","","","","","","",""
"image-keyboard-response","123","174712","0.0-6.0-1.59","602b3ed14ae791260d6d12c5","bdp_trlrn","Mon Mar 13 2023 14:04:39 GMT-0400 (Eastern Daylight Time)","612748","Trustworthy,Untrustworthy","","1516","","","","rating","","trustrating_stim/white_mw048.bmp","2","","","","","","","","","","",""
"image-keyboard-response","124","174921","0.0-6.0-2.59","602b3ed14ae791260d6d12c5","bdp_trlrn","Mon Mar 13 2023 14:04:39 GMT-0400 (Eastern Daylight Time)","612748","Trustworthy,Untrustworthy","","null","","","","ratingFB","","trustrating_stim/white_mw048.bmp","null","","","","","","","","","","",""
"instructions","125","176606","0.0-7.0","602b3ed14ae791260d6d12c5","bdp_trlrn","Mon Mar 13 2023 14:04:39 GMT-0400 (Eastern Daylight Time)","612748","Trustworthy,Untrustworthy","[{""page_index"":0,""viewing_time"":1579}]","1580","","","","","","","","","","","","","","","","","",""
"instructions","126","243531","0.0-8.0","602b3ed14ae791260d6d12c5","bdp_trlrn","Mon Mar 13 2023 14:04:39 GMT-0400 (Eastern Daylight Time)","612748","Trustworthy,Untrustworthy","[{""page_index"":0,""viewing_time"":10139},{""page_index"":1,""viewing_time"":8892},{""page_index"":2,""viewing_time"":7817},{""page_index"":3,""viewing_time"":7743},{""page_index"":4,""viewing_time"":11615},{""page_index"":5,""viewing_time"":5712},{""page_index"":6,""viewing_time"":9781},{""page_index"":7,""viewing_time"":5123}]","66823","","","","","","","","","","","","","","","","","",""
"html-keyboard-response","127","247935","0.0-9.0","602b3ed14ae791260d6d12c5","bdp_trlrn","Mon Mar 13 2023 14:04:39 GMT-0400 (Eastern Daylight Time)","612748","Trustworthy,Untrustworthy","","4400","","","","","","<div class='header' style='text-align:left; position: absolute; top: 5%; left: 5%;'><small>Task 2 of 5</small></div><div class='instruxDiv'><p><strong>1) What is the minimum number of points you can choose to send to your partner?</strong></p><p>a) 0</p><p>b) 1</p><p>c) 5</p>","C","","","","","","","","","","",""
"html-keyboard-response","128","254204","0.0-10.0","602b3ed14ae791260d6d12c5","bdp_trlrn","Mon Mar 13 2023 14:04:39 GMT-0400 (Eastern Daylight Time)","612748","Trustworthy,Untrustworthy","","6154","","","","","","<div class='header' style='text-align:left; position: absolute; top: 5%; left: 5%;'><small>Task 2 of 5</small></div><div class='instruxDiv'><p><strong>1) What is the minimum number of points you can choose to send to your partner?</strong></p><p>a) 1</p><p>b) 1</p><p style='color:#FF0000'>c) 5</p><h3 style='color:#FF0000'>Incorrect!</h3><h3 class='center-content'>The correct response is b).</h3><h3 class='center-content'>The minimum number of points you can choose to send to your partner is 1 point.</h3><p><em>Press SPACEBAR to continue</em></p></div>"," ","","","","","","","","","","",""
"html-keyboard-response","129","259031","0.0-11.0","602b3ed14ae791260d6d12c5","bdp_trlrn","Mon Mar 13 2023 14:04:39 GMT-0400 (Eastern Daylight Time)","612748","Trustworthy,Untrustworthy","","4709","","","","","","<div class='header' style='text-align:left; position: absolute; top: 5%; left: 5%;'><small>Task 2 of 5</small></div><div class='instruxDiv'><p><strong>2) What is the maximum number of points you can choose to send to your partner?</strong></p><p>a) 8</p><p>b) 5</p><p>c) 3</p>","B","","","","","","","","","","",""
"html-keyboard-response","130","260362","0.0-12.0","602b3ed14ae791260d6d12c5","bdp_trlrn","Mon Mar 13 2023 14:04:39 GMT-0400 (Eastern Daylight Time)","612748","Trustworthy,Untrustworthy","","1225","","","","","","<div class='header' style='text-align:left; position: absolute; top: 5%; left: 5%;'><small>Task 2 of 5</small></div><div class='instruxDiv'><p><strong>2) What is the maximum number of points you can choose to send to your partner?</strong></p><p>a) 8</p><p style='color:#00FF00'>b) 5</p><p>c) 3</p><h3 style='color:#00FF00'>Correct!</h3><h3 class='center-content'>The correct response is b).</h3><h3 class='center-content'>The maximum number of points you can choose to send to your partner is 5 points.</h3><p><em>Press SPACEBAR to continue</em></p></div>"," ","","","","","","","","","","",""
"html-keyboard-response","131","263609","0.0-13.0","602b3ed14ae791260d6d12c5","bdp_trlrn","Mon Mar 13 2023 14:04:39 GMT-0400 (Eastern Daylight Time)","612748","Trustworthy,Untrustworthy","","3140","","","","","","<div class='header' style='text-align:left; position: absolute; top: 5%; left: 5%;'><small>Task 2 of 5</small></div><div class='instruxDiv'><p><strong>3) What happens to the amount of points you send to your partner?</strong></p><p>a) Nothing</p><p>b) It doubles</p><p>c) It quadruples</p>","C","","","","","","","","","","",""
"html-keyboard-response","132","264852","0.0-14.0","602b3ed14ae791260d6d12c5","bdp_trlrn","Mon Mar 13 2023 14:04:39 GMT-0400 (Eastern Daylight Time)","612748","Trustworthy,Untrustworthy","","1136","","","","","","<div class='header' style='text-align:left; position: absolute; top: 5%; left: 5%;'><small>Task 2 of 5</small></div><div class='instruxDiv'><p><strong>3) What happens to the amount of points you send to your partner?</strong></p><p>a) Nothing</p><p>b) It doubles</p><p style='color:#00FF00'>c) It quadruples</p><h3 style='color:#00FF00'>Correct!</h3><h3 class='center-content'>The correct response is c).</h3><h3 class='center-content'>The amount of points you send to your partner quadruples.</h3><p><em>Press SPACEBAR to continue</em></p></div>"," ","","","","","","","","","","",""
"html-keyboard-response","133","292783","0.0-15.0","602b3ed14ae791260d6d12c5","bdp_trlrn","Mon Mar 13 2023 14:04:39 GMT-0400 (Eastern Daylight Time)","612748","Trustworthy,Untrustworthy","","27820","","","","","","<div class='header' style='text-align:left; position: absolute; top: 5%; left: 5%;'><small>Task 2 of 5</small></div><div class='instruxDiv'><p><strong>4) If you decided to share 4 out of 5 points with your partner, and they decided to share half of the amount they received with you, how many points would you receive back from them on this round?</strong></p><p>a) 16</p><p>b) 0</p><p>c) 8</p>","C","","","","","","","","","","",""
"html-keyboard-response","134","296194","0.0-16.0","602b3ed14ae791260d6d12c5","bdp_trlrn","Mon Mar 13 2023 14:04:39 GMT-0400 (Eastern Daylight Time)","612748","Trustworthy,Untrustworthy","","3308","","","","","","<div class='header' style='text-align:left; position: absolute; top: 5%; left: 5%;'><small>Task 2 of 5</small></div><div class='instruxDiv'><p><strong>4) If you decided to share 4 out of 5 points with your partner, and they decided to share half of the amount they received with you, how many points would you receive back from them on this round?</strong></p><p>a) 16</p><p>b) 0</p><p style='color:#00FF00'>c) 8</p><h3 style='color:#00FF00'>Correct!</h3><h3 class='center-content'>The correct response is c).</h3><h3 class='center-content'>If you shared 4 out of 5 points with your partner and they decided to share half of the amount they received with you, you would receive 8 points back (i.e. (4 x 4)/2 = 8).</h3><p><em>Press SPACEBAR to continue</em></p></div>"," ","","","","","","","","","","",""
"html-keyboard-response","135","301314","0.0-17.0","602b3ed14ae791260d6d12c5","bdp_trlrn","Mon Mar 13 2023 14:04:39 GMT-0400 (Eastern Daylight Time)","612748","Trustworthy,Untrustworthy","","null","","","","","","<div class='header' style='text-align:left; position: absolute; top: 5%; left: 5%;'><small>Task 2 of 5</small></div><div class='instruxDiv'><p>Thank you for completing the quiz<p>These are the actual partners you will be interacting with in the next block:<p><div class='tc' align='center'><img class='introPic' src='trustrating_stim/white_00340_940422_fa_edt.bmp'><br><strong>Devin</strong></div><div class='bl' align='center'><img class='introPic' src='trustrating_stim/white_mw053.bmp'><br><strong>Marcus</strong></div><div class='br' align='center'><img class='introPic' src='trustrating_stim/white_00898_960530_fa_edt.bmp'><br><strong>Caleb</strong></div></div><p>Across <strong>66 rounds</strong> you will interact with each partner <strong>22 times</strong> (in random order).<p style='align:center; color:white'><font <em>Press SPACEBAR to continue</em></p>","null","","","","","","","","","","",""
"instructions","136","306303","0.0-18.0","602b3ed14ae791260d6d12c5","bdp_trlrn","Mon Mar 13 2023 14:04:39 GMT-0400 (Eastern Daylight Time)","612748","Trustworthy,Untrustworthy","[{""page_index"":0,""viewing_time"":2930},{""page_index"":1,""viewing_time"":2056}]","4987","","","","","","","","","","","","","","","","","",""
"html-keyboard-response","137","310955","0.0-19.0-1.0","602b3ed14ae791260d6d12c5","bdp_trlrn","Mon Mar 13 2023 14:04:39 GMT-0400 (Eastern Daylight Time)","612748","Trustworthy,Untrustworthy","","4542","","","","decision","","<div class='trialDiv'><img src='trustrating_stim/white_00898_960530_fa_edt.bmp'><br><font class='baseline'><strong>Caleb</strong><p>Choose number of points to send.</font><div class='respPicDiv'><img src='img/responseButtonOffersNo0L.png' class='respPic'></div></div>","1","1","Caleb","10","Kept","0.35,0.65","14","0.35","trustrating_stim/white_00898_960530_fa_edt.bmp","6.5","5","1"
"html-keyboard-response","138","311222","0.0-19.0-2.0","602b3ed14ae791260d6d12c5","bdp_trlrn","Mon Mar 13 2023 14:04:39 GMT-0400 (Eastern Daylight Time)","612748","Trustworthy,Untrustworthy","","null","","","","decisionFB","","<div class='trialDiv'><img src='trustrating_stim/white_00898_960530_fa_edt.bmp'><br><font class='baseline'><strong>Caleb</strong><p>Choose number of points to send.</font><div class='respPicDiv'><img src='img/responseButtonOffersNo0L1.png' class='respPic'></div></div>","null","1","Caleb","10","Kept","0.35,0.65","14","0.35","trustrating_stim/white_00898_960530_fa_edt.bmp","6.5","4","1"
"html-keyboard-response","139","312225","0.0-19.0-3.0","602b3ed14ae791260d6d12c5","bdp_trlrn","Mon Mar 13 2023 14:04:39 GMT-0400 (Eastern Daylight Time)","612748","Trustworthy,Untrustworthy","","null","","","","feedback","","<div class='trialDiv'><img src='trustrating_stim/white_00898_960530_fa_edt.bmp'><br><font class='baseline'><strong>Caleb</strong><p>Received: <strong>4</strong></font> &nbsp; &nbsp; &nbsp; &nbsp; &nbsp; &nbsp;<font class='negOutcome'>Shared back: <strong>0</strong></font></font><div class='respPicDiv'><img src='img/responseButtonOffersNo0_wht.png' class='respPic'></div></div>","null","1","Caleb","10","Kept","0.35,0.65","14","0.35","trustrating_stim/white_00898_960530_fa_edt.bmp","6.5","4","1"
"html-keyboard-response","140","316695","0.0-19.0-1.1","602b3ed14ae791260d6d12c5","bdp_trlrn","Mon Mar 13 2023 14:04:39 GMT-0400 (Eastern Daylight Time)","612748","Trustworthy,Untrustworthy","","4467","","","","decision","","<div class='trialDiv'><img src='trustrating_stim/white_mw053.bmp'><br><font class='baseline'><strong>Marcus</strong><p>Choose number of points to send.</font><div class='respPicDiv'><img src='img/responseButtonOffersNo0L.png' class='respPic'></div></div>","3","1","Marcus","5","Kept","0.2,0.65","8","0.2","trustrating_stim/white_mw053.bmp","3.5","9","2"
"html-keyboard-response","141","316955","0.0-19.0-2.1","602b3ed14ae791260d6d12c5","bdp_trlrn","Mon Mar 13 2023 14:04:39 GMT-0400 (Eastern Daylight Time)","612748","Trustworthy,Untrustworthy","","null","","","","decisionFB","","<div class='trialDiv'><img src='trustrating_stim/white_mw053.bmp'><br><font class='baseline'><strong>Marcus</strong><p>Choose number of points to send.</font><div class='respPicDiv'><img src='img/responseButtonOffersNo0L3.png' class='respPic'></div></div>","null","1","Marcus","5","Kept","0.2,0.65","8","0.2","trustrating_stim/white_mw053.bmp","3.5","6","2"
"html-keyboard-response","142","317971","0.0-19.0-3.1","602b3ed14ae791260d6d12c5","bdp_trlrn","Mon Mar 13 2023 14:04:39 GMT-0400 (Eastern Daylight Time)","612748","Trustworthy,Untrustworthy","","null","","","","feedback","","<div class='trialDiv'><img src='trustrating_stim/white_mw053.bmp'><br><font class='baseline'><strong>Marcus</strong><p>Received: <strong>12</strong></font> &nbsp; &nbsp; &nbsp; &nbsp; &nbsp; &nbsp;<font class='negOutcome'>Shared back: <strong>0</strong></font></font><div class='respPicDiv'><img src='img/responseButtonOffersNo0_wht.png' class='respPic'></div></div>","null","1","Marcus","5","Kept","0.2,0.65","8","0.2","trustrating_stim/white_mw053.bmp","3.5","6","2"
"html-keyboard-response","143","321304","0.0-19.0-1.2","602b3ed14ae791260d6d12c5","bdp_trlrn","Mon Mar 13 2023 14:04:39 GMT-0400 (Eastern Daylight Time)","612748","Trustworthy,Untrustworthy","","3330","","","","decision","","<div class='trialDiv'><img src='trustrating_stim/white_00340_940422_fa_edt.bmp'><br><font class='baseline'><strong>Devin</strong><p>Choose number of points to send.</font><div class='respPicDiv'><img src='img/responseButtonOffersNo0L.png' class='respPic'></div></div>","1","1","Devin","2","Shared","0.8,0.35","13","0.8","trustrating_stim/white_00340_940422_fa_edt.bmp","1","11","3"
"html-keyboard-response","144","321562","0.0-19.0-2.2","602b3ed14ae791260d6d12c5","bdp_trlrn","Mon Mar 13 2023 14:04:39 GMT-0400 (Eastern Daylight Time)","612748","Trustworthy,Untrustworthy","","null","","","","decisionFB","","<div class='trialDiv'><img src='trustrating_stim/white_00340_940422_fa_edt.bmp'><br><font class='baseline'><strong>Devin</strong><p>Choose number of points to send.</font><div class='respPicDiv'><img src='img/responseButtonOffersNo0L1.png' class='respPic'></div></div>","null","1","Devin","2","Shared","0.8,0.35","13","0.8","trustrating_stim/white_00340_940422_fa_edt.bmp","1","10","3"
"html-keyboard-response","145","322567","0.0-19.0-3.2","602b3ed14ae791260d6d12c5","bdp_trlrn","Mon Mar 13 2023 14:04:39 GMT-0400 (Eastern Daylight Time)","612748","Trustworthy,Untrustworthy","","null","","","","feedback","","<div class='trialDiv'><img src='trustrating_stim/white_00340_940422_fa_edt.bmp'><br><font class='baseline'><strong>Devin</strong><p>Received: <strong>4</strong></font> &nbsp; &nbsp; &nbsp; &nbsp; &nbsp; &nbsp;<font class='posOutcome'>Shared back: <strong>2</strong></font></font><div class='respPicDiv'><img src='img/responseButtonOffersNo0_wht.png' class='respPic'></div></div>","null","1","Devin","2","Shared","0.8,0.35","13","0.8","trustrating_stim/white_00340_940422_fa_edt.bmp","1","12","3"
"html-keyboard-response","146","325121","0.0-19.0-1.3","602b3ed14ae791260d6d12c5","bdp_trlrn","Mon Mar 13 2023 14:04:39 GMT-0400 (Eastern Daylight Time)","612748","Trustworthy,Untrustworthy","","2552","","","","decision","","<div class='trialDiv'><img src='trustrating_stim/white_00898_960530_fa_edt.bmp'><br><font class='baseline'><strong>Caleb</strong><p>Choose number of points to send.</font><div class='respPicDiv'><img src='img/responseButtonOffersNo0L.png' class='respPic'></div></div>","3","2","Caleb","10","Shared","0.35,0.65","14","0.35","trustrating_stim/white_00898_960530_fa_edt.bmp","6.5","17","4"
"html-keyboard-response","147","325377","0.0-19.0-2.3","602b3ed14ae791260d6d12c5","bdp_trlrn","Mon Mar 13 2023 14:04:39 GMT-0400 (Eastern Daylight Time)","612748","Trustworthy,Untrustworthy","","null","","","","decisionFB","","<div class='trialDiv'><img src='trustrating_stim/white_00898_960530_fa_edt.bmp'><br><font class='baseline'><strong>Caleb</strong><p>Choose number of points to send.</font><div class='respPicDiv'><img src='img/responseButtonOffersNo0L3.png' class='respPic'></div></div>","null","2","Caleb","10","Shared","0.35,0.65","14","0.35","trustrating_stim/white_00898_960530_fa_edt.bmp","6.5","14","4"
"html-keyboard-response","148","326381","0.0-19.0-3.3","602b3ed14ae791260d6d12c5","bdp_trlrn","Mon Mar 13 2023 14:04:39 GMT-0400 (Eastern Daylight Time)","612748","Trustworthy,Untrustworthy","","null","","","","feedback","","<div class='trialDiv'><img src='trustrating_stim/white_00898_960530_fa_edt.bmp'><br><font class='baseline'><strong>Caleb</strong><p>Received: <strong>12</strong></font> &nbsp; &nbsp; &nbsp; &nbsp; &nbsp; &nbsp;<font class='posOutcome'>Shared back: <strong>6</strong></font></font><div class='respPicDiv'><img src='img/responseButtonOffersNo0_wht.png' class='respPic'></div></div>","null","2","Caleb","10","Shared","0.35,0.65","14","0.35","trustrating_stim/white_00898_960530_fa_edt.bmp","6.5","20","4"
"html-keyboard-response","149","328845","0.0-19.0-1.4","602b3ed14ae791260d6d12c5","bdp_trlrn","Mon Mar 13 2023 14:04:39 GMT-0400 (Eastern Daylight Time)","612748","Trustworthy,Untrustworthy","","2461","","","","decision","","<div class='trialDiv'><img src='trustrating_stim/white_mw053.bmp'><br><font class='baseline'><strong>Marcus</strong><p>Choose number of points to send.</font><div class='respPicDiv'><img src='img/responseButtonOffersNo0L.png' class='respPic'></div></div>","1","2","Marcus","5","Kept","0.2,0.65","8","0.2","trustrating_stim/white_mw053.bmp","3.5","25","5"
"html-keyboard-response","150","329107","0.0-19.0-2.4","602b3ed14ae791260d6d12c5","bdp_trlrn","Mon Mar 13 2023 14:04:39 GMT-0400 (Eastern Daylight Time)","612748","Trustworthy,Untrustworthy","","null","","","","decisionFB","","<div class='trialDiv'><img src='trustrating_stim/white_mw053.bmp'><br><font class='baseline'><strong>Marcus</strong><p>Choose number of points to send.</font><div class='respPicDiv'><img src='img/responseButtonOffersNo0L1.png' class='respPic'></div></div>","null","2","Marcus","5","Kept","0.2,0.65","8","0.2","trustrating_stim/white_mw053.bmp","3.5","24","5"
"html-keyboard-response","151","330125","0.0-19.0-3.4","602b3ed14ae791260d6d12c5","bdp_trlrn","Mon Mar 13 2023 14:04:39 GMT-0400 (Eastern Daylight Time)","612748","Trustworthy,Untrustworthy","","null","","","","feedback","","<div class='trialDiv'><img src='trustrating_stim/white_mw053.bmp'><br><font class='baseline'><strong>Marcus</strong><p>Received: <strong>4</strong></font> &nbsp; &nbsp; &nbsp; &nbsp; &nbsp; &nbsp;<font class='negOutcome'>Shared back: <strong>0</strong></font></font><div class='respPicDiv'><img src='img/responseButtonOffersNo0_wht.png' class='respPic'></div></div>","null","2","Marcus","5","Kept","0.2,0.65","8","0.2","trustrating_stim/white_mw053.bmp","3.5","24","5"
"html-keyboard-response","152","331722","0.0-19.0-1.5","602b3ed14ae791260d6d12c5","bdp_trlrn","Mon Mar 13 2023 14:04:39 GMT-0400 (Eastern Daylight Time)","612748","Trustworthy,Untrustworthy","","1594","","","","decision","","<div class='trialDiv'><img src='trustrating_stim/white_00340_940422_fa_edt.bmp'><br><font class='baseline'><strong>Devin</strong><p>Choose number of points to send.</font><div class='respPicDiv'><img src='img/responseButtonOffersNo0L.png' class='respPic'></div></div>","2","2","Devin","2","Shared","0.8,0.35","13","0.8","trustrating_stim/white_00340_940422_fa_edt.bmp","1","29","6"
"html-keyboard-response","153","331987","0.0-19.0-2.5","602b3ed14ae791260d6d12c5","bdp_trlrn","Mon Mar 13 2023 14:04:39 GMT-0400 (Eastern Daylight Time)","612748","Trustworthy,Untrustworthy","","null","","","","decisionFB","","<div class='trialDiv'><img src='trustrating_stim/white_00340_940422_fa_edt.bmp'><br><font class='baseline'><strong>Devin</strong><p>Choose number of points to send.</font><div class='respPicDiv'><img src='img/responseButtonOffersNo0L2.png' class='respPic'></div></div>","null","2","Devin","2","Shared","0.8,0.35","13","0.8","trustrating_stim/white_00340_940422_fa_edt.bmp","1","27","6"
"html-keyboard-response","154","332991","0.0-19.0-3.5","602b3ed14ae791260d6d12c5","bdp_trlrn","Mon Mar 13 2023 14:04:39 GMT-0400 (Eastern Daylight Time)","612748","Trustworthy,Untrustworthy","","null","","","","feedback","","<div class='trialDiv'><img src='trustrating_stim/white_00340_940422_fa_edt.bmp'><br><font class='baseline'><strong>Devin</strong><p>Received: <strong>8</strong></font> &nbsp; &nbsp; &nbsp; &nbsp; &nbsp; &nbsp;<font class='posOutcome'>Shared back: <strong>4</strong></font></font><div class='respPicDiv'><img src='img/responseButtonOffersNo0_wht.png' class='respPic'></div></div>","null","2","Devin","2","Shared","0.8,0.35","13","0.8","trustrating_stim/white_00340_940422_fa_edt.bmp","1","31","6"
"html-keyboard-response","155","334704","0.0-19.0-1.6","602b3ed14ae791260d6d12c5","bdp_trlrn","Mon Mar 13 2023 14:04:39 GMT-0400 (Eastern Daylight Time)","612748","Trustworthy,Untrustworthy","","1709","","","","decision","","<div class='trialDiv'><img src='trustrating_stim/white_00898_960530_fa_edt.bmp'><br><font class='baseline'><strong>Caleb</strong><p>Choose number of points to send.</font><div class='respPicDiv'><img src='img/responseButtonOffersNo0L.png' class='respPic'></div></div>","4","3","Caleb","10","Kept","0.35,0.65","14","0.35","trustrating_stim/white_00898_960530_fa_edt.bmp","6.5","36","7"
"html-keyboard-response","156","334970","0.0-19.0-2.6","602b3ed14ae791260d6d12c5","bdp_trlrn","Mon Mar 13 2023 14:04:39 GMT-0400 (Eastern Daylight Time)","612748","Trustworthy,Untrustworthy","","null","","","","decisionFB","","<div class='trialDiv'><img src='trustrating_stim/white_00898_960530_fa_edt.bmp'><br><font class='baseline'><strong>Caleb</strong><p>Choose number of points to send.</font><div class='respPicDiv'><img src='img/responseButtonOffersNo0L4.png' class='respPic'></div></div>","null","3","Caleb","10","Kept","0.35,0.65","14","0.35","trustrating_stim/white_00898_960530_fa_edt.bmp","6.5","32","7"
"html-keyboard-response","157","335988","0.0-19.0-3.6","602b3ed14ae791260d6d12c5","bdp_trlrn","Mon Mar 13 2023 14:04:39 GMT-0400 (Eastern Daylight Time)","612748","Trustworthy,Untrustworthy","","null","","","","feedback","","<div class='trialDiv'><img src='trustrating_stim/white_00898_960530_fa_edt.bmp'><br><font class='baseline'><strong>Caleb</strong><p>Received: <strong>16</strong></font> &nbsp; &nbsp; &nbsp; &nbsp; &nbsp; &nbsp;<font class='negOutcome'>Shared back: <strong>0</strong></font></font><div class='respPicDiv'><img src='img/responseButtonOffersNo0_wht.png' class='respPic'></div></div>","null","3","Caleb","10","Kept","0.35,0.65","14","0.35","trustrating_stim/white_00898_960530_fa_edt.bmp","6.5","32","7"
"html-keyboard-response","158","337403","0.0-19.0-1.7","602b3ed14ae791260d6d12c5","bdp_trlrn","Mon Mar 13 2023 14:04:39 GMT-0400 (Eastern Daylight Time)","612748","Trustworthy,Untrustworthy","","1412","","","","decision","","<div class='trialDiv'><img src='trustrating_stim/white_mw053.bmp'><br><font class='baseline'><strong>Marcus</strong><p>Choose number of points to send.</font><div class='respPicDiv'><img src='img/responseButtonOffersNo0L.png' class='respPic'></div></div>","2","3","Marcus","5","Kept","0.2,0.65","8","0.2","trustrating_stim/white_mw053.bmp","3.5","37","8"
"html-keyboard-response","159","337664","0.0-19.0-2.7","602b3ed14ae791260d6d12c5","bdp_trlrn","Mon Mar 13 2023 14:04:39 GMT-0400 (Eastern Daylight Time)","612748","Trustworthy,Untrustworthy","","null","","","","decisionFB","","<div class='trialDiv'><img src='trustrating_stim/white_mw053.bmp'><br><font class='baseline'><strong>Marcus</strong><p>Choose number of points to send.</font><div class='respPicDiv'><img src='img/responseButtonOffersNo0L2.png' class='respPic'></div></div>","null","3","Marcus","5","Kept","0.2,0.65","8","0.2","trustrating_stim/white_mw053.bmp","3.5","35","8"
"html-keyboard-response","160","338668","0.0-19.0-3.7","602b3ed14ae791260d6d12c5","bdp_trlrn","Mon Mar 13 2023 14:04:39 GMT-0400 (Eastern Daylight Time)","612748","Trustworthy,Untrustworthy","","null","","","","feedback","","<div class='trialDiv'><img src='trustrating_stim/white_mw053.bmp'><br><font class='baseline'><strong>Marcus</strong><p>Received: <strong>8</strong></font> &nbsp; &nbsp; &nbsp; &nbsp; &nbsp; &nbsp;<font class='negOutcome'>Shared back: <strong>0</strong></font></font><div class='respPicDiv'><img src='img/responseButtonOffersNo0_wht.png' class='respPic'></div></div>","null","3","Marcus","5","Kept","0.2,0.65","8","0.2","trustrating_stim/white_mw053.bmp","3.5","35","8"
"html-keyboard-response","161","339465","0.0-19.0-1.8","602b3ed14ae791260d6d12c5","bdp_trlrn","Mon Mar 13 2023 14:04:39 GMT-0400 (Eastern Daylight Time)","612748","Trustworthy,Untrustworthy","","795","","","","decision","","<div class='trialDiv'><img src='trustrating_stim/white_00340_940422_fa_edt.bmp'><br><font class='baseline'><strong>Devin</strong><p>Choose number of points to send.</font><div class='respPicDiv'><img src='img/responseButtonOffersNo0L.png' class='respPic'></div></div>","2","3","Devin","2","Kept","0.8,0.35","13","0.8","trustrating_stim/white_00340_940422_fa_edt.bmp","1","40","9"
"html-keyboard-response","162","339728","0.0-19.0-2.8","602b3ed14ae791260d6d12c5","bdp_trlrn","Mon Mar 13 2023 14:04:39 GMT-0400 (Eastern Daylight Time)","612748","Trustworthy,Untrustworthy","","null","","","","decisionFB","","<div class='trialDiv'><img src='trustrating_stim/white_00340_940422_fa_edt.bmp'><br><font class='baseline'><strong>Devin</strong><p>Choose number of points to send.</font><div class='respPicDiv'><img src='img/responseButtonOffersNo0L2.png' class='respPic'></div></div>","null","3","Devin","2","Kept","0.8,0.35","13","0.8","trustrating_stim/white_00340_940422_fa_edt.bmp","1","38","9"
"html-keyboard-response","163","340733","0.0-19.0-3.8","602b3ed14ae791260d6d12c5","bdp_trlrn","Mon Mar 13 2023 14:04:39 GMT-0400 (Eastern Daylight Time)","612748","Trustworthy,Untrustworthy","","null","","","","feedback","","<div class='trialDiv'><img src='trustrating_stim/white_00340_940422_fa_edt.bmp'><br><font class='baseline'><strong>Devin</strong><p>Received: <strong>8</strong></font> &nbsp; &nbsp; &nbsp; &nbsp; &nbsp; &nbsp;<font class='negOutcome'>Shared back: <strong>0</strong></font></font><div class='respPicDiv'><img src='img/responseButtonOffersNo0_wht.png' class='respPic'></div></div>","null","3","Devin","2","Kept","0.8,0.35","13","0.8","trustrating_stim/white_00340_940422_fa_edt.bmp","1","38","9"
"html-keyboard-response","164","341273","0.0-19.0-1.9","602b3ed14ae791260d6d12c5","bdp_trlrn","Mon Mar 13 2023 14:04:39 GMT-0400 (Eastern Daylight Time)","612748","Trustworthy,Untrustworthy","","538","","","","decision","","<div class='trialDiv'><img src='trustrating_stim/white_mw053.bmp'><br><font class='baseline'><strong>Marcus</strong><p>Choose number of points to send.</font><div class='respPicDiv'><img src='img/responseButtonOffersNo0L.png' class='respPic'></div></div>","1","4","Marcus","5","Kept","0.2,0.65","8","0.2","trustrating_stim/white_mw053.bmp","3.5","43","10"
"html-keyboard-response","165","341529","0.0-19.0-2.9","602b3ed14ae791260d6d12c5","bdp_trlrn","Mon Mar 13 2023 14:04:39 GMT-0400 (Eastern Daylight Time)","612748","Trustworthy,Untrustworthy","","null","","","","decisionFB","","<div class='trialDiv'><img src='trustrating_stim/white_mw053.bmp'><br><font class='baseline'><strong>Marcus</strong><p>Choose number of points to send.</font><div class='respPicDiv'><img src='img/responseButtonOffersNo0L1.png' class='respPic'></div></div>","null","4","Marcus","5","Kept","0.2,0.65","8","0.2","trustrating_stim/white_mw053.bmp","3.5","42","10"
"html-keyboard-response","166","342533","0.0-19.0-3.9","602b3ed14ae791260d6d12c5","bdp_trlrn","Mon Mar 13 2023 14:04:39 GMT-0400 (Eastern Daylight Time)","612748","Trustworthy,Untrustworthy","","null","","","","feedback","","<div class='trialDiv'><img src='trustrating_stim/white_mw053.bmp'><br><font class='baseline'><strong>Marcus</strong><p>Received: <strong>4</strong></font> &nbsp; &nbsp; &nbsp; &nbsp; &nbsp; &nbsp;<font class='negOutcome'>Shared back: <strong>0</strong></font></font><div class='respPicDiv'><img src='img/responseButtonOffersNo0_wht.png' class='respPic'></div></div>","null","4","Marcus","5","Kept","0.2,0.65","8","0.2","trustrating_stim/white_mw053.bmp","3.5","42","10"
"html-keyboard-response","167","342834","0.0-19.0-1.10","602b3ed14ae791260d6d12c5","bdp_trlrn","Mon Mar 13 2023 14:04:39 GMT-0400 (Eastern Daylight Time)","612748","Trustworthy,Untrustworthy","","299","","","","decision","","<div class='trialDiv'><img src='trustrating_stim/white_00898_960530_fa_edt.bmp'><br><font class='baseline'><strong>Caleb</strong><p>Choose number of points to send.</font><div class='respPicDiv'><img src='img/responseButtonOffersNo0L.png' class='respPic'></div></div>","1","4","Caleb","10","Kept","0.35,0.65","14","0.35","trustrating_stim/white_00898_960530_fa_edt.bmp","6.5","47","11"
"html-keyboard-response","168","343092","0.0-19.0-2.10","602b3ed14ae791260d6d12c5","bdp_trlrn","Mon Mar 13 2023 14:04:39 GMT-0400 (Eastern Daylight Time)","612748","Trustworthy,Untrustworthy","","null","","","","decisionFB","","<div class='trialDiv'><img src='trustrating_stim/white_00898_960530_fa_edt.bmp'><br><font class='baseline'><strong>Caleb</strong><p>Choose number of points to send.</font><div class='respPicDiv'><img src='img/responseButtonOffersNo0L1.png' class='respPic'></div></div>","null","4","Caleb","10","Kept","0.35,0.65","14","0.35","trustrating_stim/white_00898_960530_fa_edt.bmp","6.5","46","11"
"html-keyboard-response","169","344097","0.0-19.0-3.10","602b3ed14ae791260d6d12c5","bdp_trlrn","Mon Mar 13 2023 14:04:39 GMT-0400 (Eastern Daylight Time)","612748","Trustworthy,Untrustworthy","","null","","","","feedback","","<div class='trialDiv'><img src='trustrating_stim/white_00898_960530_fa_edt.bmp'><br><font class='baseline'><strong>Caleb</strong><p>Received: <strong>4</strong></font> &nbsp; &nbsp; &nbsp; &nbsp; &nbsp; &nbsp;<font class='negOutcome'>Shared back: <strong>0</strong></font></font><div class='respPicDiv'><img src='img/responseButtonOffersNo0_wht.png' class='respPic'></div></div>","null","4","Caleb","10","Kept","0.35,0.65","14","0.35","trustrating_stim/white_00898_960530_fa_edt.bmp","6.5","46","11"
"html-keyboard-response","170","344385","0.0-19.0-1.11","602b3ed14ae791260d6d12c5","bdp_trlrn","Mon Mar 13 2023 14:04:39 GMT-0400 (Eastern Daylight Time)","612748","Trustworthy,Untrustworthy","","285","","","","decision","","<div class='trialDiv'><img src='trustrating_stim/white_00340_940422_fa_edt.bmp'><br><font class='baseline'><strong>Devin</strong><p>Choose number of points to send.</font><div class='respPicDiv'><img src='img/responseButtonOffersNo0L.png' class='respPic'></div></div>","1","4","Devin","2","Shared","0.8,0.35","13","0.8","trustrating_stim/white_00340_940422_fa_edt.bmp","1","51","12"
"html-keyboard-response","171","344643","0.0-19.0-2.11","602b3ed14ae791260d6d12c5","bdp_trlrn","Mon Mar 13 2023 14:04:39 GMT-0400 (Eastern Daylight Time)","612748","Trustworthy,Untrustworthy","","null","","","","decisionFB","","<div class='trialDiv'><img src='trustrating_stim/white_00340_940422_fa_edt.bmp'><br><font class='baseline'><strong>Devin</strong><p>Choose number of points to send.</font><div class='respPicDiv'><img src='img/responseButtonOffersNo0L1.png' class='respPic'></div></div>","null","4","Devin","2","Shared","0.8,0.35","13","0.8","trustrating_stim/white_00340_940422_fa_edt.bmp","1","50","12"
"html-keyboard-response","172","345660","0.0-19.0-3.11","602b3ed14ae791260d6d12c5","bdp_trlrn","Mon Mar 13 2023 14:04:39 GMT-0400 (Eastern Daylight Time)","612748","Trustworthy,Untrustworthy","","null","","","","feedback","","<div class='trialDiv'><img src='trustrating_stim/white_00340_940422_fa_edt.bmp'><br><font class='baseline'><strong>Devin</strong><p>Received: <strong>4</strong></font> &nbsp; &nbsp; &nbsp; &nbsp; &nbsp; &nbsp;<font class='posOutcome'>Shared back: <strong>2</strong></font></font><div class='respPicDiv'><img src='img/responseButtonOffersNo0_wht.png' class='respPic'></div></div>","null","4","Devin","2","Shared","0.8,0.35","13","0.8","trustrating_stim/white_00340_940422_fa_edt.bmp","1","52","12"
"html-keyboard-response","173","346375","0.0-19.0-1.12","602b3ed14ae791260d6d12c5","bdp_trlrn","Mon Mar 13 2023 14:04:39 GMT-0400 (Eastern Daylight Time)","612748","Trustworthy,Untrustworthy","","712","","","","decision","","<div class='trialDiv'><img src='trustrating_stim/white_00898_960530_fa_edt.bmp'><br><font class='baseline'><strong>Caleb</strong><p>Choose number of points to send.</font><div class='respPicDiv'><img src='img/responseButtonOffersNo0L.png' class='respPic'></div></div>","1","5","Caleb","10","Shared","0.35,0.65","14","0.35","trustrating_stim/white_00898_960530_fa_edt.bmp","6.5","57","13"
"html-keyboard-response","174","346638","0.0-19.0-2.12","602b3ed14ae791260d6d12c5","bdp_trlrn","Mon Mar 13 2023 14:04:39 GMT-0400 (Eastern Daylight Time)","612748","Trustworthy,Untrustworthy","","null","","","","decisionFB","","<div class='trialDiv'><img src='trustrating_stim/white_00898_960530_fa_edt.bmp'><br><font class='baseline'><strong>Caleb</strong><p>Choose number of points to send.</font><div class='respPicDiv'><img src='img/responseButtonOffersNo0L1.png' class='respPic'></div></div>","null","5","Caleb","10","Shared","0.35,0.65","14","0.35","trustrating_stim/white_00898_960530_fa_edt.bmp","6.5","56","13"
"html-keyboard-response","175","347643","0.0-19.0-3.12","602b3ed14ae791260d6d12c5","bdp_trlrn","Mon Mar 13 2023 14:04:39 GMT-0400 (Eastern Daylight Time)","612748","Trustworthy,Untrustworthy","","null","","","","feedback","","<div class='trialDiv'><img src='trustrating_stim/white_00898_960530_fa_edt.bmp'><br><font class='baseline'><strong>Caleb</strong><p>Received: <strong>4</strong></font> &nbsp; &nbsp; &nbsp; &nbsp; &nbsp; &nbsp;<font class='posOutcome'>Shared back: <strong>2</strong></font></font><div class='respPicDiv'><img src='img/responseButtonOffersNo0_wht.png' class='respPic'></div></div>","null","5","Caleb","10","Shared","0.35,0.65","14","0.35","trustrating_stim/white_00898_960530_fa_edt.bmp","6.5","58","13"
"html-keyboard-response","176","348010","0.0-19.0-1.13","602b3ed14ae791260d6d12c5","bdp_trlrn","Mon Mar 13 2023 14:04:39 GMT-0400 (Eastern Daylight Time)","612748","Trustworthy,Untrustworthy","","365","","","","decision","","<div class='trialDiv'><img src='trustrating_stim/white_mw053.bmp'><br><font class='baseline'><strong>Marcus</strong><p>Choose number of points to send.</font><div class='respPicDiv'><img src='img/responseButtonOffersNo0L.png' class='respPic'></div></div>","1","5","Marcus","5","Shared","0.2,0.65","8","0.2","trustrating_stim/white_mw053.bmp","3.5","63","14"
"html-keyboard-response","177","348273","0.0-19.0-2.13","602b3ed14ae791260d6d12c5","bdp_trlrn","Mon Mar 13 2023 14:04:39 GMT-0400 (Eastern Daylight Time)","612748","Trustworthy,Untrustworthy","","null","","","","decisionFB","","<div class='trialDiv'><img src='trustrating_stim/white_mw053.bmp'><br><font class='baseline'><strong>Marcus</strong><p>Choose number of points to send.</font><div class='respPicDiv'><img src='img/responseButtonOffersNo0L1.png' class='respPic'></div></div>","null","5","Marcus","5","Shared","0.2,0.65","8","0.2","trustrating_stim/white_mw053.bmp","3.5","62","14"
"html-keyboard-response","178","349291","0.0-19.0-3.13","602b3ed14ae791260d6d12c5","bdp_trlrn","Mon Mar 13 2023 14:04:39 GMT-0400 (Eastern Daylight Time)","612748","Trustworthy,Untrustworthy","","null","","","","feedback","","<div class='trialDiv'><img src='trustrating_stim/white_mw053.bmp'><br><font class='baseline'><strong>Marcus</strong><p>Received: <strong>4</strong></font> &nbsp; &nbsp; &nbsp; &nbsp; &nbsp; &nbsp;<font class='posOutcome'>Shared back: <strong>2</strong></font></font><div class='respPicDiv'><img src='img/responseButtonOffersNo0_wht.png' class='respPic'></div></div>","null","5","Marcus","5","Shared","0.2,0.65","8","0.2","trustrating_stim/white_mw053.bmp","3.5","64","14"
"html-keyboard-response","179","350758","0.0-19.0-1.14","602b3ed14ae791260d6d12c5","bdp_trlrn","Mon Mar 13 2023 14:04:39 GMT-0400 (Eastern Daylight Time)","612748","Trustworthy,Untrustworthy","","1465","","","","decision","","<div class='trialDiv'><img src='trustrating_stim/white_00340_940422_fa_edt.bmp'><br><font class='baseline'><strong>Devin</strong><p>Choose number of points to send.</font><div class='respPicDiv'><img src='img/responseButtonOffersNo0L.png' class='respPic'></div></div>","2","5","Devin","2","Shared","0.8,0.35","13","0.8","trustrating_stim/white_00340_940422_fa_edt.bmp","1","69","15"
"html-keyboard-response","180","351021","0.0-19.0-2.14","602b3ed14ae791260d6d12c5","bdp_trlrn","Mon Mar 13 2023 14:04:39 GMT-0400 (Eastern Daylight Time)","612748","Trustworthy,Untrustworthy","","null","","","","decisionFB","","<div class='trialDiv'><img src='trustrating_stim/white_00340_940422_fa_edt.bmp'><br><font class='baseline'><strong>Devin</strong><p>Choose number of points to send.</font><div class='respPicDiv'><img src='img/responseButtonOffersNo0L2.png' class='respPic'></div></div>","null","5","Devin","2","Shared","0.8,0.35","13","0.8","trustrating_stim/white_00340_940422_fa_edt.bmp","1","67","15"
"html-keyboard-response","181","352039","0.0-19.0-3.14","602b3ed14ae791260d6d12c5","bdp_trlrn","Mon Mar 13 2023 14:04:39 GMT-0400 (Eastern Daylight Time)","612748","Trustworthy,Untrustworthy","","null","","","","feedback","","<div class='trialDiv'><img src='trustrating_stim/white_00340_940422_fa_edt.bmp'><br><font class='baseline'><strong>Devin</strong><p>Received: <strong>8</strong></font> &nbsp; &nbsp; &nbsp; &nbsp; &nbsp; &nbsp;<font class='posOutcome'>Shared back: <strong>4</strong></font></font><div class='respPicDiv'><img src='img/responseButtonOffersNo0_wht.png' class='respPic'></div></div>","null","5","Devin","2","Shared","0.8,0.35","13","0.8","trustrating_stim/white_00340_940422_fa_edt.bmp","1","71","15"
"html-keyboard-response","182","352749","0.0-19.0-1.15","602b3ed14ae791260d6d12c5","bdp_trlrn","Mon Mar 13 2023 14:04:39 GMT-0400 (Eastern Daylight Time)","612748","Trustworthy,Untrustworthy","","708","","","","decision","","<div class='trialDiv'><img src='trustrating_stim/white_00898_960530_fa_edt.bmp'><br><font class='baseline'><strong>Caleb</strong><p>Choose number of points to send.</font><div class='respPicDiv'><img src='img/responseButtonOffersNo0L.png' class='respPic'></div></div>","2","6","Caleb","10","Shared","0.35,0.65","14","0.35","trustrating_stim/white_00898_960530_fa_edt.bmp","6.5","76","16"
"html-keyboard-response","183","353001","0.0-19.0-2.15","602b3ed14ae791260d6d12c5","bdp_trlrn","Mon Mar 13 2023 14:04:39 GMT-0400 (Eastern Daylight Time)","612748","Trustworthy,Untrustworthy","","null","","","","decisionFB","","<div class='trialDiv'><img src='trustrating_stim/white_00898_960530_fa_edt.bmp'><br><font class='baseline'><strong>Caleb</strong><p>Choose number of points to send.</font><div class='respPicDiv'><img src='img/responseButtonOffersNo0L2.png' class='respPic'></div></div>","null","6","Caleb","10","Shared","0.35,0.65","14","0.35","trustrating_stim/white_00898_960530_fa_edt.bmp","6.5","74","16"
"html-keyboard-response","184","354019","0.0-19.0-3.15","602b3ed14ae791260d6d12c5","bdp_trlrn","Mon Mar 13 2023 14:04:39 GMT-0400 (Eastern Daylight Time)","612748","Trustworthy,Untrustworthy","","null","","","","feedback","","<div class='trialDiv'><img src='trustrating_stim/white_00898_960530_fa_edt.bmp'><br><font class='baseline'><strong>Caleb</strong><p>Received: <strong>8</strong></font> &nbsp; &nbsp; &nbsp; &nbsp; &nbsp; &nbsp;<font class='posOutcome'>Shared back: <strong>4</strong></font></font><div class='respPicDiv'><img src='img/responseButtonOffersNo0_wht.png' class='respPic'></div></div>","null","6","Caleb","10","Shared","0.35,0.65","14","0.35","trustrating_stim/white_00898_960530_fa_edt.bmp","6.5","78","16"
"html-keyboard-response","185","354272","0.0-19.0-1.16","602b3ed14ae791260d6d12c5","bdp_trlrn","Mon Mar 13 2023 14:04:39 GMT-0400 (Eastern Daylight Time)","612748","Trustworthy,Untrustworthy","","250","","","","decision","","<div class='trialDiv'><img src='trustrating_stim/white_mw053.bmp'><br><font class='baseline'><strong>Marcus</strong><p>Choose number of points to send.</font><div class='respPicDiv'><img src='img/responseButtonOffersNo0L.png' class='respPic'></div></div>","2","6","Marcus","5","Shared","0.2,0.65","8","0.2","trustrating_stim/white_mw053.bmp","3.5","83","17"
"html-keyboard-response","186","354533","0.0-19.0-2.16","602b3ed14ae791260d6d12c5","bdp_trlrn","Mon Mar 13 2023 14:04:39 GMT-0400 (Eastern Daylight Time)","612748","Trustworthy,Untrustworthy","","null","","","","decisionFB","","<div class='trialDiv'><img src='trustrating_stim/white_mw053.bmp'><br><font class='baseline'><strong>Marcus</strong><p>Choose number of points to send.</font><div class='respPicDiv'><img src='img/responseButtonOffersNo0L2.png' class='respPic'></div></div>","null","6","Marcus","5","Shared","0.2,0.65","8","0.2","trustrating_stim/white_mw053.bmp","3.5","81","17"
"html-keyboard-response","187","355551","0.0-19.0-3.16","602b3ed14ae791260d6d12c5","bdp_trlrn","Mon Mar 13 2023 14:04:39 GMT-0400 (Eastern Daylight Time)","612748","Trustworthy,Untrustworthy","","null","","","","feedback","","<div class='trialDiv'><img src='trustrating_stim/white_mw053.bmp'><br><font class='baseline'><strong>Marcus</strong><p>Received: <strong>8</strong></font> &nbsp; &nbsp; &nbsp; &nbsp; &nbsp; &nbsp;<font class='posOutcome'>Shared back: <strong>4</strong></font></font><div class='respPicDiv'><img src='img/responseButtonOffersNo0_wht.png' class='respPic'></div></div>","null","6","Marcus","5","Shared","0.2,0.65","8","0.2","trustrating_stim/white_mw053.bmp","3.5","85","17"
"html-keyboard-response","188","355959","0.0-19.0-1.17","602b3ed14ae791260d6d12c5","bdp_trlrn","Mon Mar 13 2023 14:04:39 GMT-0400 (Eastern Daylight Time)","612748","Trustworthy,Untrustworthy","","407","","","","decision","","<div class='trialDiv'><img src='trustrating_stim/white_00340_940422_fa_edt.bmp'><br><font class='baseline'><strong>Devin</strong><p>Choose number of points to send.</font><div class='respPicDiv'><img src='img/responseButtonOffersNo0L.png' class='respPic'></div></div>","2","6","Devin","2","Shared","0.8,0.35","13","0.8","trustrating_stim/white_00340_940422_fa_edt.bmp","1","90","18"
"html-keyboard-response","189","356215","0.0-19.0-2.17","602b3ed14ae791260d6d12c5","bdp_trlrn","Mon Mar 13 2023 14:04:39 GMT-0400 (Eastern Daylight Time)","612748","Trustworthy,Untrustworthy","","null","","","","decisionFB","","<div class='trialDiv'><img src='trustrating_stim/white_00340_940422_fa_edt.bmp'><br><font class='baseline'><strong>Devin</strong><p>Choose number of points to send.</font><div class='respPicDiv'><img src='img/responseButtonOffersNo0L2.png' class='respPic'></div></div>","null","6","Devin","2","Shared","0.8,0.35","13","0.8","trustrating_stim/white_00340_940422_fa_edt.bmp","1","88","18"
"html-keyboard-response","190","357233","0.0-19.0-3.17","602b3ed14ae791260d6d12c5","bdp_trlrn","Mon Mar 13 2023 14:04:39 GMT-0400 (Eastern Daylight Time)","612748","Trustworthy,Untrustworthy","","null","","","","feedback","","<div class='trialDiv'><img src='trustrating_stim/white_00340_940422_fa_edt.bmp'><br><font class='baseline'><strong>Devin</strong><p>Received: <strong>8</strong></font> &nbsp; &nbsp; &nbsp; &nbsp; &nbsp; &nbsp;<font class='posOutcome'>Shared back: <strong>4</strong></font></font><div class='respPicDiv'><img src='img/responseButtonOffersNo0_wht.png' class='respPic'></div></div>","null","6","Devin","2","Shared","0.8,0.35","13","0.8","trustrating_stim/white_00340_940422_fa_edt.bmp","1","92","18"
"html-keyboard-response","191","357601","0.0-19.0-1.18","602b3ed14ae791260d6d12c5","bdp_trlrn","Mon Mar 13 2023 14:04:39 GMT-0400 (Eastern Daylight Time)","612748","Trustworthy,Untrustworthy","","365","","","","decision","","<div class='trialDiv'><img src='trustrating_stim/white_mw053.bmp'><br><font class='baseline'><strong>Marcus</strong><p>Choose number of points to send.</font><div class='respPicDiv'><img src='img/responseButtonOffersNo0L.png' class='respPic'></div></div>","2","7","Marcus","5","Shared","0.2,0.65","8","0.2","trustrating_stim/white_mw053.bmp","3.5","97","19"
"html-keyboard-response","192","357863","0.0-19.0-2.18","602b3ed14ae791260d6d12c5","bdp_trlrn","Mon Mar 13 2023 14:04:39 GMT-0400 (Eastern Daylight Time)","612748","Trustworthy,Untrustworthy","","null","","","","decisionFB","","<div class='trialDiv'><img src='trustrating_stim/white_mw053.bmp'><br><font class='baseline'><strong>Marcus</strong><p>Choose number of points to send.</font><div class='respPicDiv'><img src='img/responseButtonOffersNo0L2.png' class='respPic'></div></div>","null","7","Marcus","5","Shared","0.2,0.65","8","0.2","trustrating_stim/white_mw053.bmp","3.5","95","19"
"html-keyboard-response","193","358868","0.0-19.0-3.18","602b3ed14ae791260d6d12c5","bdp_trlrn","Mon Mar 13 2023 14:04:39 GMT-0400 (Eastern Daylight Time)","612748","Trustworthy,Untrustworthy","","null","","","","feedback","","<div class='trialDiv'><img src='trustrating_stim/white_mw053.bmp'><br><font class='baseline'><strong>Marcus</strong><p>Received: <strong>8</strong></font> &nbsp; &nbsp; &nbsp; &nbsp; &nbsp; &nbsp;<font class='posOutcome'>Shared back: <strong>4</strong></font></font><div class='respPicDiv'><img src='img/responseButtonOffersNo0_wht.png' class='respPic'></div></div>","null","7","Marcus","5","Shared","0.2,0.65","8","0.2","trustrating_stim/white_mw053.bmp","3.5","99","19"
"html-keyboard-response","194","359193","0.0-19.0-1.19","602b3ed14ae791260d6d12c5","bdp_trlrn","Mon Mar 13 2023 14:04:39 GMT-0400 (Eastern Daylight Time)","612748","Trustworthy,Untrustworthy","","323","","","","decision","","<div class='trialDiv'><img src='trustrating_stim/white_00898_960530_fa_edt.bmp'><br><font class='baseline'><strong>Caleb</strong><p>Choose number of points to send.</font><div class='respPicDiv'><img src='img/responseButtonOffersNo0L.png' class='respPic'></div></div>","2","7","Caleb","10","Shared","0.35,0.65","14","0.35","trustrating_stim/white_00898_960530_fa_edt.bmp","6.5","104","20"
"html-keyboard-response","195","359461","0.0-19.0-2.19","602b3ed14ae791260d6d12c5","bdp_trlrn","Mon Mar 13 2023 14:04:39 GMT-0400 (Eastern Daylight Time)","612748","Trustworthy,Untrustworthy","","null","","","","decisionFB","","<div class='trialDiv'><img src='trustrating_stim/white_00898_960530_fa_edt.bmp'><br><font class='baseline'><strong>Caleb</strong><p>Choose number of points to send.</font><div class='respPicDiv'><img src='img/responseButtonOffersNo0L2.png' class='respPic'></div></div>","null","7","Caleb","10","Shared","0.35,0.65","14","0.35","trustrating_stim/white_00898_960530_fa_edt.bmp","6.5","102","20"
"html-keyboard-response","196","360479","0.0-19.0-3.19","602b3ed14ae791260d6d12c5","bdp_trlrn","Mon Mar 13 2023 14:04:39 GMT-0400 (Eastern Daylight Time)","612748","Trustworthy,Untrustworthy","","null","","","","feedback","","<div class='trialDiv'><img src='trustrating_stim/white_00898_960530_fa_edt.bmp'><br><font class='baseline'><strong>Caleb</strong><p>Received: <strong>8</strong></font> &nbsp; &nbsp; &nbsp; &nbsp; &nbsp; &nbsp;<font class='posOutcome'>Shared back: <strong>4</strong></font></font><div class='respPicDiv'><img src='img/responseButtonOffersNo0_wht.png' class='respPic'></div></div>","null","7","Caleb","10","Shared","0.35,0.65","14","0.35","trustrating_stim/white_00898_960530_fa_edt.bmp","6.5","106","20"
"html-keyboard-response","197","360842","0.0-19.0-1.20","602b3ed14ae791260d6d12c5","bdp_trlrn","Mon Mar 13 2023 14:04:39 GMT-0400 (Eastern Daylight Time)","612748","Trustworthy,Untrustworthy","","360","","","","decision","","<div class='trialDiv'><img src='trustrating_stim/white_00340_940422_fa_edt.bmp'><br><font class='baseline'><strong>Devin</strong><p>Choose number of points to send.</font><div class='respPicDiv'><img src='img/responseButtonOffersNo0L.png' class='respPic'></div></div>","3","7","Devin","2","Shared","0.8,0.35","13","0.8","trustrating_stim/white_00340_940422_fa_edt.bmp","1","111","21"
"html-keyboard-response","198","361109","0.0-19.0-2.20","602b3ed14ae791260d6d12c5","bdp_trlrn","Mon Mar 13 2023 14:04:39 GMT-0400 (Eastern Daylight Time)","612748","Trustworthy,Untrustworthy","","null","","","","decisionFB","","<div class='trialDiv'><img src='trustrating_stim/white_00340_940422_fa_edt.bmp'><br><font class='baseline'><strong>Devin</strong><p>Choose number of points to send.</font><div class='respPicDiv'><img src='img/responseButtonOffersNo0L3.png' class='respPic'></div></div>","null","7","Devin","2","Shared","0.8,0.35","13","0.8","trustrating_stim/white_00340_940422_fa_edt.bmp","1","108","21"
"html-keyboard-response","199","362127","0.0-19.0-3.20","602b3ed14ae791260d6d12c5","bdp_trlrn","Mon Mar 13 2023 14:04:39 GMT-0400 (Eastern Daylight Time)","612748","Trustworthy,Untrustworthy","","null","","","","feedback","","<div class='trialDiv'><img src='trustrating_stim/white_00340_940422_fa_edt.bmp'><br><font class='baseline'><strong>Devin</strong><p>Received: <strong>12</strong></font> &nbsp; &nbsp; &nbsp; &nbsp; &nbsp; &nbsp;<font class='posOutcome'>Shared back: <strong>6</strong></font></font><div class='respPicDiv'><img src='img/responseButtonOffersNo0_wht.png' class='respPic'></div></div>","null","7","Devin","2","Shared","0.8,0.35","13","0.8","trustrating_stim/white_00340_940422_fa_edt.bmp","1","114","21"
"html-keyboard-response","200","362402","0.0-19.0-1.21","602b3ed14ae791260d6d12c5","bdp_trlrn","Mon Mar 13 2023 14:04:39 GMT-0400 (Eastern Daylight Time)","612748","Trustworthy,Untrustworthy","","272","","","","decision","","<div class='trialDiv'><img src='trustrating_stim/white_mw053.bmp'><br><font class='baseline'><strong>Marcus</strong><p>Choose number of points to send.</font><div class='respPicDiv'><img src='img/responseButtonOffersNo0L.png' class='respPic'></div></div>","3","8","Marcus","5","Kept","0.2,0.65","8","0.2","trustrating_stim/white_mw053.bmp","3.5","119","22"
"html-keyboard-response","201","362660","0.0-19.0-2.21","602b3ed14ae791260d6d12c5","bdp_trlrn","Mon Mar 13 2023 14:04:39 GMT-0400 (Eastern Daylight Time)","612748","Trustworthy,Untrustworthy","","null","","","","decisionFB","","<div class='trialDiv'><img src='trustrating_stim/white_mw053.bmp'><br><font class='baseline'><strong>Marcus</strong><p>Choose number of points to send.</font><div class='respPicDiv'><img src='img/responseButtonOffersNo0L3.png' class='respPic'></div></div>","null","8","Marcus","5","Kept","0.2,0.65","8","0.2","trustrating_stim/white_mw053.bmp","3.5","116","22"
"html-keyboard-response","202","363679","0.0-19.0-3.21","602b3ed14ae791260d6d12c5","bdp_trlrn","Mon Mar 13 2023 14:04:39 GMT-0400 (Eastern Daylight Time)","612748","Trustworthy,Untrustworthy","","null","","","","feedback","","<div class='trialDiv'><img src='trustrating_stim/white_mw053.bmp'><br><font class='baseline'><strong>Marcus</strong><p>Received: <strong>12</strong></font> &nbsp; &nbsp; &nbsp; &nbsp; &nbsp; &nbsp;<font class='negOutcome'>Shared back: <strong>0</strong></font></font><div class='respPicDiv'><img src='img/responseButtonOffersNo0_wht.png' class='respPic'></div></div>","null","8","Marcus","5","Kept","0.2,0.65","8","0.2","trustrating_stim/white_mw053.bmp","3.5","116","22"
"html-keyboard-response","203","364037","0.0-19.0-1.22","602b3ed14ae791260d6d12c5","bdp_trlrn","Mon Mar 13 2023 14:04:39 GMT-0400 (Eastern Daylight Time)","612748","Trustworthy,Untrustworthy","","356","","","","decision","","<div class='trialDiv'><img src='trustrating_stim/white_00340_940422_fa_edt.bmp'><br><font class='baseline'><strong>Devin</strong><p>Choose number of points to send.</font><div class='respPicDiv'><img src='img/responseButtonOffersNo0L.png' class='respPic'></div></div>","3","8","Devin","2","Shared","0.8,0.35","13","0.8","trustrating_stim/white_00340_940422_fa_edt.bmp","1","121","23"
"html-keyboard-response","204","364291","0.0-19.0-2.22","602b3ed14ae791260d6d12c5","bdp_trlrn","Mon Mar 13 2023 14:04:39 GMT-0400 (Eastern Daylight Time)","612748","Trustworthy,Untrustworthy","","null","","","","decisionFB","","<div class='trialDiv'><img src='trustrating_stim/white_00340_940422_fa_edt.bmp'><br><font class='baseline'><strong>Devin</strong><p>Choose number of points to send.</font><div class='respPicDiv'><img src='img/responseButtonOffersNo0L3.png' class='respPic'></div></div>","null","8","Devin","2","Shared","0.8,0.35","13","0.8","trustrating_stim/white_00340_940422_fa_edt.bmp","1","118","23"
"html-keyboard-response","205","365309","0.0-19.0-3.22","602b3ed14ae791260d6d12c5","bdp_trlrn","Mon Mar 13 2023 14:04:39 GMT-0400 (Eastern Daylight Time)","612748","Trustworthy,Untrustworthy","","null","","","","feedback","","<div class='trialDiv'><img src='trustrating_stim/white_00340_940422_fa_edt.bmp'><br><font class='baseline'><strong>Devin</strong><p>Received: <strong>12</strong></font> &nbsp; &nbsp; &nbsp; &nbsp; &nbsp; &nbsp;<font class='posOutcome'>Shared back: <strong>6</strong></font></font><div class='respPicDiv'><img src='img/responseButtonOffersNo0_wht.png' class='respPic'></div></div>","null","8","Devin","2","Shared","0.8,0.35","13","0.8","trustrating_stim/white_00340_940422_fa_edt.bmp","1","124","23"
"html-keyboard-response","206","366086","0.0-19.0-1.23","602b3ed14ae791260d6d12c5","bdp_trlrn","Mon Mar 13 2023 14:04:39 GMT-0400 (Eastern Daylight Time)","612748","Trustworthy,Untrustworthy","","774","","","","decision","","<div class='trialDiv'><img src='trustrating_stim/white_00898_960530_fa_edt.bmp'><br><font class='baseline'><strong>Caleb</strong><p>Choose number of points to send.</font><div class='respPicDiv'><img src='img/responseButtonOffersNo0L.png' class='respPic'></div></div>","3","8","Caleb","10","Kept","0.35,0.65","14","0.35","trustrating_stim/white_00898_960530_fa_edt.bmp","6.5","129","24"
"html-keyboard-response","207","366339","0.0-19.0-2.23","602b3ed14ae791260d6d12c5","bdp_trlrn","Mon Mar 13 2023 14:04:39 GMT-0400 (Eastern Daylight Time)","612748","Trustworthy,Untrustworthy","","null","","","","decisionFB","","<div class='trialDiv'><img src='trustrating_stim/white_00898_960530_fa_edt.bmp'><br><font class='baseline'><strong>Caleb</strong><p>Choose number of points to send.</font><div class='respPicDiv'><img src='img/responseButtonOffersNo0L3.png' class='respPic'></div></div>","null","8","Caleb","10","Kept","0.35,0.65","14","0.35","trustrating_stim/white_00898_960530_fa_edt.bmp","6.5","126","24"
"html-keyboard-response","208","367356","0.0-19.0-3.23","602b3ed14ae791260d6d12c5","bdp_trlrn","Mon Mar 13 2023 14:04:39 GMT-0400 (Eastern Daylight Time)","612748","Trustworthy,Untrustworthy","","null","","","","feedback","","<div class='trialDiv'><img src='trustrating_stim/white_00898_960530_fa_edt.bmp'><br><font class='baseline'><strong>Caleb</strong><p>Received: <strong>12</strong></font> &nbsp; &nbsp; &nbsp; &nbsp; &nbsp; &nbsp;<font class='negOutcome'>Shared back: <strong>0</strong></font></font><div class='respPicDiv'><img src='img/responseButtonOffersNo0_wht.png' class='respPic'></div></div>","null","8","Caleb","10","Kept","0.35,0.65","14","0.35","trustrating_stim/white_00898_960530_fa_edt.bmp","6.5","126","24"
"html-keyboard-response","209","368615","0.0-19.0-1.24","602b3ed14ae791260d6d12c5","bdp_trlrn","Mon Mar 13 2023 14:04:39 GMT-0400 (Eastern Daylight Time)","612748","Trustworthy,Untrustworthy","","1256","","","","decision","","<div class='trialDiv'><img src='trustrating_stim/white_00340_940422_fa_edt.bmp'><br><font class='baseline'><strong>Devin</strong><p>Choose number of points to send.</font><div class='respPicDiv'><img src='img/responseButtonOffersNo0L.png' class='respPic'></div></div>","3","9","Devin","2","Kept","0.8,0.35","13","0.8","trustrating_stim/white_00340_940422_fa_edt.bmp","1","131","25"
"html-keyboard-response","210","368872","0.0-19.0-2.24","602b3ed14ae791260d6d12c5","bdp_trlrn","Mon Mar 13 2023 14:04:39 GMT-0400 (Eastern Daylight Time)","612748","Trustworthy,Untrustworthy","","null","","","","decisionFB","","<div class='trialDiv'><img src='trustrating_stim/white_00340_940422_fa_edt.bmp'><br><font class='baseline'><strong>Devin</strong><p>Choose number of points to send.</font><div class='respPicDiv'><img src='img/responseButtonOffersNo0L3.png' class='respPic'></div></div>","null","9","Devin","2","Kept","0.8,0.35","13","0.8","trustrating_stim/white_00340_940422_fa_edt.bmp","1","128","25"
"html-keyboard-response","211","369887","0.0-19.0-3.24","602b3ed14ae791260d6d12c5","bdp_trlrn","Mon Mar 13 2023 14:04:39 GMT-0400 (Eastern Daylight Time)","612748","Trustworthy,Untrustworthy","","null","","","","feedback","","<div class='trialDiv'><img src='trustrating_stim/white_00340_940422_fa_edt.bmp'><br><font class='baseline'><strong>Devin</strong><p>Received: <strong>12</strong></font> &nbsp; &nbsp; &nbsp; &nbsp; &nbsp; &nbsp;<font class='negOutcome'>Shared back: <strong>0</strong></font></font><div class='respPicDiv'><img src='img/responseButtonOffersNo0_wht.png' class='respPic'></div></div>","null","9","Devin","2","Kept","0.8,0.35","13","0.8","trustrating_stim/white_00340_940422_fa_edt.bmp","1","128","25"
"html-keyboard-response","212","370181","0.0-19.0-1.25","602b3ed14ae791260d6d12c5","bdp_trlrn","Mon Mar 13 2023 14:04:39 GMT-0400 (Eastern Daylight Time)","612748","Trustworthy,Untrustworthy","","292","","","","decision","","<div class='trialDiv'><img src='trustrating_stim/white_00898_960530_fa_edt.bmp'><br><font class='baseline'><strong>Caleb</strong><p>Choose number of points to send.</font><div class='respPicDiv'><img src='img/responseButtonOffersNo0L.png' class='respPic'></div></div>","1","9","Caleb","10","Shared","0.35,0.65","14","0.35","trustrating_stim/white_00898_960530_fa_edt.bmp","6.5","133","26"
"html-keyboard-response","213","370449","0.0-19.0-2.25","602b3ed14ae791260d6d12c5","bdp_trlrn","Mon Mar 13 2023 14:04:39 GMT-0400 (Eastern Daylight Time)","612748","Trustworthy,Untrustworthy","","null","","","","decisionFB","","<div class='trialDiv'><img src='trustrating_stim/white_00898_960530_fa_edt.bmp'><br><font class='baseline'><strong>Caleb</strong><p>Choose number of points to send.</font><div class='respPicDiv'><img src='img/responseButtonOffersNo0L1.png' class='respPic'></div></div>","null","9","Caleb","10","Shared","0.35,0.65","14","0.35","trustrating_stim/white_00898_960530_fa_edt.bmp","6.5","132","26"
"html-keyboard-response","214","371459","0.0-19.0-3.25","602b3ed14ae791260d6d12c5","bdp_trlrn","Mon Mar 13 2023 14:04:39 GMT-0400 (Eastern Daylight Time)","612748","Trustworthy,Untrustworthy","","null","","","","feedback","","<div class='trialDiv'><img src='trustrating_stim/white_00898_960530_fa_edt.bmp'><br><font class='baseline'><strong>Caleb</strong><p>Received: <strong>4</strong></font> &nbsp; &nbsp; &nbsp; &nbsp; &nbsp; &nbsp;<font class='posOutcome'>Shared back: <strong>2</strong></font></font><div class='respPicDiv'><img src='img/responseButtonOffersNo0_wht.png' class='respPic'></div></div>","null","9","Caleb","10","Shared","0.35,0.65","14","0.35","trustrating_stim/white_00898_960530_fa_edt.bmp","6.5","134","26"
"html-keyboard-response","215","371724","0.0-19.0-1.26","602b3ed14ae791260d6d12c5","bdp_trlrn","Mon Mar 13 2023 14:04:39 GMT-0400 (Eastern Daylight Time)","612748","Trustworthy,Untrustworthy","","264","","","","decision","","<div class='trialDiv'><img src='trustrating_stim/white_mw053.bmp'><br><font class='baseline'><strong>Marcus</strong><p>Choose number of points to send.</font><div class='respPicDiv'><img src='img/responseButtonOffersNo0L.png' class='respPic'></div></div>","1","9","Marcus","5","Shared","0.2,0.65","8","0.2","trustrating_stim/white_mw053.bmp","3.5","139","27"
"html-keyboard-response","216","371985","0.0-19.0-2.26","602b3ed14ae791260d6d12c5","bdp_trlrn","Mon Mar 13 2023 14:04:39 GMT-0400 (Eastern Daylight Time)","612748","Trustworthy,Untrustworthy","","null","","","","decisionFB","","<div class='trialDiv'><img src='trustrating_stim/white_mw053.bmp'><br><font class='baseline'><strong>Marcus</strong><p>Choose number of points to send.</font><div class='respPicDiv'><img src='img/responseButtonOffersNo0L1.png' class='respPic'></div></div>","null","9","Marcus","5","Shared","0.2,0.65","8","0.2","trustrating_stim/white_mw053.bmp","3.5","138","27"
"html-keyboard-response","217","373003","0.0-19.0-3.26","602b3ed14ae791260d6d12c5","bdp_trlrn","Mon Mar 13 2023 14:04:39 GMT-0400 (Eastern Daylight Time)","612748","Trustworthy,Untrustworthy","","null","","","","feedback","","<div class='trialDiv'><img src='trustrating_stim/white_mw053.bmp'><br><font class='baseline'><strong>Marcus</strong><p>Received: <strong>4</strong></font> &nbsp; &nbsp; &nbsp; &nbsp; &nbsp; &nbsp;<font class='posOutcome'>Shared back: <strong>2</strong></font></font><div class='respPicDiv'><img src='img/responseButtonOffersNo0_wht.png' class='respPic'></div></div>","null","9","Marcus","5","Shared","0.2,0.65","8","0.2","trustrating_stim/white_mw053.bmp","3.5","140","27"
"html-keyboard-response","218","373296","0.0-19.0-1.27","602b3ed14ae791260d6d12c5","bdp_trlrn","Mon Mar 13 2023 14:04:39 GMT-0400 (Eastern Daylight Time)","612748","Trustworthy,Untrustworthy","","290","","","","decision","","<div class='trialDiv'><img src='trustrating_stim/white_00898_960530_fa_edt.bmp'><br><font class='baseline'><strong>Caleb</strong><p>Choose number of points to send.</font><div class='respPicDiv'><img src='img/responseButtonOffersNo0L.png' class='respPic'></div></div>","1","10","Caleb","10","Shared","0.35,0.65","14","0.35","trustrating_stim/white_00898_960530_fa_edt.bmp","6.5","145","28"
"html-keyboard-response","219","373552","0.0-19.0-2.27","602b3ed14ae791260d6d12c5","bdp_trlrn","Mon Mar 13 2023 14:04:39 GMT-0400 (Eastern Daylight Time)","612748","Trustworthy,Untrustworthy","","null","","","","decisionFB","","<div class='trialDiv'><img src='trustrating_stim/white_00898_960530_fa_edt.bmp'><br><font class='baseline'><strong>Caleb</strong><p>Choose number of points to send.</font><div class='respPicDiv'><img src='img/responseButtonOffersNo0L1.png' class='respPic'></div></div>","null","10","Caleb","10","Shared","0.35,0.65","14","0.35","trustrating_stim/white_00898_960530_fa_edt.bmp","6.5","144","28"
