"trial_type","trial_index","time_elapsed","internal_node_id","subject_id","task","startTime","totalTime","labels","view_history","rt","event","trial","time","trialtype","success","stimulus","key_press","aground","name","faceID","outcome","agenttype","agentswpt","agentcurrpshare","face","avgRating","point_total","round"
"pavlovia","0","4","0.0-0.0","6400d916e410c86255a45836","bdp_trlrn","Mon Mar 13 2023 12:05:14 GMT-0700 (Pacific Daylight Time)","625230","Trustworthy,Untrustworthy","","","","","","","","","","","","","","","","","","","",""
"instructions","1","4661","0.0-1.0","6400d916e410c86255a45836","bdp_trlrn","Mon Mar 13 2023 12:05:14 GMT-0700 (Pacific Daylight Time)","625230","Trustworthy,Untrustworthy","[{""page_index"":0,""viewing_time"":4656}]","4656","","","","","","","","","","","","","","","","","",""
"","","","","6400d916e410c86255a45836","bdp_trlrn","Mon Mar 13 2023 12:05:14 GMT-0700 (Pacific Daylight Time)","625230","Trustworthy,Untrustworthy","","","fullscreenenter","2","6305","fullscreenenter","","","","","","","","","","","","","",""
"fullscreen","2","7300","0.0-2.0","6400d916e410c86255a45836","bdp_trlrn","Mon Mar 13 2023 12:05:14 GMT-0700 (Pacific Daylight Time)","625230","Trustworthy,Untrustworthy","","","","","","","true","","","","","","","","","","","","",""
"instructions","3","30231","0.0-4.0","6400d916e410c86255a45836","bdp_trlrn","Mon Mar 13 2023 12:05:14 GMT-0700 (Pacific Daylight Time)","625230","Trustworthy,Untrustworthy","[{""page_index"":0,""viewing_time"":7833},{""page_index"":1,""viewing_time"":15097}]","22930","","","","","","","","","","","","","","","","","",""
"instructions","4","31231","0.0-5.0","6400d916e410c86255a45836","bdp_trlrn","Mon Mar 13 2023 12:05:14 GMT-0700 (Pacific Daylight Time)","625230","Trustworthy,Untrustworthy","[{""page_index"":0,""viewing_time"":1000}]","1000","","","","","","","","","","","","","","","","","",""
"image-keyboard-response","5","33832","0.0-6.0-1.0","6400d916e410c86255a45836","bdp_trlrn","Mon Mar 13 2023 12:05:14 GMT-0700 (Pacific Daylight Time)","625230","Trustworthy,Untrustworthy","","2499","","","","rating","","trustrating_stim/white_00129_931230_fb_edt.bmp","8","","","","","","","","","","",""
"image-keyboard-response","6","34042","0.0-6.0-2.0","6400d916e410c86255a45836","bdp_trlrn","Mon Mar 13 2023 12:05:14 GMT-0700 (Pacific Daylight Time)","625230","Trustworthy,Untrustworthy","","null","","","","ratingFB","","trustrating_stim/white_00129_931230_fb_edt.bmp","null","","","","","","","","","","",""
"image-keyboard-response","7","36083","0.0-6.0-1.1","6400d916e410c86255a45836","bdp_trlrn","Mon Mar 13 2023 12:05:14 GMT-0700 (Pacific Daylight Time)","625230","Trustworthy,Untrustworthy","","1936","","","","rating","","trustrating_stim/white_mw035.bmp","7","","","","","","","","","","",""
"image-keyboard-response","8","36291","0.0-6.0-2.1","6400d916e410c86255a45836","bdp_trlrn","Mon Mar 13 2023 12:05:14 GMT-0700 (Pacific Daylight Time)","625230","Trustworthy,Untrustworthy","","null","","","","ratingFB","","trustrating_stim/white_mw035.bmp","null","","","","","","","","","","",""
"image-keyboard-response","9","37981","0.0-6.0-1.2","6400d916e410c86255a45836","bdp_trlrn","Mon Mar 13 2023 12:05:14 GMT-0700 (Pacific Daylight Time)","625230","Trustworthy,Untrustworthy","","1585","","","","rating","","trustrating_stim/white_mw046.bmp","2","","","","","","","","","","",""
"image-keyboard-response","10","38190","0.0-6.0-2.2","6400d916e410c86255a45836","bdp_trlrn","Mon Mar 13 2023 12:05:14 GMT-0700 (Pacific Daylight Time)","625230","Trustworthy,Untrustworthy","","null","","","","ratingFB","","trustrating_stim/white_mw046.bmp","null","","","","","","","","","","",""
"image-keyboard-response","11","39252","0.0-6.0-1.3","6400d916e410c86255a45836","bdp_trlrn","Mon Mar 13 2023 12:05:14 GMT-0700 (Pacific Daylight Time)","625230","Trustworthy,Untrustworthy","","955","","","","rating","","trustrating_stim/white_00761_941201_fb_edt.bmp","1","","","","","","","","","","",""
"image-keyboard-response","12","39456","0.0-6.0-2.3","6400d916e410c86255a45836","bdp_trlrn","Mon Mar 13 2023 12:05:14 GMT-0700 (Pacific Daylight Time)","625230","Trustworthy,Untrustworthy","","null","","","","ratingFB","","trustrating_stim/white_00761_941201_fb_edt.bmp","null","","","","","","","","","","",""
"image-keyboard-response","13","40744","0.0-6.0-1.4","6400d916e410c86255a45836","bdp_trlrn","Mon Mar 13 2023 12:05:14 GMT-0700 (Pacific Daylight Time)","625230","Trustworthy,Untrustworthy","","1183","","","","rating","","trustrating_stim/white_mw097.bmp","1","","","","","","","","","","",""
"image-keyboard-response","14","40955","0.0-6.0-2.4","6400d916e410c86255a45836","bdp_trlrn","Mon Mar 13 2023 12:05:14 GMT-0700 (Pacific Daylight Time)","625230","Trustworthy,Untrustworthy","","null","","","","ratingFB","","trustrating_stim/white_mw097.bmp","null","","","","","","","","","","",""
"image-keyboard-response","15","42316","0.0-6.0-1.5","6400d916e410c86255a45836","bdp_trlrn","Mon Mar 13 2023 12:05:14 GMT-0700 (Pacific Daylight Time)","625230","Trustworthy,Untrustworthy","","1256","","","","rating","","trustrating_stim/white_mw071.bmp","2","","","","","","","","","","",""
"image-keyboard-response","16","42522","0.0-6.0-2.5","6400d916e410c86255a45836","bdp_trlrn","Mon Mar 13 2023 12:05:14 GMT-0700 (Pacific Daylight Time)","625230","Trustworthy,Untrustworthy","","null","","","","ratingFB","","trustrating_stim/white_mw071.bmp","null","","","","","","","","","","",""
"image-keyboard-response","17","44729","0.0-6.0-1.6","6400d916e410c86255a45836","bdp_trlrn","Mon Mar 13 2023 12:05:14 GMT-0700 (Pacific Daylight Time)","625230","Trustworthy,Untrustworthy","","2102","","","","rating","","trustrating_stim/white_mw056.bmp","4","","","","","","","","","","",""
"image-keyboard-response","18","44937","0.0-6.0-2.6","6400d916e410c86255a45836","bdp_trlrn","Mon Mar 13 2023 12:05:14 GMT-0700 (Pacific Daylight Time)","625230","Trustworthy,Untrustworthy","","null","","","","ratingFB","","trustrating_stim/white_mw056.bmp","null","","","","","","","","","","",""
"image-keyboard-response","19","46383","0.0-6.0-1.7","6400d916e410c86255a45836","bdp_trlrn","Mon Mar 13 2023 12:05:14 GMT-0700 (Pacific Daylight Time)","625230","Trustworthy,Untrustworthy","","1330","","","","rating","","trustrating_stim/white_mw099.bmp","4","","","","","","","","","","",""
"image-keyboard-response","20","46586","0.0-6.0-2.7","6400d916e410c86255a45836","bdp_trlrn","Mon Mar 13 2023 12:05:14 GMT-0700 (Pacific Daylight Time)","625230","Trustworthy,Untrustworthy","","null","","","","ratingFB","","trustrating_stim/white_mw099.bmp","null","","","","","","","","","","",""
"image-keyboard-response","21","48311","0.0-6.0-1.8","6400d916e410c86255a45836","bdp_trlrn","Mon Mar 13 2023 12:05:14 GMT-0700 (Pacific Daylight Time)","625230","Trustworthy,Untrustworthy","","1620","","","","rating","","trustrating_stim/white_00807_941205_fb_edt.bmp","6","","","","","","","","","","",""
"image-keyboard-response","22","48519","0.0-6.0-2.8","6400d916e410c86255a45836","bdp_trlrn","Mon Mar 13 2023 12:05:14 GMT-0700 (Pacific Daylight Time)","625230","Trustworthy,Untrustworthy","","null","","","","ratingFB","","trustrating_stim/white_00807_941205_fb_edt.bmp","null","","","","","","","","","","",""
"image-keyboard-response","23","50051","0.0-6.0-1.9","6400d916e410c86255a45836","bdp_trlrn","Mon Mar 13 2023 12:05:14 GMT-0700 (Pacific Daylight Time)","625230","Trustworthy,Untrustworthy","","1427","","","","rating","","trustrating_stim/white_00602_940928_fb_edt.bmp","7","","","","","","","","","","",""
"image-keyboard-response","24","50267","0.0-6.0-2.9","6400d916e410c86255a45836","bdp_trlrn","Mon Mar 13 2023 12:05:14 GMT-0700 (Pacific Daylight Time)","625230","Trustworthy,Untrustworthy","","null","","","","ratingFB","","trustrating_stim/white_00602_940928_fb_edt.bmp","null","","","","","","","","","","",""
"image-keyboard-response","25","52146","0.0-6.0-1.10","6400d916e410c86255a45836","bdp_trlrn","Mon Mar 13 2023 12:05:14 GMT-0700 (Pacific Daylight Time)","625230","Trustworthy,Untrustworthy","","1773","","","","rating","","trustrating_stim/white_00659_941121_fa_edt.bmp","1","","","","","","","","","","",""
"image-keyboard-response","26","52350","0.0-6.0-2.10","6400d916e410c86255a45836","bdp_trlrn","Mon Mar 13 2023 12:05:14 GMT-0700 (Pacific Daylight Time)","625230","Trustworthy,Untrustworthy","","null","","","","ratingFB","","trustrating_stim/white_00659_941121_fa_edt.bmp","null","","","","","","","","","","",""
"image-keyboard-response","27","54156","0.0-6.0-1.11","6400d916e410c86255a45836","bdp_trlrn","Mon Mar 13 2023 12:05:14 GMT-0700 (Pacific Daylight Time)","625230","Trustworthy,Untrustworthy","","1701","","","","rating","","trustrating_stim/white_00120_931230_fa_edt.bmp","6","","","","","","","","","","",""
"image-keyboard-response","28","54365","0.0-6.0-2.11","6400d916e410c86255a45836","bdp_trlrn","Mon Mar 13 2023 12:05:14 GMT-0700 (Pacific Daylight Time)","625230","Trustworthy,Untrustworthy","","null","","","","ratingFB","","trustrating_stim/white_00120_931230_fa_edt.bmp","null","","","","","","","","","","",""
"image-keyboard-response","29","56103","0.0-6.0-1.12","6400d916e410c86255a45836","bdp_trlrn","Mon Mar 13 2023 12:05:14 GMT-0700 (Pacific Daylight Time)","625230","Trustworthy,Untrustworthy","","1632","","","","rating","","trustrating_stim/white_mw066.bmp","3","","","","","","","","","","",""
"image-keyboard-response","30","56305","0.0-6.0-2.12","6400d916e410c86255a45836","bdp_trlrn","Mon Mar 13 2023 12:05:14 GMT-0700 (Pacific Daylight Time)","625230","Trustworthy,Untrustworthy","","null","","","","ratingFB","","trustrating_stim/white_mw066.bmp","null","","","","","","","","","","",""
"image-keyboard-response","31","57983","0.0-6.0-1.13","6400d916e410c86255a45836","bdp_trlrn","Mon Mar 13 2023 12:05:14 GMT-0700 (Pacific Daylight Time)","625230","Trustworthy,Untrustworthy","","1574","","","","rating","","trustrating_stim/white_mw049.bmp","8","","","","","","","","","","",""
"image-keyboard-response","32","58187","0.0-6.0-2.13","6400d916e410c86255a45836","bdp_trlrn","Mon Mar 13 2023 12:05:14 GMT-0700 (Pacific Daylight Time)","625230","Trustworthy,Untrustworthy","","null","","","","ratingFB","","trustrating_stim/white_mw049.bmp","null","","","","","","","","","","",""
"image-keyboard-response","33","60000","0.0-6.0-1.14","6400d916e410c86255a45836","bdp_trlrn","Mon Mar 13 2023 12:05:14 GMT-0700 (Pacific Daylight Time)","625230","Trustworthy,Untrustworthy","","1708","","","","rating","","trustrating_stim/white_mw084.bmp","5","","","","","","","","","","",""
"image-keyboard-response","34","60202","0.0-6.0-2.14","6400d916e410c86255a45836","bdp_trlrn","Mon Mar 13 2023 12:05:14 GMT-0700 (Pacific Daylight Time)","625230","Trustworthy,Untrustworthy","","null","","","","ratingFB","","trustrating_stim/white_mw084.bmp","null","","","","","","","","","","",""
"image-keyboard-response","35","61429","0.0-6.0-1.15","6400d916e410c86255a45836","bdp_trlrn","Mon Mar 13 2023 12:05:14 GMT-0700 (Pacific Daylight Time)","625230","Trustworthy,Untrustworthy","","1122","","","","rating","","trustrating_stim/white_mw089.bmp","9","","","","","","","","","","",""
"image-keyboard-response","36","61635","0.0-6.0-2.15","6400d916e410c86255a45836","bdp_trlrn","Mon Mar 13 2023 12:05:14 GMT-0700 (Pacific Daylight Time)","625230","Trustworthy,Untrustworthy","","null","","","","ratingFB","","trustrating_stim/white_mw089.bmp","null","","","","","","","","","","",""
"image-keyboard-response","37","62479","0.0-6.0-1.16","6400d916e410c86255a45836","bdp_trlrn","Mon Mar 13 2023 12:05:14 GMT-0700 (Pacific Daylight Time)","625230","Trustworthy,Untrustworthy","","738","","","","rating","","trustrating_stim/white_mw048.bmp","1","","","","","","","","","","",""
"image-keyboard-response","38","62684","0.0-6.0-2.16","6400d916e410c86255a45836","bdp_trlrn","Mon Mar 13 2023 12:05:14 GMT-0700 (Pacific Daylight Time)","625230","Trustworthy,Untrustworthy","","null","","","","ratingFB","","trustrating_stim/white_mw048.bmp","null","","","","","","","","","","",""
"image-keyboard-response","39","63603","0.0-6.0-1.17","6400d916e410c86255a45836","bdp_trlrn","Mon Mar 13 2023 12:05:14 GMT-0700 (Pacific Daylight Time)","625230","Trustworthy,Untrustworthy","","814","","","","rating","","trustrating_stim/white_mw060.bmp","1","","","","","","","","","","",""
"image-keyboard-response","40","63816","0.0-6.0-2.17","6400d916e410c86255a45836","bdp_trlrn","Mon Mar 13 2023 12:05:14 GMT-0700 (Pacific Daylight Time)","625230","Trustworthy,Untrustworthy","","null","","","","ratingFB","","trustrating_stim/white_mw060.bmp","null","","","","","","","","","","",""
"image-keyboard-response","41","65639","0.0-6.0-1.18","6400d916e410c86255a45836","bdp_trlrn","Mon Mar 13 2023 12:05:14 GMT-0700 (Pacific Daylight Time)","625230","Trustworthy,Untrustworthy","","1716","","","","rating","","trustrating_stim/white_00577_940928_fa_edt.bmp","4","","","","","","","","","","",""
"image-keyboard-response","42","65849","0.0-6.0-2.18","6400d916e410c86255a45836","bdp_trlrn","Mon Mar 13 2023 12:05:14 GMT-0700 (Pacific Daylight Time)","625230","Trustworthy,Untrustworthy","","null","","","","ratingFB","","trustrating_stim/white_00577_940928_fa_edt.bmp","null","","","","","","","","","","",""
"image-keyboard-response","43","67076","0.0-6.0-1.19","6400d916e410c86255a45836","bdp_trlrn","Mon Mar 13 2023 12:05:14 GMT-0700 (Pacific Daylight Time)","625230","Trustworthy,Untrustworthy","","1121","","","","rating","","trustrating_stim/white_00519_940519_fb_edt.bmp","1","","","","","","","","","","",""
"image-keyboard-response","44","67286","0.0-6.0-2.19","6400d916e410c86255a45836","bdp_trlrn","Mon Mar 13 2023 12:05:14 GMT-0700 (Pacific Daylight Time)","625230","Trustworthy,Untrustworthy","","null","","","","ratingFB","","trustrating_stim/white_00519_940519_fb_edt.bmp","null","","","","","","","","","","",""
"image-keyboard-response","45","69410","0.0-6.0-1.20","6400d916e410c86255a45836","bdp_trlrn","Mon Mar 13 2023 12:05:14 GMT-0700 (Pacific Daylight Time)","625230","Trustworthy,Untrustworthy","","2023","","","","rating","","trustrating_stim/white_00299_940422_fa_edt.bmp","3","","","","","","","","","","",""
"image-keyboard-response","46","69614","0.0-6.0-2.20","6400d916e410c86255a45836","bdp_trlrn","Mon Mar 13 2023 12:05:14 GMT-0700 (Pacific Daylight Time)","625230","Trustworthy,Untrustworthy","","null","","","","ratingFB","","trustrating_stim/white_00299_940422_fa_edt.bmp","null","","","","","","","","","","",""
"image-keyboard-response","47","70998","0.0-6.0-1.21","6400d916e410c86255a45836","bdp_trlrn","Mon Mar 13 2023 12:05:14 GMT-0700 (Pacific Daylight Time)","625230","Trustworthy,Untrustworthy","","1279","","","","rating","","trustrating_stim/white_00223_940128_fb_edt.bmp","3","","","","","","","","","","",""
"image-keyboard-response","48","71202","0.0-6.0-2.21","6400d916e410c86255a45836","bdp_trlrn","Mon Mar 13 2023 12:05:14 GMT-0700 (Pacific Daylight Time)","625230","Trustworthy,Untrustworthy","","null","","","","ratingFB","","trustrating_stim/white_00223_940128_fb_edt.bmp","null","","","","","","","","","","",""
"image-keyboard-response","49","73163","0.0-6.0-1.22","6400d916e410c86255a45836","bdp_trlrn","Mon Mar 13 2023 12:05:14 GMT-0700 (Pacific Daylight Time)","625230","Trustworthy,Untrustworthy","","1844","","","","rating","","trustrating_stim/white_00109_931230_fa_edt.bmp","2","","","","","","","","","","",""
"image-keyboard-response","50","73363","0.0-6.0-2.22","6400d916e410c86255a45836","bdp_trlrn","Mon Mar 13 2023 12:05:14 GMT-0700 (Pacific Daylight Time)","625230","Trustworthy,Untrustworthy","","null","","","","ratingFB","","trustrating_stim/white_00109_931230_fa_edt.bmp","null","","","","","","","","","","",""
"image-keyboard-response","51","74732","0.0-6.0-1.23","6400d916e410c86255a45836","bdp_trlrn","Mon Mar 13 2023 12:05:14 GMT-0700 (Pacific Daylight Time)","625230","Trustworthy,Untrustworthy","","1264","","","","rating","","trustrating_stim/white_mw033.bmp","2","","","","","","","","","","",""
"image-keyboard-response","52","74945","0.0-6.0-2.23","6400d916e410c86255a45836","bdp_trlrn","Mon Mar 13 2023 12:05:14 GMT-0700 (Pacific Daylight Time)","625230","Trustworthy,Untrustworthy","","null","","","","ratingFB","","trustrating_stim/white_mw033.bmp","null","","","","","","","","","","",""
"image-keyboard-response","53","76707","0.0-6.0-1.24","6400d916e410c86255a45836","bdp_trlrn","Mon Mar 13 2023 12:05:14 GMT-0700 (Pacific Daylight Time)","625230","Trustworthy,Untrustworthy","","1657","","","","rating","","trustrating_stim/white_mw053.bmp","5","","","","","","","","","","",""
"image-keyboard-response","54","76911","0.0-6.0-2.24","6400d916e410c86255a45836","bdp_trlrn","Mon Mar 13 2023 12:05:14 GMT-0700 (Pacific Daylight Time)","625230","Trustworthy,Untrustworthy","","null","","","","ratingFB","","trustrating_stim/white_mw053.bmp","null","","","","","","","","","","",""
"image-keyboard-response","55","78546","0.0-6.0-1.25","6400d916e410c86255a45836","bdp_trlrn","Mon Mar 13 2023 12:05:14 GMT-0700 (Pacific Daylight Time)","625230","Trustworthy,Untrustworthy","","1531","","","","rating","","trustrating_stim/white_mw063.bmp","3","","","","","","","","","","",""
"image-keyboard-response","56","78759","0.0-6.0-2.25","6400d916e410c86255a45836","bdp_trlrn","Mon Mar 13 2023 12:05:14 GMT-0700 (Pacific Daylight Time)","625230","Trustworthy,Untrustworthy","","null","","","","ratingFB","","trustrating_stim/white_mw063.bmp","null","","","","","","","","","","",""
"image-keyboard-response","57","80204","0.0-6.0-1.26","6400d916e410c86255a45836","bdp_trlrn","Mon Mar 13 2023 12:05:14 GMT-0700 (Pacific Daylight Time)","625230","Trustworthy,Untrustworthy","","1338","","","","rating","","trustrating_stim/white_00898_960530_fa_edt.bmp","6","","","","","","","","","","",""
"image-keyboard-response","58","80409","0.0-6.0-2.26","6400d916e410c86255a45836","bdp_trlrn","Mon Mar 13 2023 12:05:14 GMT-0700 (Pacific Daylight Time)","625230","Trustworthy,Untrustworthy","","null","","","","ratingFB","","trustrating_stim/white_00898_960530_fa_edt.bmp","null","","","","","","","","","","",""
"image-keyboard-response","59","82257","0.0-6.0-1.27","6400d916e410c86255a45836","bdp_trlrn","Mon Mar 13 2023 12:05:14 GMT-0700 (Pacific Daylight Time)","625230","Trustworthy,Untrustworthy","","1743","","","","rating","","trustrating_stim/white_00785_941205_fb_edt.bmp","1","","","","","","","","","","",""
"image-keyboard-response","60","82458","0.0-6.0-2.27","6400d916e410c86255a45836","bdp_trlrn","Mon Mar 13 2023 12:05:14 GMT-0700 (Pacific Daylight Time)","625230","Trustworthy,Untrustworthy","","null","","","","ratingFB","","trustrating_stim/white_00785_941205_fb_edt.bmp","null","","","","","","","","","","",""
"image-keyboard-response","61","83335","0.0-6.0-1.28","6400d916e410c86255a45836","bdp_trlrn","Mon Mar 13 2023 12:05:14 GMT-0700 (Pacific Daylight Time)","625230","Trustworthy,Untrustworthy","","772","","","","rating","","trustrating_stim/white_00340_940422_fa_edt.bmp","1","","","","","","","","","","",""
"image-keyboard-response","62","83541","0.0-6.0-2.28","6400d916e410c86255a45836","bdp_trlrn","Mon Mar 13 2023 12:05:14 GMT-0700 (Pacific Daylight Time)","625230","Trustworthy,Untrustworthy","","null","","","","ratingFB","","trustrating_stim/white_00340_940422_fa_edt.bmp","null","","","","","","","","","","",""
"image-keyboard-response","63","84837","0.0-6.0-1.29","6400d916e410c86255a45836","bdp_trlrn","Mon Mar 13 2023 12:05:14 GMT-0700 (Pacific Daylight Time)","625230","Trustworthy,Untrustworthy","","1191","","","","rating","","trustrating_stim/white_00757_941201_fa_edt.bmp","1","","","","","","","","","","",""
"image-keyboard-response","64","85041","0.0-6.0-2.29","6400d916e410c86255a45836","bdp_trlrn","Mon Mar 13 2023 12:05:14 GMT-0700 (Pacific Daylight Time)","625230","Trustworthy,Untrustworthy","","null","","","","ratingFB","","trustrating_stim/white_00757_941201_fa_edt.bmp","null","","","","","","","","","","",""
"image-keyboard-response","65","86725","0.0-6.0-1.30","6400d916e410c86255a45836","bdp_trlrn","Mon Mar 13 2023 12:05:14 GMT-0700 (Pacific Daylight Time)","625230","Trustworthy,Untrustworthy","","1580","","","","rating","","trustrating_stim/white_mw084.bmp","3","","","","","","","","","","",""
"image-keyboard-response","66","86938","0.0-6.0-2.30","6400d916e410c86255a45836","bdp_trlrn","Mon Mar 13 2023 12:05:14 GMT-0700 (Pacific Daylight Time)","625230","Trustworthy,Untrustworthy","","null","","","","ratingFB","","trustrating_stim/white_mw084.bmp","null","","","","","","","","","","",""
"image-keyboard-response","67","88841","0.0-6.0-1.31","6400d916e410c86255a45836","bdp_trlrn","Mon Mar 13 2023 12:05:14 GMT-0700 (Pacific Daylight Time)","625230","Trustworthy,Untrustworthy","","1797","","","","rating","","trustrating_stim/white_mw056.bmp","6","","","","","","","","","","",""
"image-keyboard-response","68","89054","0.0-6.0-2.31","6400d916e410c86255a45836","bdp_trlrn","Mon Mar 13 2023 12:05:14 GMT-0700 (Pacific Daylight Time)","625230","Trustworthy,Untrustworthy","","null","","","","ratingFB","","trustrating_stim/white_mw056.bmp","null","","","","","","","","","","",""
"image-keyboard-response","69","90420","0.0-6.0-1.32","6400d916e410c86255a45836","bdp_trlrn","Mon Mar 13 2023 12:05:14 GMT-0700 (Pacific Daylight Time)","625230","Trustworthy,Untrustworthy","","1260","","","","rating","","trustrating_stim/white_00757_941201_fa_edt.bmp","2","","","","","","","","","","",""
"image-keyboard-response","70","90636","0.0-6.0-2.32","6400d916e410c86255a45836","bdp_trlrn","Mon Mar 13 2023 12:05:14 GMT-0700 (Pacific Daylight Time)","625230","Trustworthy,Untrustworthy","","null","","","","ratingFB","","trustrating_stim/white_00757_941201_fa_edt.bmp","null","","","","","","","","","","",""
"image-keyboard-response","71","91798","0.0-6.0-1.33","6400d916e410c86255a45836","bdp_trlrn","Mon Mar 13 2023 12:05:14 GMT-0700 (Pacific Daylight Time)","625230","Trustworthy,Untrustworthy","","1056","","","","rating","","trustrating_stim/white_mw060.bmp","1","","","","","","","","","","",""
"image-keyboard-response","72","92004","0.0-6.0-2.33","6400d916e410c86255a45836","bdp_trlrn","Mon Mar 13 2023 12:05:14 GMT-0700 (Pacific Daylight Time)","625230","Trustworthy,Untrustworthy","","null","","","","ratingFB","","trustrating_stim/white_mw060.bmp","null","","","","","","","","","","",""
"image-keyboard-response","73","92893","0.0-6.0-1.34","6400d916e410c86255a45836","bdp_trlrn","Mon Mar 13 2023 12:05:14 GMT-0700 (Pacific Daylight Time)","625230","Trustworthy,Untrustworthy","","785","","","","rating","","trustrating_stim/white_mw048.bmp","1","","","","","","","","","","",""
"image-keyboard-response","74","93103","0.0-6.0-2.34","6400d916e410c86255a45836","bdp_trlrn","Mon Mar 13 2023 12:05:14 GMT-0700 (Pacific Daylight Time)","625230","Trustworthy,Untrustworthy","","null","","","","ratingFB","","trustrating_stim/white_mw048.bmp","null","","","","","","","","","","",""
"image-keyboard-response","75","94815","0.0-6.0-1.35","6400d916e410c86255a45836","bdp_trlrn","Mon Mar 13 2023 12:05:14 GMT-0700 (Pacific Daylight Time)","625230","Trustworthy,Untrustworthy","","1607","","","","rating","","trustrating_stim/white_00807_941205_fb_edt.bmp","7","","","","","","","","","","",""
"image-keyboard-response","76","95019","0.0-6.0-2.35","6400d916e410c86255a45836","bdp_trlrn","Mon Mar 13 2023 12:05:14 GMT-0700 (Pacific Daylight Time)","625230","Trustworthy,Untrustworthy","","null","","","","ratingFB","","trustrating_stim/white_00807_941205_fb_edt.bmp","null","","","","","","","","","","",""
"image-keyboard-response","77","96710","0.0-6.0-1.36","6400d916e410c86255a45836","bdp_trlrn","Mon Mar 13 2023 12:05:14 GMT-0700 (Pacific Daylight Time)","625230","Trustworthy,Untrustworthy","","1585","","","","rating","","trustrating_stim/white_mw033.bmp","8","","","","","","","","","","",""
"image-keyboard-response","78","96918","0.0-6.0-2.36","6400d916e410c86255a45836","bdp_trlrn","Mon Mar 13 2023 12:05:14 GMT-0700 (Pacific Daylight Time)","625230","Trustworthy,Untrustworthy","","null","","","","ratingFB","","trustrating_stim/white_mw033.bmp","null","","","","","","","","","","",""
"image-keyboard-response","79","99348","0.0-6.0-1.37","6400d916e410c86255a45836","bdp_trlrn","Mon Mar 13 2023 12:05:14 GMT-0700 (Pacific Daylight Time)","625230","Trustworthy,Untrustworthy","","2325","","","","rating","","trustrating_stim/white_00898_960530_fa_edt.bmp","7","","","","","","","","","","",""
"image-keyboard-response","80","99550","0.0-6.0-2.37","6400d916e410c86255a45836","bdp_trlrn","Mon Mar 13 2023 12:05:14 GMT-0700 (Pacific Daylight Time)","625230","Trustworthy,Untrustworthy","","null","","","","ratingFB","","trustrating_stim/white_00898_960530_fa_edt.bmp","null","","","","","","","","","","",""
"image-keyboard-response","81","101263","0.0-6.0-1.38","6400d916e410c86255a45836","bdp_trlrn","Mon Mar 13 2023 12:05:14 GMT-0700 (Pacific Daylight Time)","625230","Trustworthy,Untrustworthy","","1609","","","","rating","","trustrating_stim/white_00659_941121_fa_edt.bmp","3","","","","","","","","","","",""
"image-keyboard-response","82","101466","0.0-6.0-2.38","6400d916e410c86255a45836","bdp_trlrn","Mon Mar 13 2023 12:05:14 GMT-0700 (Pacific Daylight Time)","625230","Trustworthy,Untrustworthy","","null","","","","ratingFB","","trustrating_stim/white_00659_941121_fa_edt.bmp","null","","","","","","","","","","",""
"image-keyboard-response","83","103102","0.0-6.0-1.39","6400d916e410c86255a45836","bdp_trlrn","Mon Mar 13 2023 12:05:14 GMT-0700 (Pacific Daylight Time)","625230","Trustworthy,Untrustworthy","","1532","","","","rating","","trustrating_stim/white_00120_931230_fa_edt.bmp","5","","","","","","","","","","",""
"image-keyboard-response","84","103314","0.0-6.0-2.39","6400d916e410c86255a45836","bdp_trlrn","Mon Mar 13 2023 12:05:14 GMT-0700 (Pacific Daylight Time)","625230","Trustworthy,Untrustworthy","","null","","","","ratingFB","","trustrating_stim/white_00120_931230_fa_edt.bmp","null","","","","","","","","","","",""
"image-keyboard-response","85","104689","0.0-6.0-1.40","6400d916e410c86255a45836","bdp_trlrn","Mon Mar 13 2023 12:05:14 GMT-0700 (Pacific Daylight Time)","625230","Trustworthy,Untrustworthy","","1269","","","","rating","","trustrating_stim/white_mw046.bmp","1","","","","","","","","","","",""
"image-keyboard-response","86","104897","0.0-6.0-2.40","6400d916e410c86255a45836","bdp_trlrn","Mon Mar 13 2023 12:05:14 GMT-0700 (Pacific Daylight Time)","625230","Trustworthy,Untrustworthy","","null","","","","ratingFB","","trustrating_stim/white_mw046.bmp","null","","","","","","","","","","",""
"image-keyboard-response","87","106411","0.0-6.0-1.41","6400d916e410c86255a45836","bdp_trlrn","Mon Mar 13 2023 12:05:14 GMT-0700 (Pacific Daylight Time)","625230","Trustworthy,Untrustworthy","","1409","","","","rating","","trustrating_stim/white_mw063.bmp","2","","","","","","","","","","",""
"image-keyboard-response","88","106612","0.0-6.0-2.41","6400d916e410c86255a45836","bdp_trlrn","Mon Mar 13 2023 12:05:14 GMT-0700 (Pacific Daylight Time)","625230","Trustworthy,Untrustworthy","","null","","","","ratingFB","","trustrating_stim/white_mw063.bmp","null","","","","","","","","","","",""
"image-keyboard-response","89","109300","0.0-6.0-1.42","6400d916e410c86255a45836","bdp_trlrn","Mon Mar 13 2023 12:05:14 GMT-0700 (Pacific Daylight Time)","625230","Trustworthy,Untrustworthy","","2582","","","","rating","","trustrating_stim/white_mw089.bmp","7","","","","","","","","","","",""
"image-keyboard-response","90","109511","0.0-6.0-2.42","6400d916e410c86255a45836","bdp_trlrn","Mon Mar 13 2023 12:05:14 GMT-0700 (Pacific Daylight Time)","625230","Trustworthy,Untrustworthy","","null","","","","ratingFB","","trustrating_stim/white_mw089.bmp","null","","","","","","","","","","",""
"image-keyboard-response","91","111926","0.0-6.0-1.43","6400d916e410c86255a45836","bdp_trlrn","Mon Mar 13 2023 12:05:14 GMT-0700 (Pacific Daylight Time)","625230","Trustworthy,Untrustworthy","","2309","","","","rating","","trustrating_stim/white_mw035.bmp","2","","","","","","","","","","",""
"image-keyboard-response","92","112127","0.0-6.0-2.43","6400d916e410c86255a45836","bdp_trlrn","Mon Mar 13 2023 12:05:14 GMT-0700 (Pacific Daylight Time)","625230","Trustworthy,Untrustworthy","","null","","","","ratingFB","","trustrating_stim/white_mw035.bmp","null","","","","","","","","","","",""
"image-keyboard-response","93","113179","0.0-6.0-1.44","6400d916e410c86255a45836","bdp_trlrn","Mon Mar 13 2023 12:05:14 GMT-0700 (Pacific Daylight Time)","625230","Trustworthy,Untrustworthy","","947","","","","rating","","trustrating_stim/white_00519_940519_fb_edt.bmp","1","","","","","","","","","","",""
"image-keyboard-response","94","113392","0.0-6.0-2.44","6400d916e410c86255a45836","bdp_trlrn","Mon Mar 13 2023 12:05:14 GMT-0700 (Pacific Daylight Time)","625230","Trustworthy,Untrustworthy","","null","","","","ratingFB","","trustrating_stim/white_00519_940519_fb_edt.bmp","null","","","","","","","","","","",""
"image-keyboard-response","95","115791","0.0-6.0-1.45","6400d916e410c86255a45836","bdp_trlrn","Mon Mar 13 2023 12:05:14 GMT-0700 (Pacific Daylight Time)","625230","Trustworthy,Untrustworthy","","2293","","","","rating","","trustrating_stim/white_00109_931230_fa_edt.bmp","4","","","","","","","","","","",""
"image-keyboard-response","96","116007","0.0-6.0-2.45","6400d916e410c86255a45836","bdp_trlrn","Mon Mar 13 2023 12:05:14 GMT-0700 (Pacific Daylight Time)","625230","Trustworthy,Untrustworthy","","null","","","","ratingFB","","trustrating_stim/white_00109_931230_fa_edt.bmp","null","","","","","","","","","","",""
"image-keyboard-response","97","117448","0.0-6.0-1.46","6400d916e410c86255a45836","bdp_trlrn","Mon Mar 13 2023 12:05:14 GMT-0700 (Pacific Daylight Time)","625230","Trustworthy,Untrustworthy","","1321","","","","rating","","trustrating_stim/white_mw053.bmp","2","","","","","","","","","","",""
"image-keyboard-response","98","117655","0.0-6.0-2.46","6400d916e410c86255a45836","bdp_trlrn","Mon Mar 13 2023 12:05:14 GMT-0700 (Pacific Daylight Time)","625230","Trustworthy,Untrustworthy","","null","","","","ratingFB","","trustrating_stim/white_mw053.bmp","null","","","","","","","","","","",""
"image-keyboard-response","99","118518","0.0-6.0-1.47","6400d916e410c86255a45836","bdp_trlrn","Mon Mar 13 2023 12:05:14 GMT-0700 (Pacific Daylight Time)","625230","Trustworthy,Untrustworthy","","757","","","","rating","","trustrating_stim/white_mw097.bmp","1","","","","","","","","","","",""
"image-keyboard-response","100","118721","0.0-6.0-2.47","6400d916e410c86255a45836","bdp_trlrn","Mon Mar 13 2023 12:05:14 GMT-0700 (Pacific Daylight Time)","625230","Trustworthy,Untrustworthy","","null","","","","ratingFB","","trustrating_stim/white_mw097.bmp","null","","","","","","","","","","",""
"image-keyboard-response","101","120685","0.0-6.0-1.48","6400d916e410c86255a45836","bdp_trlrn","Mon Mar 13 2023 12:05:14 GMT-0700 (Pacific Daylight Time)","625230","Trustworthy,Untrustworthy","","1859","","","","rating","","trustrating_stim/white_00602_940928_fb_edt.bmp","7","","","","","","","","","","",""
"image-keyboard-response","102","120902","0.0-6.0-2.48","6400d916e410c86255a45836","bdp_trlrn","Mon Mar 13 2023 12:05:14 GMT-0700 (Pacific Daylight Time)","625230","Trustworthy,Untrustworthy","","null","","","","ratingFB","","trustrating_stim/white_00602_940928_fb_edt.bmp","null","","","","","","","","","","",""
"image-keyboard-response","103","122655","0.0-6.0-1.49","6400d916e410c86255a45836","bdp_trlrn","Mon Mar 13 2023 12:05:14 GMT-0700 (Pacific Daylight Time)","625230","Trustworthy,Untrustworthy","","1643","","","","rating","","trustrating_stim/white_00577_940928_fa_edt.bmp","2","","","","","","","","","","",""
"image-keyboard-response","104","122868","0.0-6.0-2.49","6400d916e410c86255a45836","bdp_trlrn","Mon Mar 13 2023 12:05:14 GMT-0700 (Pacific Daylight Time)","625230","Trustworthy,Untrustworthy","","null","","","","ratingFB","","trustrating_stim/white_00577_940928_fa_edt.bmp","null","","","","","","","","","","",""
"image-keyboard-response","105","123749","0.0-6.0-1.50","6400d916e410c86255a45836","bdp_trlrn","Mon Mar 13 2023 12:05:14 GMT-0700 (Pacific Daylight Time)","625230","Trustworthy,Untrustworthy","","775","","","","rating","","trustrating_stim/white_mw071.bmp","1","","","","","","","","","","",""
"image-keyboard-response","106","123952","0.0-6.0-2.50","6400d916e410c86255a45836","bdp_trlrn","Mon Mar 13 2023 12:05:14 GMT-0700 (Pacific Daylight Time)","625230","Trustworthy,Untrustworthy","","null","","","","ratingFB","","trustrating_stim/white_mw071.bmp","null","","","","","","","","","","",""
"image-keyboard-response","107","125674","0.0-6.0-1.51","6400d916e410c86255a45836","bdp_trlrn","Mon Mar 13 2023 12:05:14 GMT-0700 (Pacific Daylight Time)","625230","Trustworthy,Untrustworthy","","1617","","","","rating","","trustrating_stim/white_00129_931230_fb_edt.bmp","7","","","","","","","","","","",""
"image-keyboard-response","108","125883","0.0-6.0-2.51","6400d916e410c86255a45836","bdp_trlrn","Mon Mar 13 2023 12:05:14 GMT-0700 (Pacific Daylight Time)","625230","Trustworthy,Untrustworthy","","null","","","","ratingFB","","trustrating_stim/white_00129_931230_fb_edt.bmp","null","","","","","","","","","","",""
"image-keyboard-response","109","127157","0.0-6.0-1.52","6400d916e410c86255a45836","bdp_trlrn","Mon Mar 13 2023 12:05:14 GMT-0700 (Pacific Daylight Time)","625230","Trustworthy,Untrustworthy","","1168","","","","rating","","trustrating_stim/white_00299_940422_fa_edt.bmp","7","","","","","","","","","","",""
"image-keyboard-response","110","127365","0.0-6.0-2.52","6400d916e410c86255a45836","bdp_trlrn","Mon Mar 13 2023 12:05:14 GMT-0700 (Pacific Daylight Time)","625230","Trustworthy,Untrustworthy","","null","","","","ratingFB","","trustrating_stim/white_00299_940422_fa_edt.bmp","null","","","","","","","","","","",""
"image-keyboard-response","111","129007","0.0-6.0-1.53","6400d916e410c86255a45836","bdp_trlrn","Mon Mar 13 2023 12:05:14 GMT-0700 (Pacific Daylight Time)","625230","Trustworthy,Untrustworthy","","1536","","","","rating","","trustrating_stim/white_mw099.bmp","3","","","","","","","","","","",""
"image-keyboard-response","112","129215","0.0-6.0-2.53","6400d916e410c86255a45836","bdp_trlrn","Mon Mar 13 2023 12:05:14 GMT-0700 (Pacific Daylight Time)","625230","Trustworthy,Untrustworthy","","null","","","","ratingFB","","trustrating_stim/white_mw099.bmp","null","","","","","","","","","","",""
"image-keyboard-response","113","129958","0.0-6.0-1.54","6400d916e410c86255a45836","bdp_trlrn","Mon Mar 13 2023 12:05:14 GMT-0700 (Pacific Daylight Time)","625230","Trustworthy,Untrustworthy","","637","","","","rating","","trustrating_stim/white_00340_940422_fa_edt.bmp","1","","","","","","","","","","",""
"image-keyboard-response","114","130165","0.0-6.0-2.54","6400d916e410c86255a45836","bdp_trlrn","Mon Mar 13 2023 12:05:14 GMT-0700 (Pacific Daylight Time)","625230","Trustworthy,Untrustworthy","","null","","","","ratingFB","","trustrating_stim/white_00340_940422_fa_edt.bmp","null","","","","","","","","","","",""
"image-keyboard-response","115","132067","0.0-6.0-1.55","6400d916e410c86255a45836","bdp_trlrn","Mon Mar 13 2023 12:05:14 GMT-0700 (Pacific Daylight Time)","625230","Trustworthy,Untrustworthy","","1792","","","","rating","","trustrating_stim/white_00223_940128_fb_edt.bmp","4","","","","","","","","","","",""
"image-keyboard-response","116","132280","0.0-6.0-2.55","6400d916e410c86255a45836","bdp_trlrn","Mon Mar 13 2023 12:05:14 GMT-0700 (Pacific Daylight Time)","625230","Trustworthy,Untrustworthy","","null","","","","ratingFB","","trustrating_stim/white_00223_940128_fb_edt.bmp","null","","","","","","","","","","",""
"image-keyboard-response","117","133247","0.0-6.0-1.56","6400d916e410c86255a45836","bdp_trlrn","Mon Mar 13 2023 12:05:14 GMT-0700 (Pacific Daylight Time)","625230","Trustworthy,Untrustworthy","","860","","","","rating","","trustrating_stim/white_00761_941201_fb_edt.bmp","1","","","","","","","","","","",""
"image-keyboard-response","118","133462","0.0-6.0-2.56","6400d916e410c86255a45836","bdp_trlrn","Mon Mar 13 2023 12:05:14 GMT-0700 (Pacific Daylight Time)","625230","Trustworthy,Untrustworthy","","null","","","","ratingFB","","trustrating_stim/white_00761_941201_fb_edt.bmp","null","","","","","","","","","","",""
"image-keyboard-response","119","135612","0.0-6.0-1.57","6400d916e410c86255a45836","bdp_trlrn","Mon Mar 13 2023 12:05:14 GMT-0700 (Pacific Daylight Time)","625230","Trustworthy,Untrustworthy","","2043","","","","rating","","trustrating_stim/white_mw066.bmp","4","","","","","","","","","","",""
"image-keyboard-response","120","135812","0.0-6.0-2.57","6400d916e410c86255a45836","bdp_trlrn","Mon Mar 13 2023 12:05:14 GMT-0700 (Pacific Daylight Time)","625230","Trustworthy,Untrustworthy","","null","","","","ratingFB","","trustrating_stim/white_mw066.bmp","null","","","","","","","","","","",""
"image-keyboard-response","121","136775","0.0-6.0-1.58","6400d916e410c86255a45836","bdp_trlrn","Mon Mar 13 2023 12:05:14 GMT-0700 (Pacific Daylight Time)","625230","Trustworthy,Untrustworthy","","857","","","","rating","","trustrating_stim/white_00785_941205_fb_edt.bmp","1","","","","","","","","","","",""
"image-keyboard-response","122","136978","0.0-6.0-2.58","6400d916e410c86255a45836","bdp_trlrn","Mon Mar 13 2023 12:05:14 GMT-0700 (Pacific Daylight Time)","625230","Trustworthy,Untrustworthy","","null","","","","ratingFB","","trustrating_stim/white_00785_941205_fb_edt.bmp","null","","","","","","","","","","",""
"image-keyboard-response","123","138646","0.0-6.0-1.59","6400d916e410c86255a45836","bdp_trlrn","Mon Mar 13 2023 12:05:14 GMT-0700 (Pacific Daylight Time)","625230","Trustworthy,Untrustworthy","","1563","","","","rating","","trustrating_stim/white_mw049.bmp","7","","","","","","","","","","",""
"image-keyboard-response","124","138849","0.0-6.0-2.59","6400d916e410c86255a45836","bdp_trlrn","Mon Mar 13 2023 12:05:14 GMT-0700 (Pacific Daylight Time)","625230","Trustworthy,Untrustworthy","","null","","","","ratingFB","","trustrating_stim/white_mw049.bmp","null","","","","","","","","","","",""
"instructions","125","140196","0.0-7.0","6400d916e410c86255a45836","bdp_trlrn","Mon Mar 13 2023 12:05:14 GMT-0700 (Pacific Daylight Time)","625230","Trustworthy,Untrustworthy","[{""page_index"":0,""viewing_time"":1232}]","1232","","","","","","","","","","","","","","","","","",""
"instructions","126","248117","0.0-8.0","6400d916e410c86255a45836","bdp_trlrn","Mon Mar 13 2023 12:05:14 GMT-0700 (Pacific Daylight Time)","625230","Trustworthy,Untrustworthy","[{""page_index"":0,""viewing_time"":16735},{""page_index"":1,""viewing_time"":10490},{""page_index"":2,""viewing_time"":8422},{""page_index"":3,""viewing_time"":12335},{""page_index"":4,""viewing_time"":19894},{""page_index"":5,""viewing_time"":9519},{""page_index"":6,""viewing_time"":26650},{""page_index"":7,""viewing_time"":3773}]","107818","","","","","","","","","","","","","","","","","",""
"html-keyboard-response","127","254605","0.0-9.0","6400d916e410c86255a45836","bdp_trlrn","Mon Mar 13 2023 12:05:14 GMT-0700 (Pacific Daylight Time)","625230","Trustworthy,Untrustworthy","","6487","","","","","","<div class='header' style='text-align:left; position: absolute; top: 5%; left: 5%;'><small>Task 2 of 5</small></div><div class='instruxDiv'><p><strong>1) What is the minimum number of points you can choose to send to your partner?</strong></p><p>a) 0</p><p>b) 1</p><p>c) 5</p>","C","","","","","","","","","","",""
"html-keyboard-response","128","263901","0.0-10.0","6400d916e410c86255a45836","bdp_trlrn","Mon Mar 13 2023 12:05:14 GMT-0700 (Pacific Daylight Time)","625230","Trustworthy,Untrustworthy","","9182","","","","","","<div class='header' style='text-align:left; position: absolute; top: 5%; left: 5%;'><small>Task 2 of 5</small></div><div class='instruxDiv'><p><strong>1) What is the minimum number of points you can choose to send to your partner?</strong></p><p>a) 1</p><p>b) 1</p><p style='color:#FF0000'>c) 5</p><h3 style='color:#FF0000'>Incorrect!</h3><h3 class='center-content'>The correct response is b).</h3><h3 class='center-content'>The minimum number of points you can choose to send to your partner is 1 point.</h3><p><em>Press SPACEBAR to continue</em></p></div>"," ","","","","","","","","","","",""
"html-keyboard-response","129","267043","0.0-11.0","6400d916e410c86255a45836","bdp_trlrn","Mon Mar 13 2023 12:05:14 GMT-0700 (Pacific Daylight Time)","625230","Trustworthy,Untrustworthy","","3031","","","","","","<div class='header' style='text-align:left; position: absolute; top: 5%; left: 5%;'><small>Task 2 of 5</small></div><div class='instruxDiv'><p><strong>2) What is the maximum number of points you can choose to send to your partner?</strong></p><p>a) 8</p><p>b) 5</p><p>c) 3</p>","B","","","","","","","","","","",""
"html-keyboard-response","130","268680","0.0-12.0","6400d916e410c86255a45836","bdp_trlrn","Mon Mar 13 2023 12:05:14 GMT-0700 (Pacific Daylight Time)","625230","Trustworthy,Untrustworthy","","1533","","","","","","<div class='header' style='text-align:left; position: absolute; top: 5%; left: 5%;'><small>Task 2 of 5</small></div><div class='instruxDiv'><p><strong>2) What is the maximum number of points you can choose to send to your partner?</strong></p><p>a) 8</p><p style='color:#00FF00'>b) 5</p><p>c) 3</p><h3 style='color:#00FF00'>Correct!</h3><h3 class='center-content'>The correct response is b).</h3><h3 class='center-content'>The maximum number of points you can choose to send to your partner is 5 points.</h3><p><em>Press SPACEBAR to continue</em></p></div>"," ","","","","","","","","","","",""
"html-keyboard-response","131","272301","0.0-13.0","6400d916e410c86255a45836","bdp_trlrn","Mon Mar 13 2023 12:05:14 GMT-0700 (Pacific Daylight Time)","625230","Trustworthy,Untrustworthy","","3506","","","","","","<div class='header' style='text-align:left; position: absolute; top: 5%; left: 5%;'><small>Task 2 of 5</small></div><div class='instruxDiv'><p><strong>3) What happens to the amount of points you send to your partner?</strong></p><p>a) Nothing</p><p>b) It doubles</p><p>c) It quadruples</p>","C","","","","","","","","","","",""
"html-keyboard-response","132","273248","0.0-14.0","6400d916e410c86255a45836","bdp_trlrn","Mon Mar 13 2023 12:05:14 GMT-0700 (Pacific Daylight Time)","625230","Trustworthy,Untrustworthy","","840","","","","","","<div class='header' style='text-align:left; position: absolute; top: 5%; left: 5%;'><small>Task 2 of 5</small></div><div class='instruxDiv'><p><strong>3) What happens to the amount of points you send to your partner?</strong></p><p>a) Nothing</p><p>b) It doubles</p><p style='color:#00FF00'>c) It quadruples</p><h3 style='color:#00FF00'>Correct!</h3><h3 class='center-content'>The correct response is c).</h3><h3 class='center-content'>The amount of points you send to your partner quadruples.</h3><p><em>Press SPACEBAR to continue</em></p></div>"," ","","","","","","","","","","",""
"html-keyboard-response","133","305749","0.0-15.0","6400d916e410c86255a45836","bdp_trlrn","Mon Mar 13 2023 12:05:14 GMT-0700 (Pacific Daylight Time)","625230","Trustworthy,Untrustworthy","","32391","","","","","","<div class='header' style='text-align:left; position: absolute; top: 5%; left: 5%;'><small>Task 2 of 5</small></div><div class='instruxDiv'><p><strong>4) If you decided to share 4 out of 5 points with your partner, and they decided to share half of the amount they received with you, how many points would you receive back from them on this round?</strong></p><p>a) 16</p><p>b) 0</p><p>c) 8</p>","C","","","","","","","","","","",""
"html-keyboard-response","134","306941","0.0-16.0","6400d916e410c86255a45836","bdp_trlrn","Mon Mar 13 2023 12:05:14 GMT-0700 (Pacific Daylight Time)","625230","Trustworthy,Untrustworthy","","1082","","","","","","<div class='header' style='text-align:left; position: absolute; top: 5%; left: 5%;'><small>Task 2 of 5</small></div><div class='instruxDiv'><p><strong>4) If you decided to share 4 out of 5 points with your partner, and they decided to share half of the amount they received with you, how many points would you receive back from them on this round?</strong></p><p>a) 16</p><p>b) 0</p><p style='color:#00FF00'>c) 8</p><h3 style='color:#00FF00'>Correct!</h3><h3 class='center-content'>The correct response is c).</h3><h3 class='center-content'>If you shared 4 out of 5 points with your partner and they decided to share half of the amount they received with you, you would receive 8 points back (i.e. (4 x 4)/2 = 8).</h3><p><em>Press SPACEBAR to continue</em></p></div>"," ","","","","","","","","","","",""
"html-keyboard-response","135","312063","0.0-17.0","6400d916e410c86255a45836","bdp_trlrn","Mon Mar 13 2023 12:05:14 GMT-0700 (Pacific Daylight Time)","625230","Trustworthy,Untrustworthy","","null","","","","","","<div class='header' style='text-align:left; position: absolute; top: 5%; left: 5%;'><small>Task 2 of 5</small></div><div class='instruxDiv'><p>Thank you for completing the quiz<p>These are the actual partners you will be interacting with in the next block:<p><div class='tc' align='center'><img class='introPic' src='trustrating_stim/white_mw048.bmp'><br><strong>Timothy</strong></div><div class='bl' align='center'><img class='introPic' src='trustrating_stim/white_00109_931230_fa_edt.bmp'><br><strong>Daniel</strong></div><div class='br' align='center'><img class='introPic' src='trustrating_stim/white_00602_940928_fb_edt.bmp'><br><strong>Aaron</strong></div></div><p>Across <strong>66 rounds</strong> you will interact with each partner <strong>22 times</strong> (in random order).<p style='align:center; color:white'><font <em>Press SPACEBAR to continue</em></p>","null","","","","","","","","","","",""
"instructions","136","318663","0.0-18.0","6400d916e410c86255a45836","bdp_trlrn","Mon Mar 13 2023 12:05:14 GMT-0700 (Pacific Daylight Time)","625230","Trustworthy,Untrustworthy","[{""page_index"":0,""viewing_time"":5032},{""page_index"":1,""viewing_time"":1568}]","6600","","","","","","","","","","","","","","","","","",""
"html-keyboard-response","137","324214","0.0-19.0-1.0","6400d916e410c86255a45836","bdp_trlrn","Mon Mar 13 2023 12:05:14 GMT-0700 (Pacific Daylight Time)","625230","Trustworthy,Untrustworthy","","5445","","","","decision","","<div class='trialDiv'><img src='trustrating_stim/white_00109_931230_fa_edt.bmp'><br><font class='baseline'><strong>Daniel</strong><p>Choose number of points to send.</font><div class='respPicDiv'><img src='img/responseButtonOffersNo0L.png' class='respPic'></div></div>","5","1","Daniel","4","Kept","0.2,0.65","12","0.2","trustrating_stim/white_00109_931230_fa_edt.bmp","3","5","1"
"html-keyboard-response","138","324473","0.0-19.0-2.0","6400d916e410c86255a45836","bdp_trlrn","Mon Mar 13 2023 12:05:14 GMT-0700 (Pacific Daylight Time)","625230","Trustworthy,Untrustworthy","","null","","","","decisionFB","","<div class='trialDiv'><img src='trustrating_stim/white_00109_931230_fa_edt.bmp'><br><font class='baseline'><strong>Daniel</strong><p>Choose number of points to send.</font><div class='respPicDiv'><img src='img/responseButtonOffersNo0L5.png' class='respPic'></div></div>","null","1","Daniel","4","Kept","0.2,0.65","12","0.2","trustrating_stim/white_00109_931230_fa_edt.bmp","3","0","1"
"html-keyboard-response","139","325477","0.0-19.0-3.0","6400d916e410c86255a45836","bdp_trlrn","Mon Mar 13 2023 12:05:14 GMT-0700 (Pacific Daylight Time)","625230","Trustworthy,Untrustworthy","","null","","","","feedback","","<div class='trialDiv'><img src='trustrating_stim/white_00109_931230_fa_edt.bmp'><br><font class='baseline'><strong>Daniel</strong><p>Received: <strong>20</strong></font> &nbsp; &nbsp; &nbsp; &nbsp; &nbsp; &nbsp;<font class='negOutcome'>Shared back: <strong>0</strong></font></font><div class='respPicDiv'><img src='img/responseButtonOffersNo0_wht.png' class='respPic'></div></div>","null","1","Daniel","4","Kept","0.2,0.65","12","0.2","trustrating_stim/white_00109_931230_fa_edt.bmp","3","0","1"
"html-keyboard-response","140","328047","0.0-19.0-1.1","6400d916e410c86255a45836","bdp_trlrn","Mon Mar 13 2023 12:05:14 GMT-0700 (Pacific Daylight Time)","625230","Trustworthy,Untrustworthy","","2569","","","","decision","","<div class='trialDiv'><img src='trustrating_stim/white_00602_940928_fb_edt.bmp'><br><font class='baseline'><strong>Aaron</strong><p>Choose number of points to send.</font><div class='respPicDiv'><img src='img/responseButtonOffersNo0L.png' class='respPic'></div></div>","5","1","Aaron","8","Kept","0.65,0.2","8","0.65","trustrating_stim/white_00602_940928_fb_edt.bmp","7","5","2"
"html-keyboard-response","141","328305","0.0-19.0-2.1","6400d916e410c86255a45836","bdp_trlrn","Mon Mar 13 2023 12:05:14 GMT-0700 (Pacific Daylight Time)","625230","Trustworthy,Untrustworthy","","null","","","","decisionFB","","<div class='trialDiv'><img src='trustrating_stim/white_00602_940928_fb_edt.bmp'><br><font class='baseline'><strong>Aaron</strong><p>Choose number of points to send.</font><div class='respPicDiv'><img src='img/responseButtonOffersNo0L5.png' class='respPic'></div></div>","null","1","Aaron","8","Kept","0.65,0.2","8","0.65","trustrating_stim/white_00602_940928_fb_edt.bmp","7","0","2"
"html-keyboard-response","142","329313","0.0-19.0-3.1","6400d916e410c86255a45836","bdp_trlrn","Mon Mar 13 2023 12:05:14 GMT-0700 (Pacific Daylight Time)","625230","Trustworthy,Untrustworthy","","null","","","","feedback","","<div class='trialDiv'><img src='trustrating_stim/white_00602_940928_fb_edt.bmp'><br><font class='baseline'><strong>Aaron</strong><p>Received: <strong>20</strong></font> &nbsp; &nbsp; &nbsp; &nbsp; &nbsp; &nbsp;<font class='negOutcome'>Shared back: <strong>0</strong></font></font><div class='respPicDiv'><img src='img/responseButtonOffersNo0_wht.png' class='respPic'></div></div>","null","1","Aaron","8","Kept","0.65,0.2","8","0.65","trustrating_stim/white_00602_940928_fb_edt.bmp","7","0","2"
"html-keyboard-response","143","331789","0.0-19.0-1.2","6400d916e410c86255a45836","bdp_trlrn","Mon Mar 13 2023 12:05:14 GMT-0700 (Pacific Daylight Time)","625230","Trustworthy,Untrustworthy","","2475","","","","decision","","<div class='trialDiv'><img src='trustrating_stim/white_mw048.bmp'><br><font class='baseline'><strong>Timothy</strong><p>Choose number of points to send.</font><div class='respPicDiv'><img src='img/responseButtonOffersNo0L.png' class='respPic'></div></div>","5","1","Timothy","3","Kept","0.2,0.8","10","0.2","trustrating_stim/white_mw048.bmp","1","5","3"
"html-keyboard-response","144","332052","0.0-19.0-2.2","6400d916e410c86255a45836","bdp_trlrn","Mon Mar 13 2023 12:05:14 GMT-0700 (Pacific Daylight Time)","625230","Trustworthy,Untrustworthy","","null","","","","decisionFB","","<div class='trialDiv'><img src='trustrating_stim/white_mw048.bmp'><br><font class='baseline'><strong>Timothy</strong><p>Choose number of points to send.</font><div class='respPicDiv'><img src='img/responseButtonOffersNo0L5.png' class='respPic'></div></div>","null","1","Timothy","3","Kept","0.2,0.8","10","0.2","trustrating_stim/white_mw048.bmp","1","0","3"
"html-keyboard-response","145","333057","0.0-19.0-3.2","6400d916e410c86255a45836","bdp_trlrn","Mon Mar 13 2023 12:05:14 GMT-0700 (Pacific Daylight Time)","625230","Trustworthy,Untrustworthy","","null","","","","feedback","","<div class='trialDiv'><img src='trustrating_stim/white_mw048.bmp'><br><font class='baseline'><strong>Timothy</strong><p>Received: <strong>20</strong></font> &nbsp; &nbsp; &nbsp; &nbsp; &nbsp; &nbsp;<font class='negOutcome'>Shared back: <strong>0</strong></font></font><div class='respPicDiv'><img src='img/responseButtonOffersNo0_wht.png' class='respPic'></div></div>","null","1","Timothy","3","Kept","0.2,0.8","10","0.2","trustrating_stim/white_mw048.bmp","1","0","3"
"html-keyboard-response","146","335343","0.0-19.0-1.3","6400d916e410c86255a45836","bdp_trlrn","Mon Mar 13 2023 12:05:14 GMT-0700 (Pacific Daylight Time)","625230","Trustworthy,Untrustworthy","","2286","","","","decision","","<div class='trialDiv'><img src='trustrating_stim/white_00109_931230_fa_edt.bmp'><br><font class='baseline'><strong>Daniel</strong><p>Choose number of points to send.</font><div class='respPicDiv'><img src='img/responseButtonOffersNo0L.png' class='respPic'></div></div>","5","2","Daniel","4","Shared","0.2,0.65","12","0.2","trustrating_stim/white_00109_931230_fa_edt.bmp","3","5","4"
"html-keyboard-response","147","335603","0.0-19.0-2.3","6400d916e410c86255a45836","bdp_trlrn","Mon Mar 13 2023 12:05:14 GMT-0700 (Pacific Daylight Time)","625230","Trustworthy,Untrustworthy","","null","","","","decisionFB","","<div class='trialDiv'><img src='trustrating_stim/white_00109_931230_fa_edt.bmp'><br><font class='baseline'><strong>Daniel</strong><p>Choose number of points to send.</font><div class='respPicDiv'><img src='img/responseButtonOffersNo0L5.png' class='respPic'></div></div>","null","2","Daniel","4","Shared","0.2,0.65","12","0.2","trustrating_stim/white_00109_931230_fa_edt.bmp","3","0","4"
"html-keyboard-response","148","336609","0.0-19.0-3.3","6400d916e410c86255a45836","bdp_trlrn","Mon Mar 13 2023 12:05:14 GMT-0700 (Pacific Daylight Time)","625230","Trustworthy,Untrustworthy","","null","","","","feedback","","<div class='trialDiv'><img src='trustrating_stim/white_00109_931230_fa_edt.bmp'><br><font class='baseline'><strong>Daniel</strong><p>Received: <strong>20</strong></font> &nbsp; &nbsp; &nbsp; &nbsp; &nbsp; &nbsp;<font class='posOutcome'>Shared back: <strong>10</strong></font></font><div class='respPicDiv'><img src='img/responseButtonOffersNo0_wht.png' class='respPic'></div></div>","null","2","Daniel","4","Shared","0.2,0.65","12","0.2","trustrating_stim/white_00109_931230_fa_edt.bmp","3","10","4"
"html-keyboard-response","149","338809","0.0-19.0-1.4","6400d916e410c86255a45836","bdp_trlrn","Mon Mar 13 2023 12:05:14 GMT-0700 (Pacific Daylight Time)","625230","Trustworthy,Untrustworthy","","2199","","","","decision","","<div class='trialDiv'><img src='trustrating_stim/white_00602_940928_fb_edt.bmp'><br><font class='baseline'><strong>Aaron</strong><p>Choose number of points to send.</font><div class='respPicDiv'><img src='img/responseButtonOffersNo0L.png' class='respPic'></div></div>","5","2","Aaron","8","Shared","0.65,0.2","8","0.65","trustrating_stim/white_00602_940928_fb_edt.bmp","7","15","5"
"html-keyboard-response","150","339066","0.0-19.0-2.4","6400d916e410c86255a45836","bdp_trlrn","Mon Mar 13 2023 12:05:14 GMT-0700 (Pacific Daylight Time)","625230","Trustworthy,Untrustworthy","","null","","","","decisionFB","","<div class='trialDiv'><img src='trustrating_stim/white_00602_940928_fb_edt.bmp'><br><font class='baseline'><strong>Aaron</strong><p>Choose number of points to send.</font><div class='respPicDiv'><img src='img/responseButtonOffersNo0L5.png' class='respPic'></div></div>","null","2","Aaron","8","Shared","0.65,0.2","8","0.65","trustrating_stim/white_00602_940928_fb_edt.bmp","7","10","5"
"html-keyboard-response","151","340075","0.0-19.0-3.4","6400d916e410c86255a45836","bdp_trlrn","Mon Mar 13 2023 12:05:14 GMT-0700 (Pacific Daylight Time)","625230","Trustworthy,Untrustworthy","","null","","","","feedback","","<div class='trialDiv'><img src='trustrating_stim/white_00602_940928_fb_edt.bmp'><br><font class='baseline'><strong>Aaron</strong><p>Received: <strong>20</strong></font> &nbsp; &nbsp; &nbsp; &nbsp; &nbsp; &nbsp;<font class='posOutcome'>Shared back: <strong>10</strong></font></font><div class='respPicDiv'><img src='img/responseButtonOffersNo0_wht.png' class='respPic'></div></div>","null","2","Aaron","8","Shared","0.65,0.2","8","0.65","trustrating_stim/white_00602_940928_fb_edt.bmp","7","20","5"
"html-keyboard-response","152","340958","0.0-19.0-1.5","6400d916e410c86255a45836","bdp_trlrn","Mon Mar 13 2023 12:05:14 GMT-0700 (Pacific Daylight Time)","625230","Trustworthy,Untrustworthy","","882","","","","decision","","<div class='trialDiv'><img src='trustrating_stim/white_mw048.bmp'><br><font class='baseline'><strong>Timothy</strong><p>Choose number of points to send.</font><div class='respPicDiv'><img src='img/responseButtonOffersNo0L.png' class='respPic'></div></div>","5","2","Timothy","3","Kept","0.2,0.8","10","0.2","trustrating_stim/white_mw048.bmp","1","25","6"
"html-keyboard-response","153","341215","0.0-19.0-2.5","6400d916e410c86255a45836","bdp_trlrn","Mon Mar 13 2023 12:05:14 GMT-0700 (Pacific Daylight Time)","625230","Trustworthy,Untrustworthy","","null","","","","decisionFB","","<div class='trialDiv'><img src='trustrating_stim/white_mw048.bmp'><br><font class='baseline'><strong>Timothy</strong><p>Choose number of points to send.</font><div class='respPicDiv'><img src='img/responseButtonOffersNo0L5.png' class='respPic'></div></div>","null","2","Timothy","3","Kept","0.2,0.8","10","0.2","trustrating_stim/white_mw048.bmp","1","20","6"
"html-keyboard-response","154","342218","0.0-19.0-3.5","6400d916e410c86255a45836","bdp_trlrn","Mon Mar 13 2023 12:05:14 GMT-0700 (Pacific Daylight Time)","625230","Trustworthy,Untrustworthy","","null","","","","feedback","","<div class='trialDiv'><img src='trustrating_stim/white_mw048.bmp'><br><font class='baseline'><strong>Timothy</strong><p>Received: <strong>20</strong></font> &nbsp; &nbsp; &nbsp; &nbsp; &nbsp; &nbsp;<font class='negOutcome'>Shared back: <strong>0</strong></font></font><div class='respPicDiv'><img src='img/responseButtonOffersNo0_wht.png' class='respPic'></div></div>","null","2","Timothy","3","Kept","0.2,0.8","10","0.2","trustrating_stim/white_mw048.bmp","1","20","6"
"html-keyboard-response","155","343026","0.0-19.0-1.6","6400d916e410c86255a45836","bdp_trlrn","Mon Mar 13 2023 12:05:14 GMT-0700 (Pacific Daylight Time)","625230","Trustworthy,Untrustworthy","","807","","","","decision","","<div class='trialDiv'><img src='trustrating_stim/white_00602_940928_fb_edt.bmp'><br><font class='baseline'><strong>Aaron</strong><p>Choose number of points to send.</font><div class='respPicDiv'><img src='img/responseButtonOffersNo0L.png' class='respPic'></div></div>","5","3","Aaron","8","Kept","0.65,0.2","8","0.65","trustrating_stim/white_00602_940928_fb_edt.bmp","7","25","7"
"html-keyboard-response","156","343281","0.0-19.0-2.6","6400d916e410c86255a45836","bdp_trlrn","Mon Mar 13 2023 12:05:14 GMT-0700 (Pacific Daylight Time)","625230","Trustworthy,Untrustworthy","","null","","","","decisionFB","","<div class='trialDiv'><img src='trustrating_stim/white_00602_940928_fb_edt.bmp'><br><font class='baseline'><strong>Aaron</strong><p>Choose number of points to send.</font><div class='respPicDiv'><img src='img/responseButtonOffersNo0L5.png' class='respPic'></div></div>","null","3","Aaron","8","Kept","0.65,0.2","8","0.65","trustrating_stim/white_00602_940928_fb_edt.bmp","7","20","7"
"html-keyboard-response","157","344289","0.0-19.0-3.6","6400d916e410c86255a45836","bdp_trlrn","Mon Mar 13 2023 12:05:14 GMT-0700 (Pacific Daylight Time)","625230","Trustworthy,Untrustworthy","","null","","","","feedback","","<div class='trialDiv'><img src='trustrating_stim/white_00602_940928_fb_edt.bmp'><br><font class='baseline'><strong>Aaron</strong><p>Received: <strong>20</strong></font> &nbsp; &nbsp; &nbsp; &nbsp; &nbsp; &nbsp;<font class='negOutcome'>Shared back: <strong>0</strong></font></font><div class='respPicDiv'><img src='img/responseButtonOffersNo0_wht.png' class='respPic'></div></div>","null","3","Aaron","8","Kept","0.65,0.2","8","0.65","trustrating_stim/white_00602_940928_fb_edt.bmp","7","20","7"
"html-keyboard-response","158","346507","0.0-19.0-1.7","6400d916e410c86255a45836","bdp_trlrn","Mon Mar 13 2023 12:05:14 GMT-0700 (Pacific Daylight Time)","625230","Trustworthy,Untrustworthy","","2217","","","","decision","","<div class='trialDiv'><img src='trustrating_stim/white_mw048.bmp'><br><font class='baseline'><strong>Timothy</strong><p>Choose number of points to send.</font><div class='respPicDiv'><img src='img/responseButtonOffersNo0L.png' class='respPic'></div></div>","3","3","Timothy","3","Kept","0.2,0.8","10","0.2","trustrating_stim/white_mw048.bmp","1","25","8"
"html-keyboard-response","159","346763","0.0-19.0-2.7","6400d916e410c86255a45836","bdp_trlrn","Mon Mar 13 2023 12:05:14 GMT-0700 (Pacific Daylight Time)","625230","Trustworthy,Untrustworthy","","null","","","","decisionFB","","<div class='trialDiv'><img src='trustrating_stim/white_mw048.bmp'><br><font class='baseline'><strong>Timothy</strong><p>Choose number of points to send.</font><div class='respPicDiv'><img src='img/responseButtonOffersNo0L3.png' class='respPic'></div></div>","null","3","Timothy","3","Kept","0.2,0.8","10","0.2","trustrating_stim/white_mw048.bmp","1","22","8"
"html-keyboard-response","160","347775","0.0-19.0-3.7","6400d916e410c86255a45836","bdp_trlrn","Mon Mar 13 2023 12:05:14 GMT-0700 (Pacific Daylight Time)","625230","Trustworthy,Untrustworthy","","null","","","","feedback","","<div class='trialDiv'><img src='trustrating_stim/white_mw048.bmp'><br><font class='baseline'><strong>Timothy</strong><p>Received: <strong>12</strong></font> &nbsp; &nbsp; &nbsp; &nbsp; &nbsp; &nbsp;<font class='negOutcome'>Shared back: <strong>0</strong></font></font><div class='respPicDiv'><img src='img/responseButtonOffersNo0_wht.png' class='respPic'></div></div>","null","3","Timothy","3","Kept","0.2,0.8","10","0.2","trustrating_stim/white_mw048.bmp","1","22","8"
"html-keyboard-response","161","349843","0.0-19.0-1.8","6400d916e410c86255a45836","bdp_trlrn","Mon Mar 13 2023 12:05:14 GMT-0700 (Pacific Daylight Time)","625230","Trustworthy,Untrustworthy","","2067","","","","decision","","<div class='trialDiv'><img src='trustrating_stim/white_00109_931230_fa_edt.bmp'><br><font class='baseline'><strong>Daniel</strong><p>Choose number of points to send.</font><div class='respPicDiv'><img src='img/responseButtonOffersNo0L.png' class='respPic'></div></div>","5","3","Daniel","4","Kept","0.2,0.65","12","0.2","trustrating_stim/white_00109_931230_fa_edt.bmp","3","27","9"
"html-keyboard-response","162","350095","0.0-19.0-2.8","6400d916e410c86255a45836","bdp_trlrn","Mon Mar 13 2023 12:05:14 GMT-0700 (Pacific Daylight Time)","625230","Trustworthy,Untrustworthy","","null","","","","decisionFB","","<div class='trialDiv'><img src='trustrating_stim/white_00109_931230_fa_edt.bmp'><br><font class='baseline'><strong>Daniel</strong><p>Choose number of points to send.</font><div class='respPicDiv'><img src='img/responseButtonOffersNo0L5.png' class='respPic'></div></div>","null","3","Daniel","4","Kept","0.2,0.65","12","0.2","trustrating_stim/white_00109_931230_fa_edt.bmp","3","22","9"
"html-keyboard-response","163","351100","0.0-19.0-3.8","6400d916e410c86255a45836","bdp_trlrn","Mon Mar 13 2023 12:05:14 GMT-0700 (Pacific Daylight Time)","625230","Trustworthy,Untrustworthy","","null","","","","feedback","","<div class='trialDiv'><img src='trustrating_stim/white_00109_931230_fa_edt.bmp'><br><font class='baseline'><strong>Daniel</strong><p>Received: <strong>20</strong></font> &nbsp; &nbsp; &nbsp; &nbsp; &nbsp; &nbsp;<font class='negOutcome'>Shared back: <strong>0</strong></font></font><div class='respPicDiv'><img src='img/responseButtonOffersNo0_wht.png' class='respPic'></div></div>","null","3","Daniel","4","Kept","0.2,0.65","12","0.2","trustrating_stim/white_00109_931230_fa_edt.bmp","3","22","9"
"html-keyboard-response","164","353075","0.0-19.0-1.9","6400d916e410c86255a45836","bdp_trlrn","Mon Mar 13 2023 12:05:14 GMT-0700 (Pacific Daylight Time)","625230","Trustworthy,Untrustworthy","","1974","","","","decision","","<div class='trialDiv'><img src='trustrating_stim/white_00602_940928_fb_edt.bmp'><br><font class='baseline'><strong>Aaron</strong><p>Choose number of points to send.</font><div class='respPicDiv'><img src='img/responseButtonOffersNo0L.png' class='respPic'></div></div>","3","4","Aaron","8","Kept","0.65,0.2","8","0.65","trustrating_stim/white_00602_940928_fb_edt.bmp","7","27","10"
"html-keyboard-response","165","353342","0.0-19.0-2.9","6400d916e410c86255a45836","bdp_trlrn","Mon Mar 13 2023 12:05:14 GMT-0700 (Pacific Daylight Time)","625230","Trustworthy,Untrustworthy","","null","","","","decisionFB","","<div class='trialDiv'><img src='trustrating_stim/white_00602_940928_fb_edt.bmp'><br><font class='baseline'><strong>Aaron</strong><p>Choose number of points to send.</font><div class='respPicDiv'><img src='img/responseButtonOffersNo0L3.png' class='respPic'></div></div>","null","4","Aaron","8","Kept","0.65,0.2","8","0.65","trustrating_stim/white_00602_940928_fb_edt.bmp","7","24","10"
"html-keyboard-response","166","354346","0.0-19.0-3.9","6400d916e410c86255a45836","bdp_trlrn","Mon Mar 13 2023 12:05:14 GMT-0700 (Pacific Daylight Time)","625230","Trustworthy,Untrustworthy","","null","","","","feedback","","<div class='trialDiv'><img src='trustrating_stim/white_00602_940928_fb_edt.bmp'><br><font class='baseline'><strong>Aaron</strong><p>Received: <strong>12</strong></font> &nbsp; &nbsp; &nbsp; &nbsp; &nbsp; &nbsp;<font class='negOutcome'>Shared back: <strong>0</strong></font></font><div class='respPicDiv'><img src='img/responseButtonOffersNo0_wht.png' class='respPic'></div></div>","null","4","Aaron","8","Kept","0.65,0.2","8","0.65","trustrating_stim/white_00602_940928_fb_edt.bmp","7","24","10"
"html-keyboard-response","167","357354","0.0-19.0-1.10","6400d916e410c86255a45836","bdp_trlrn","Mon Mar 13 2023 12:05:14 GMT-0700 (Pacific Daylight Time)","625230","Trustworthy,Untrustworthy","","3007","","","","decision","","<div class='trialDiv'><img src='trustrating_stim/white_00109_931230_fa_edt.bmp'><br><font class='baseline'><strong>Daniel</strong><p>Choose number of points to send.</font><div class='respPicDiv'><img src='img/responseButtonOffersNo0L.png' class='respPic'></div></div>","5","4","Daniel","4","Kept","0.2,0.65","12","0.2","trustrating_stim/white_00109_931230_fa_edt.bmp","3","29","11"
"html-keyboard-response","168","357607","0.0-19.0-2.10","6400d916e410c86255a45836","bdp_trlrn","Mon Mar 13 2023 12:05:14 GMT-0700 (Pacific Daylight Time)","625230","Trustworthy,Untrustworthy","","null","","","","decisionFB","","<div class='trialDiv'><img src='trustrating_stim/white_00109_931230_fa_edt.bmp'><br><font class='baseline'><strong>Daniel</strong><p>Choose number of points to send.</font><div class='respPicDiv'><img src='img/responseButtonOffersNo0L5.png' class='respPic'></div></div>","null","4","Daniel","4","Kept","0.2,0.65","12","0.2","trustrating_stim/white_00109_931230_fa_edt.bmp","3","24","11"
"html-keyboard-response","169","358615","0.0-19.0-3.10","6400d916e410c86255a45836","bdp_trlrn","Mon Mar 13 2023 12:05:14 GMT-0700 (Pacific Daylight Time)","625230","Trustworthy,Untrustworthy","","null","","","","feedback","","<div class='trialDiv'><img src='trustrating_stim/white_00109_931230_fa_edt.bmp'><br><font class='baseline'><strong>Daniel</strong><p>Received: <strong>20</strong></font> &nbsp; &nbsp; &nbsp; &nbsp; &nbsp; &nbsp;<font class='negOutcome'>Shared back: <strong>0</strong></font></font><div class='respPicDiv'><img src='img/responseButtonOffersNo0_wht.png' class='respPic'></div></div>","null","4","Daniel","4","Kept","0.2,0.65","12","0.2","trustrating_stim/white_00109_931230_fa_edt.bmp","3","24","11"
"html-keyboard-response","170","359963","0.0-19.0-1.11","6400d916e410c86255a45836","bdp_trlrn","Mon Mar 13 2023 12:05:14 GMT-0700 (Pacific Daylight Time)","625230","Trustworthy,Untrustworthy","","1347","","","","decision","","<div class='trialDiv'><img src='trustrating_stim/white_mw048.bmp'><br><font class='baseline'><strong>Timothy</strong><p>Choose number of points to send.</font><div class='respPicDiv'><img src='img/responseButtonOffersNo0L.png' class='respPic'></div></div>","2","4","Timothy","3","Kept","0.2,0.8","10","0.2","trustrating_stim/white_mw048.bmp","1","29","12"
"html-keyboard-response","171","360222","0.0-19.0-2.11","6400d916e410c86255a45836","bdp_trlrn","Mon Mar 13 2023 12:05:14 GMT-0700 (Pacific Daylight Time)","625230","Trustworthy,Untrustworthy","","null","","","","decisionFB","","<div class='trialDiv'><img src='trustrating_stim/white_mw048.bmp'><br><font class='baseline'><strong>Timothy</strong><p>Choose number of points to send.</font><div class='respPicDiv'><img src='img/responseButtonOffersNo0L2.png' class='respPic'></div></div>","null","4","Timothy","3","Kept","0.2,0.8","10","0.2","trustrating_stim/white_mw048.bmp","1","27","12"
"html-keyboard-response","172","361232","0.0-19.0-3.11","6400d916e410c86255a45836","bdp_trlrn","Mon Mar 13 2023 12:05:14 GMT-0700 (Pacific Daylight Time)","625230","Trustworthy,Untrustworthy","","null","","","","feedback","","<div class='trialDiv'><img src='trustrating_stim/white_mw048.bmp'><br><font class='baseline'><strong>Timothy</strong><p>Received: <strong>8</strong></font> &nbsp; &nbsp; &nbsp; &nbsp; &nbsp; &nbsp;<font class='negOutcome'>Shared back: <strong>0</strong></font></font><div class='respPicDiv'><img src='img/responseButtonOffersNo0_wht.png' class='respPic'></div></div>","null","4","Timothy","3","Kept","0.2,0.8","10","0.2","trustrating_stim/white_mw048.bmp","1","27","12"
"html-keyboard-response","173","362626","0.0-19.0-1.12","6400d916e410c86255a45836","bdp_trlrn","Mon Mar 13 2023 12:05:14 GMT-0700 (Pacific Daylight Time)","625230","Trustworthy,Untrustworthy","","1393","","","","decision","","<div class='trialDiv'><img src='trustrating_stim/white_00109_931230_fa_edt.bmp'><br><font class='baseline'><strong>Daniel</strong><p>Choose number of points to send.</font><div class='respPicDiv'><img src='img/responseButtonOffersNo0L.png' class='respPic'></div></div>","2","5","Daniel","4","Kept","0.2,0.65","12","0.2","trustrating_stim/white_00109_931230_fa_edt.bmp","3","32","13"
"html-keyboard-response","174","362888","0.0-19.0-2.12","6400d916e410c86255a45836","bdp_trlrn","Mon Mar 13 2023 12:05:14 GMT-0700 (Pacific Daylight Time)","625230","Trustworthy,Untrustworthy","","null","","","","decisionFB","","<div class='trialDiv'><img src='trustrating_stim/white_00109_931230_fa_edt.bmp'><br><font class='baseline'><strong>Daniel</strong><p>Choose number of points to send.</font><div class='respPicDiv'><img src='img/responseButtonOffersNo0L2.png' class='respPic'></div></div>","null","5","Daniel","4","Kept","0.2,0.65","12","0.2","trustrating_stim/white_00109_931230_fa_edt.bmp","3","30","13"
"html-keyboard-response","175","363891","0.0-19.0-3.12","6400d916e410c86255a45836","bdp_trlrn","Mon Mar 13 2023 12:05:14 GMT-0700 (Pacific Daylight Time)","625230","Trustworthy,Untrustworthy","","null","","","","feedback","","<div class='trialDiv'><img src='trustrating_stim/white_00109_931230_fa_edt.bmp'><br><font class='baseline'><strong>Daniel</strong><p>Received: <strong>8</strong></font> &nbsp; &nbsp; &nbsp; &nbsp; &nbsp; &nbsp;<font class='negOutcome'>Shared back: <strong>0</strong></font></font><div class='respPicDiv'><img src='img/responseButtonOffersNo0_wht.png' class='respPic'></div></div>","null","5","Daniel","4","Kept","0.2,0.65","12","0.2","trustrating_stim/white_00109_931230_fa_edt.bmp","3","30","13"
"html-keyboard-response","176","364750","0.0-19.0-1.13","6400d916e410c86255a45836","bdp_trlrn","Mon Mar 13 2023 12:05:14 GMT-0700 (Pacific Daylight Time)","625230","Trustworthy,Untrustworthy","","858","","","","decision","","<div class='trialDiv'><img src='trustrating_stim/white_mw048.bmp'><br><font class='baseline'><strong>Timothy</strong><p>Choose number of points to send.</font><div class='respPicDiv'><img src='img/responseButtonOffersNo0L.png' class='respPic'></div></div>","1","5","Timothy","3","Kept","0.2,0.8","10","0.2","trustrating_stim/white_mw048.bmp","1","35","14"
"html-keyboard-response","177","365004","0.0-19.0-2.13","6400d916e410c86255a45836","bdp_trlrn","Mon Mar 13 2023 12:05:14 GMT-0700 (Pacific Daylight Time)","625230","Trustworthy,Untrustworthy","","null","","","","decisionFB","","<div class='trialDiv'><img src='trustrating_stim/white_mw048.bmp'><br><font class='baseline'><strong>Timothy</strong><p>Choose number of points to send.</font><div class='respPicDiv'><img src='img/responseButtonOffersNo0L1.png' class='respPic'></div></div>","null","5","Timothy","3","Kept","0.2,0.8","10","0.2","trustrating_stim/white_mw048.bmp","1","34","14"
"html-keyboard-response","178","366006","0.0-19.0-3.13","6400d916e410c86255a45836","bdp_trlrn","Mon Mar 13 2023 12:05:14 GMT-0700 (Pacific Daylight Time)","625230","Trustworthy,Untrustworthy","","null","","","","feedback","","<div class='trialDiv'><img src='trustrating_stim/white_mw048.bmp'><br><font class='baseline'><strong>Timothy</strong><p>Received: <strong>4</strong></font> &nbsp; &nbsp; &nbsp; &nbsp; &nbsp; &nbsp;<font class='negOutcome'>Shared back: <strong>0</strong></font></font><div class='respPicDiv'><img src='img/responseButtonOffersNo0_wht.png' class='respPic'></div></div>","null","5","Timothy","3","Kept","0.2,0.8","10","0.2","trustrating_stim/white_mw048.bmp","1","34","14"
"html-keyboard-response","179","366775","0.0-19.0-1.14","6400d916e410c86255a45836","bdp_trlrn","Mon Mar 13 2023 12:05:14 GMT-0700 (Pacific Daylight Time)","625230","Trustworthy,Untrustworthy","","768","","","","decision","","<div class='trialDiv'><img src='trustrating_stim/white_00602_940928_fb_edt.bmp'><br><font class='baseline'><strong>Aaron</strong><p>Choose number of points to send.</font><div class='respPicDiv'><img src='img/responseButtonOffersNo0L.png' class='respPic'></div></div>","1","5","Aaron","8","Shared","0.65,0.2","8","0.65","trustrating_stim/white_00602_940928_fb_edt.bmp","7","39","15"
"html-keyboard-response","180","367035","0.0-19.0-2.14","6400d916e410c86255a45836","bdp_trlrn","Mon Mar 13 2023 12:05:14 GMT-0700 (Pacific Daylight Time)","625230","Trustworthy,Untrustworthy","","null","","","","decisionFB","","<div class='trialDiv'><img src='trustrating_stim/white_00602_940928_fb_edt.bmp'><br><font class='baseline'><strong>Aaron</strong><p>Choose number of points to send.</font><div class='respPicDiv'><img src='img/responseButtonOffersNo0L1.png' class='respPic'></div></div>","null","5","Aaron","8","Shared","0.65,0.2","8","0.65","trustrating_stim/white_00602_940928_fb_edt.bmp","7","38","15"
"html-keyboard-response","181","368044","0.0-19.0-3.14","6400d916e410c86255a45836","bdp_trlrn","Mon Mar 13 2023 12:05:14 GMT-0700 (Pacific Daylight Time)","625230","Trustworthy,Untrustworthy","","null","","","","feedback","","<div class='trialDiv'><img src='trustrating_stim/white_00602_940928_fb_edt.bmp'><br><font class='baseline'><strong>Aaron</strong><p>Received: <strong>4</strong></font> &nbsp; &nbsp; &nbsp; &nbsp; &nbsp; &nbsp;<font class='posOutcome'>Shared back: <strong>2</strong></font></font><div class='respPicDiv'><img src='img/responseButtonOffersNo0_wht.png' class='respPic'></div></div>","null","5","Aaron","8","Shared","0.65,0.2","8","0.65","trustrating_stim/white_00602_940928_fb_edt.bmp","7","40","15"
"html-keyboard-response","182","369015","0.0-19.0-1.15","6400d916e410c86255a45836","bdp_trlrn","Mon Mar 13 2023 12:05:14 GMT-0700 (Pacific Daylight Time)","625230","Trustworthy,Untrustworthy","","970","","","","decision","","<div class='trialDiv'><img src='trustrating_stim/white_mw048.bmp'><br><font class='baseline'><strong>Timothy</strong><p>Choose number of points to send.</font><div class='respPicDiv'><img src='img/responseButtonOffersNo0L.png' class='respPic'></div></div>","1","6","Timothy","3","Kept","0.2,0.8","10","0.2","trustrating_stim/white_mw048.bmp","1","45","16"
"html-keyboard-response","183","369269","0.0-19.0-2.15","6400d916e410c86255a45836","bdp_trlrn","Mon Mar 13 2023 12:05:14 GMT-0700 (Pacific Daylight Time)","625230","Trustworthy,Untrustworthy","","null","","","","decisionFB","","<div class='trialDiv'><img src='trustrating_stim/white_mw048.bmp'><br><font class='baseline'><strong>Timothy</strong><p>Choose number of points to send.</font><div class='respPicDiv'><img src='img/responseButtonOffersNo0L1.png' class='respPic'></div></div>","null","6","Timothy","3","Kept","0.2,0.8","10","0.2","trustrating_stim/white_mw048.bmp","1","44","16"
"html-keyboard-response","184","370276","0.0-19.0-3.15","6400d916e410c86255a45836","bdp_trlrn","Mon Mar 13 2023 12:05:14 GMT-0700 (Pacific Daylight Time)","625230","Trustworthy,Untrustworthy","","null","","","","feedback","","<div class='trialDiv'><img src='trustrating_stim/white_mw048.bmp'><br><font class='baseline'><strong>Timothy</strong><p>Received: <strong>4</strong></font> &nbsp; &nbsp; &nbsp; &nbsp; &nbsp; &nbsp;<font class='negOutcome'>Shared back: <strong>0</strong></font></font><div class='respPicDiv'><img src='img/responseButtonOffersNo0_wht.png' class='respPic'></div></div>","null","6","Timothy","3","Kept","0.2,0.8","10","0.2","trustrating_stim/white_mw048.bmp","1","44","16"
"html-keyboard-response","185","371628","0.0-19.0-1.16","6400d916e410c86255a45836","bdp_trlrn","Mon Mar 13 2023 12:05:14 GMT-0700 (Pacific Daylight Time)","625230","Trustworthy,Untrustworthy","","1352","","","","decision","","<div class='trialDiv'><img src='trustrating_stim/white_00602_940928_fb_edt.bmp'><br><font class='baseline'><strong>Aaron</strong><p>Choose number of points to send.</font><div class='respPicDiv'><img src='img/responseButtonOffersNo0L.png' class='respPic'></div></div>","5","6","Aaron","8","Kept","0.65,0.2","8","0.65","trustrating_stim/white_00602_940928_fb_edt.bmp","7","49","17"
"html-keyboard-response","186","371888","0.0-19.0-2.16","6400d916e410c86255a45836","bdp_trlrn","Mon Mar 13 2023 12:05:14 GMT-0700 (Pacific Daylight Time)","625230","Trustworthy,Untrustworthy","","null","","","","decisionFB","","<div class='trialDiv'><img src='trustrating_stim/white_00602_940928_fb_edt.bmp'><br><font class='baseline'><strong>Aaron</strong><p>Choose number of points to send.</font><div class='respPicDiv'><img src='img/responseButtonOffersNo0L5.png' class='respPic'></div></div>","null","6","Aaron","8","Kept","0.65,0.2","8","0.65","trustrating_stim/white_00602_940928_fb_edt.bmp","7","44","17"
"html-keyboard-response","187","372891","0.0-19.0-3.16","6400d916e410c86255a45836","bdp_trlrn","Mon Mar 13 2023 12:05:14 GMT-0700 (Pacific Daylight Time)","625230","Trustworthy,Untrustworthy","","null","","","","feedback","","<div class='trialDiv'><img src='trustrating_stim/white_00602_940928_fb_edt.bmp'><br><font class='baseline'><strong>Aaron</strong><p>Received: <strong>20</strong></font> &nbsp; &nbsp; &nbsp; &nbsp; &nbsp; &nbsp;<font class='negOutcome'>Shared back: <strong>0</strong></font></font><div class='respPicDiv'><img src='img/responseButtonOffersNo0_wht.png' class='respPic'></div></div>","null","6","Aaron","8","Kept","0.65,0.2","8","0.65","trustrating_stim/white_00602_940928_fb_edt.bmp","7","44","17"
"html-keyboard-response","188","373743","0.0-19.0-1.17","6400d916e410c86255a45836","bdp_trlrn","Mon Mar 13 2023 12:05:14 GMT-0700 (Pacific Daylight Time)","625230","Trustworthy,Untrustworthy","","851","","","","decision","","<div class='trialDiv'><img src='trustrating_stim/white_00109_931230_fa_edt.bmp'><br><font class='baseline'><strong>Daniel</strong><p>Choose number of points to send.</font><div class='respPicDiv'><img src='img/responseButtonOffersNo0L.png' class='respPic'></div></div>","5","6","Daniel","4","Kept","0.2,0.65","12","0.2","trustrating_stim/white_00109_931230_fa_edt.bmp","3","49","18"
"html-keyboard-response","189","374003","0.0-19.0-2.17","6400d916e410c86255a45836","bdp_trlrn","Mon Mar 13 2023 12:05:14 GMT-0700 (Pacific Daylight Time)","625230","Trustworthy,Untrustworthy","","null","","","","decisionFB","","<div class='trialDiv'><img src='trustrating_stim/white_00109_931230_fa_edt.bmp'><br><font class='baseline'><strong>Daniel</strong><p>Choose number of points to send.</font><div class='respPicDiv'><img src='img/responseButtonOffersNo0L5.png' class='respPic'></div></div>","null","6","Daniel","4","Kept","0.2,0.65","12","0.2","trustrating_stim/white_00109_931230_fa_edt.bmp","3","44","18"
"html-keyboard-response","190","375019","0.0-19.0-3.17","6400d916e410c86255a45836","bdp_trlrn","Mon Mar 13 2023 12:05:14 GMT-0700 (Pacific Daylight Time)","625230","Trustworthy,Untrustworthy","","null","","","","feedback","","<div class='trialDiv'><img src='trustrating_stim/white_00109_931230_fa_edt.bmp'><br><font class='baseline'><strong>Daniel</strong><p>Received: <strong>20</strong></font> &nbsp; &nbsp; &nbsp; &nbsp; &nbsp; &nbsp;<font class='negOutcome'>Shared back: <strong>0</strong></font></font><div class='respPicDiv'><img src='img/responseButtonOffersNo0_wht.png' class='respPic'></div></div>","null","6","Daniel","4","Kept","0.2,0.65","12","0.2","trustrating_stim/white_00109_931230_fa_edt.bmp","3","44","18"
"html-keyboard-response","191","375662","0.0-19.0-1.18","6400d916e410c86255a45836","bdp_trlrn","Mon Mar 13 2023 12:05:14 GMT-0700 (Pacific Daylight Time)","625230","Trustworthy,Untrustworthy","","643","","","","decision","","<div class='trialDiv'><img src='trustrating_stim/white_00602_940928_fb_edt.bmp'><br><font class='baseline'><strong>Aaron</strong><p>Choose number of points to send.</font><div class='respPicDiv'><img src='img/responseButtonOffersNo0L.png' class='respPic'></div></div>","5","7","Aaron","8","Kept","0.65,0.2","8","0.65","trustrating_stim/white_00602_940928_fb_edt.bmp","7","49","19"
"html-keyboard-response","192","375915","0.0-19.0-2.18","6400d916e410c86255a45836","bdp_trlrn","Mon Mar 13 2023 12:05:14 GMT-0700 (Pacific Daylight Time)","625230","Trustworthy,Untrustworthy","","null","","","","decisionFB","","<div class='trialDiv'><img src='trustrating_stim/white_00602_940928_fb_edt.bmp'><br><font class='baseline'><strong>Aaron</strong><p>Choose number of points to send.</font><div class='respPicDiv'><img src='img/responseButtonOffersNo0L5.png' class='respPic'></div></div>","null","7","Aaron","8","Kept","0.65,0.2","8","0.65","trustrating_stim/white_00602_940928_fb_edt.bmp","7","44","19"
"html-keyboard-response","193","376918","0.0-19.0-3.18","6400d916e410c86255a45836","bdp_trlrn","Mon Mar 13 2023 12:05:14 GMT-0700 (Pacific Daylight Time)","625230","Trustworthy,Untrustworthy","","null","","","","feedback","","<div class='trialDiv'><img src='trustrating_stim/white_00602_940928_fb_edt.bmp'><br><font class='baseline'><strong>Aaron</strong><p>Received: <strong>20</strong></font> &nbsp; &nbsp; &nbsp; &nbsp; &nbsp; &nbsp;<font class='negOutcome'>Shared back: <strong>0</strong></font></font><div class='respPicDiv'><img src='img/responseButtonOffersNo0_wht.png' class='respPic'></div></div>","null","7","Aaron","8","Kept","0.65,0.2","8","0.65","trustrating_stim/white_00602_940928_fb_edt.bmp","7","44","19"
"html-keyboard-response","194","378083","0.0-19.0-1.19","6400d916e410c86255a45836","bdp_trlrn","Mon Mar 13 2023 12:05:14 GMT-0700 (Pacific Daylight Time)","625230","Trustworthy,Untrustworthy","","1164","","","","decision","","<div class='trialDiv'><img src='trustrating_stim/white_mw048.bmp'><br><font class='baseline'><strong>Timothy</strong><p>Choose number of points to send.</font><div class='respPicDiv'><img src='img/responseButtonOffersNo0L.png' class='respPic'></div></div>","5","7","Timothy","3","Kept","0.2,0.8","10","0.2","trustrating_stim/white_mw048.bmp","1","49","20"
"html-keyboard-response","195","378349","0.0-19.0-2.19","6400d916e410c86255a45836","bdp_trlrn","Mon Mar 13 2023 12:05:14 GMT-0700 (Pacific Daylight Time)","625230","Trustworthy,Untrustworthy","","null","","","","decisionFB","","<div class='trialDiv'><img src='trustrating_stim/white_mw048.bmp'><br><font class='baseline'><strong>Timothy</strong><p>Choose number of points to send.</font><div class='respPicDiv'><img src='img/responseButtonOffersNo0L5.png' class='respPic'></div></div>","null","7","Timothy","3","Kept","0.2,0.8","10","0.2","trustrating_stim/white_mw048.bmp","1","44","20"
"html-keyboard-response","196","379354","0.0-19.0-3.19","6400d916e410c86255a45836","bdp_trlrn","Mon Mar 13 2023 12:05:14 GMT-0700 (Pacific Daylight Time)","625230","Trustworthy,Untrustworthy","","null","","","","feedback","","<div class='trialDiv'><img src='trustrating_stim/white_mw048.bmp'><br><font class='baseline'><strong>Timothy</strong><p>Received: <strong>20</strong></font> &nbsp; &nbsp; &nbsp; &nbsp; &nbsp; &nbsp;<font class='negOutcome'>Shared back: <strong>0</strong></font></font><div class='respPicDiv'><img src='img/responseButtonOffersNo0_wht.png' class='respPic'></div></div>","null","7","Timothy","3","Kept","0.2,0.8","10","0.2","trustrating_stim/white_mw048.bmp","1","44","20"
"html-keyboard-response","197","380021","0.0-19.0-1.20","6400d916e410c86255a45836","bdp_trlrn","Mon Mar 13 2023 12:05:14 GMT-0700 (Pacific Daylight Time)","625230","Trustworthy,Untrustworthy","","666","","","","decision","","<div class='trialDiv'><img src='trustrating_stim/white_00109_931230_fa_edt.bmp'><br><font class='baseline'><strong>Daniel</strong><p>Choose number of points to send.</font><div class='respPicDiv'><img src='img/responseButtonOffersNo0L.png' class='respPic'></div></div>","1","7","Daniel","4","Shared","0.2,0.65","12","0.2","trustrating_stim/white_00109_931230_fa_edt.bmp","3","49","21"
"html-keyboard-response","198","380282","0.0-19.0-2.20","6400d916e410c86255a45836","bdp_trlrn","Mon Mar 13 2023 12:05:14 GMT-0700 (Pacific Daylight Time)","625230","Trustworthy,Untrustworthy","","null","","","","decisionFB","","<div class='trialDiv'><img src='trustrating_stim/white_00109_931230_fa_edt.bmp'><br><font class='baseline'><strong>Daniel</strong><p>Choose number of points to send.</font><div class='respPicDiv'><img src='img/responseButtonOffersNo0L1.png' class='respPic'></div></div>","null","7","Daniel","4","Shared","0.2,0.65","12","0.2","trustrating_stim/white_00109_931230_fa_edt.bmp","3","48","21"
"html-keyboard-response","199","381285","0.0-19.0-3.20","6400d916e410c86255a45836","bdp_trlrn","Mon Mar 13 2023 12:05:14 GMT-0700 (Pacific Daylight Time)","625230","Trustworthy,Untrustworthy","","null","","","","feedback","","<div class='trialDiv'><img src='trustrating_stim/white_00109_931230_fa_edt.bmp'><br><font class='baseline'><strong>Daniel</strong><p>Received: <strong>4</strong></font> &nbsp; &nbsp; &nbsp; &nbsp; &nbsp; &nbsp;<font class='posOutcome'>Shared back: <strong>2</strong></font></font><div class='respPicDiv'><img src='img/responseButtonOffersNo0_wht.png' class='respPic'></div></div>","null","7","Daniel","4","Shared","0.2,0.65","12","0.2","trustrating_stim/white_00109_931230_fa_edt.bmp","3","50","21"
"html-keyboard-response","200","382716","0.0-19.0-1.21","6400d916e410c86255a45836","bdp_trlrn","Mon Mar 13 2023 12:05:14 GMT-0700 (Pacific Daylight Time)","625230","Trustworthy,Untrustworthy","","1430","","","","decision","","<div class='trialDiv'><img src='trustrating_stim/white_mw048.bmp'><br><font class='baseline'><strong>Timothy</strong><p>Choose number of points to send.</font><div class='respPicDiv'><img src='img/responseButtonOffersNo0L.png' class='respPic'></div></div>","1","8","Timothy","3","Kept","0.2,0.8","10","0.2","trustrating_stim/white_mw048.bmp","1","55","22"
"html-keyboard-response","201","382980","0.0-19.0-2.21","6400d916e410c86255a45836","bdp_trlrn","Mon Mar 13 2023 12:05:14 GMT-0700 (Pacific Daylight Time)","625230","Trustworthy,Untrustworthy","","null","","","","decisionFB","","<div class='trialDiv'><img src='trustrating_stim/white_mw048.bmp'><br><font class='baseline'><strong>Timothy</strong><p>Choose number of points to send.</font><div class='respPicDiv'><img src='img/responseButtonOffersNo0L1.png' class='respPic'></div></div>","null","8","Timothy","3","Kept","0.2,0.8","10","0.2","trustrating_stim/white_mw048.bmp","1","54","22"
"html-keyboard-response","202","383984","0.0-19.0-3.21","6400d916e410c86255a45836","bdp_trlrn","Mon Mar 13 2023 12:05:14 GMT-0700 (Pacific Daylight Time)","625230","Trustworthy,Untrustworthy","","null","","","","feedback","","<div class='trialDiv'><img src='trustrating_stim/white_mw048.bmp'><br><font class='baseline'><strong>Timothy</strong><p>Received: <strong>4</strong></font> &nbsp; &nbsp; &nbsp; &nbsp; &nbsp; &nbsp;<font class='negOutcome'>Shared back: <strong>0</strong></font></font><div class='respPicDiv'><img src='img/responseButtonOffersNo0_wht.png' class='respPic'></div></div>","null","8","Timothy","3","Kept","0.2,0.8","10","0.2","trustrating_stim/white_mw048.bmp","1","54","22"
"html-keyboard-response","203","384605","0.0-19.0-1.22","6400d916e410c86255a45836","bdp_trlrn","Mon Mar 13 2023 12:05:14 GMT-0700 (Pacific Daylight Time)","625230","Trustworthy,Untrustworthy","","621","","","","decision","","<div class='trialDiv'><img src='trustrating_stim/white_00602_940928_fb_edt.bmp'><br><font class='baseline'><strong>Aaron</strong><p>Choose number of points to send.</font><div class='respPicDiv'><img src='img/responseButtonOffersNo0L.png' class='respPic'></div></div>","1","8","Aaron","8","Kept","0.65,0.2","8","0.65","trustrating_stim/white_00602_940928_fb_edt.bmp","7","59","23"
"html-keyboard-response","204","384863","0.0-19.0-2.22","6400d916e410c86255a45836","bdp_trlrn","Mon Mar 13 2023 12:05:14 GMT-0700 (Pacific Daylight Time)","625230","Trustworthy,Untrustworthy","","null","","","","decisionFB","","<div class='trialDiv'><img src='trustrating_stim/white_00602_940928_fb_edt.bmp'><br><font class='baseline'><strong>Aaron</strong><p>Choose number of points to send.</font><div class='respPicDiv'><img src='img/responseButtonOffersNo0L1.png' class='respPic'></div></div>","null","8","Aaron","8","Kept","0.65,0.2","8","0.65","trustrating_stim/white_00602_940928_fb_edt.bmp","7","58","23"
"html-keyboard-response","205","385869","0.0-19.0-3.22","6400d916e410c86255a45836","bdp_trlrn","Mon Mar 13 2023 12:05:14 GMT-0700 (Pacific Daylight Time)","625230","Trustworthy,Untrustworthy","","null","","","","feedback","","<div class='trialDiv'><img src='trustrating_stim/white_00602_940928_fb_edt.bmp'><br><font class='baseline'><strong>Aaron</strong><p>Received: <strong>4</strong></font> &nbsp; &nbsp; &nbsp; &nbsp; &nbsp; &nbsp;<font class='negOutcome'>Shared back: <strong>0</strong></font></font><div class='respPicDiv'><img src='img/responseButtonOffersNo0_wht.png' class='respPic'></div></div>","null","8","Aaron","8","Kept","0.65,0.2","8","0.65","trustrating_stim/white_00602_940928_fb_edt.bmp","7","58","23"
"html-keyboard-response","206","387570","0.0-19.0-1.23","6400d916e410c86255a45836","bdp_trlrn","Mon Mar 13 2023 12:05:14 GMT-0700 (Pacific Daylight Time)","625230","Trustworthy,Untrustworthy","","1700","","","","decision","","<div class='trialDiv'><img src='trustrating_stim/white_00109_931230_fa_edt.bmp'><br><font class='baseline'><strong>Daniel</strong><p>Choose number of points to send.</font><div class='respPicDiv'><img src='img/responseButtonOffersNo0L.png' class='respPic'></div></div>","5","8","Daniel","4","Shared","0.2,0.65","12","0.2","trustrating_stim/white_00109_931230_fa_edt.bmp","3","63","24"
"html-keyboard-response","207","387828","0.0-19.0-2.23","6400d916e410c86255a45836","bdp_trlrn","Mon Mar 13 2023 12:05:14 GMT-0700 (Pacific Daylight Time)","625230","Trustworthy,Untrustworthy","","null","","","","decisionFB","","<div class='trialDiv'><img src='trustrating_stim/white_00109_931230_fa_edt.bmp'><br><font class='baseline'><strong>Daniel</strong><p>Choose number of points to send.</font><div class='respPicDiv'><img src='img/responseButtonOffersNo0L5.png' class='respPic'></div></div>","null","8","Daniel","4","Shared","0.2,0.65","12","0.2","trustrating_stim/white_00109_931230_fa_edt.bmp","3","58","24"
"html-keyboard-response","208","388840","0.0-19.0-3.23","6400d916e410c86255a45836","bdp_trlrn","Mon Mar 13 2023 12:05:14 GMT-0700 (Pacific Daylight Time)","625230","Trustworthy,Untrustworthy","","null","","","","feedback","","<div class='trialDiv'><img src='trustrating_stim/white_00109_931230_fa_edt.bmp'><br><font class='baseline'><strong>Daniel</strong><p>Received: <strong>20</strong></font> &nbsp; &nbsp; &nbsp; &nbsp; &nbsp; &nbsp;<font class='posOutcome'>Shared back: <strong>10</strong></font></font><div class='respPicDiv'><img src='img/responseButtonOffersNo0_wht.png' class='respPic'></div></div>","null","8","Daniel","4","Shared","0.2,0.65","12","0.2","trustrating_stim/white_00109_931230_fa_edt.bmp","3","68","24"
"html-keyboard-response","209","391273","0.0-19.0-1.24","6400d916e410c86255a45836","bdp_trlrn","Mon Mar 13 2023 12:05:14 GMT-0700 (Pacific Daylight Time)","625230","Trustworthy,Untrustworthy","","2432","","","","decision","","<div class='trialDiv'><img src='trustrating_stim/white_00602_940928_fb_edt.bmp'><br><font class='baseline'><strong>Aaron</strong><p>Choose number of points to send.</font><div class='respPicDiv'><img src='img/responseButtonOffersNo0L.png' class='respPic'></div></div>","5","9","Aaron","8","Kept","0.65,0.2","8","0.65","trustrating_stim/white_00602_940928_fb_edt.bmp","7","73","25"
"html-keyboard-response","210","391527","0.0-19.0-2.24","6400d916e410c86255a45836","bdp_trlrn","Mon Mar 13 2023 12:05:14 GMT-0700 (Pacific Daylight Time)","625230","Trustworthy,Untrustworthy","","null","","","","decisionFB","","<div class='trialDiv'><img src='trustrating_stim/white_00602_940928_fb_edt.bmp'><br><font class='baseline'><strong>Aaron</strong><p>Choose number of points to send.</font><div class='respPicDiv'><img src='img/responseButtonOffersNo0L5.png' class='respPic'></div></div>","null","9","Aaron","8","Kept","0.65,0.2","8","0.65","trustrating_stim/white_00602_940928_fb_edt.bmp","7","68","25"
"html-keyboard-response","211","392529","0.0-19.0-3.24","6400d916e410c86255a45836","bdp_trlrn","Mon Mar 13 2023 12:05:14 GMT-0700 (Pacific Daylight Time)","625230","Trustworthy,Untrustworthy","","null","","","","feedback","","<div class='trialDiv'><img src='trustrating_stim/white_00602_940928_fb_edt.bmp'><br><font class='baseline'><strong>Aaron</strong><p>Received: <strong>20</strong></font> &nbsp; &nbsp; &nbsp; &nbsp; &nbsp; &nbsp;<font class='negOutcome'>Shared back: <strong>0</strong></font></font><div class='respPicDiv'><img src='img/responseButtonOffersNo0_wht.png' class='respPic'></div></div>","null","9","Aaron","8","Kept","0.65,0.2","8","0.65","trustrating_stim/white_00602_940928_fb_edt.bmp","7","68","25"
"html-keyboard-response","212","393147","0.0-19.0-1.25","6400d916e410c86255a45836","bdp_trlrn","Mon Mar 13 2023 12:05:14 GMT-0700 (Pacific Daylight Time)","625230","Trustworthy,Untrustworthy","","617","","","","decision","","<div class='trialDiv'><img src='trustrating_stim/white_00109_931230_fa_edt.bmp'><br><font class='baseline'><strong>Daniel</strong><p>Choose number of points to send.</font><div class='respPicDiv'><img src='img/responseButtonOffersNo0L.png' class='respPic'></div></div>","5","9","Daniel","4","Kept","0.2,0.65","12","0.2","trustrating_stim/white_00109_931230_fa_edt.bmp","3","73","26"
"html-keyboard-response","213","393408","0.0-19.0-2.25","6400d916e410c86255a45836","bdp_trlrn","Mon Mar 13 2023 12:05:14 GMT-0700 (Pacific Daylight Time)","625230","Trustworthy,Untrustworthy","","null","","","","decisionFB","","<div class='trialDiv'><img src='trustrating_stim/white_00109_931230_fa_edt.bmp'><br><font class='baseline'><strong>Daniel</strong><p>Choose number of points to send.</font><div class='respPicDiv'><img src='img/responseButtonOffersNo0L5.png' class='respPic'></div></div>","null","9","Daniel","4","Kept","0.2,0.65","12","0.2","trustrating_stim/white_00109_931230_fa_edt.bmp","3","68","26"
"html-keyboard-response","214","394412","0.0-19.0-3.25","6400d916e410c86255a45836","bdp_trlrn","Mon Mar 13 2023 12:05:14 GMT-0700 (Pacific Daylight Time)","625230","Trustworthy,Untrustworthy","","null","","","","feedback","","<div class='trialDiv'><img src='trustrating_stim/white_00109_931230_fa_edt.bmp'><br><font class='baseline'><strong>Daniel</strong><p>Received: <strong>20</strong></font> &nbsp; &nbsp; &nbsp; &nbsp; &nbsp; &nbsp;<font class='negOutcome'>Shared back: <strong>0</strong></font></font><div class='respPicDiv'><img src='img/responseButtonOffersNo0_wht.png' class='respPic'></div></div>","null","9","Daniel","4","Kept","0.2,0.65","12","0.2","trustrating_stim/white_00109_931230_fa_edt.bmp","3","68","26"
"html-keyboard-response","215","395509","0.0-19.0-1.26","6400d916e410c86255a45836","bdp_trlrn","Mon Mar 13 2023 12:05:14 GMT-0700 (Pacific Daylight Time)","625230","Trustworthy,Untrustworthy","","1096","","","","decision","","<div class='trialDiv'><img src='trustrating_stim/white_mw048.bmp'><br><font class='baseline'><strong>Timothy</strong><p>Choose number of points to send.</font><div class='respPicDiv'><img src='img/responseButtonOffersNo0L.png' class='respPic'></div></div>","1","9","Timothy","3","Kept","0.2,0.8","10","0.2","trustrating_stim/white_mw048.bmp","1","73","27"
"html-keyboard-response","216","395773","0.0-19.0-2.26","6400d916e410c86255a45836","bdp_trlrn","Mon Mar 13 2023 12:05:14 GMT-0700 (Pacific Daylight Time)","625230","Trustworthy,Untrustworthy","","null","","","","decisionFB","","<div class='trialDiv'><img src='trustrating_stim/white_mw048.bmp'><br><font class='baseline'><strong>Timothy</strong><p>Choose number of points to send.</font><div class='respPicDiv'><img src='img/responseButtonOffersNo0L1.png' class='respPic'></div></div>","null","9","Timothy","3","Kept","0.2,0.8","10","0.2","trustrating_stim/white_mw048.bmp","1","72","27"
"html-keyboard-response","217","396783","0.0-19.0-3.26","6400d916e410c86255a45836","bdp_trlrn","Mon Mar 13 2023 12:05:14 GMT-0700 (Pacific Daylight Time)","625230","Trustworthy,Untrustworthy","","null","","","","feedback","","<div class='trialDiv'><img src='trustrating_stim/white_mw048.bmp'><br><font class='baseline'><strong>Timothy</strong><p>Received: <strong>4</strong></font> &nbsp; &nbsp; &nbsp; &nbsp; &nbsp; &nbsp;<font class='negOutcome'>Shared back: <strong>0</strong></font></font><div class='respPicDiv'><img src='img/responseButtonOffersNo0_wht.png' class='respPic'></div></div>","null","9","Timothy","3","Kept","0.2,0.8","10","0.2","trustrating_stim/white_mw048.bmp","1","72","27"
"html-keyboard-response","218","397400","0.0-19.0-1.27","6400d916e410c86255a45836","bdp_trlrn","Mon Mar 13 2023 12:05:14 GMT-0700 (Pacific Daylight Time)","625230","Trustworthy,Untrustworthy","","617","","","","decision","","<div class='trialDiv'><img src='trustrating_stim/white_00109_931230_fa_edt.bmp'><br><font class='baseline'><strong>Daniel</strong><p>Choose number of points to send.</font><div class='respPicDiv'><img src='img/responseButtonOffersNo0L.png' class='respPic'></div></div>","1","10","Daniel","4","Kept","0.2,0.65","12","0.2","trustrating_stim/white_00109_931230_fa_edt.bmp","3","77","28"
"html-keyboard-response","219","397656","0.0-19.0-2.27","6400d916e410c86255a45836","bdp_trlrn","Mon Mar 13 2023 12:05:14 GMT-0700 (Pacific Daylight Time)","625230","Trustworthy,Untrustworthy","","null","","","","decisionFB","","<div class='trialDiv'><img src='trustrating_stim/white_00109_931230_fa_edt.bmp'><br><font class='baseline'><strong>Daniel</strong><p>Choose number of points to send.</font><div class='respPicDiv'><img src='img/responseButtonOffersNo0L1.png' class='respPic'></div></div>","null","10","Daniel","4","Kept","0.2,0.65","12","0.2","trustrating_stim/white_00109_931230_fa_edt.bmp","3","76","28"
"html-keyboard-response","220","398661","0.0-19.0-3.27","6400d916e410c86255a45836","bdp_trlrn","Mon Mar 13 2023 12:05:14 GMT-0700 (Pacific Daylight Time)","625230","Trustworthy,Untrustworthy","","null","","","","feedback","","<div class='trialDiv'><img src='trustrating_stim/white_00109_931230_fa_edt.bmp'><br><font class='baseline'><strong>Daniel</strong><p>Received: <strong>4</strong></font> &nbsp; &nbsp; &nbsp; &nbsp; &nbsp; &nbsp;<font class='negOutcome'>Shared back: <strong>0</strong></font></font><div class='respPicDiv'><img src='img/responseButtonOffersNo0_wht.png' class='respPic'></div></div>","null","10","Daniel","4","Kept","0.2,0.65","12","0.2","trustrating_stim/white_00109_931230_fa_edt.bmp","3","76","28"
