"trial_type","trial_index","time_elapsed","internal_node_id","subject_id","task","startTime","totalTime","labels","view_history","rt","event","trial","time","trialtype","success","stimulus","key_press","aground","name","faceID","outcome","agenttype","agentswpt","agentcurrpshare","face","avgRating","point_total","round"
"pavlovia","0","3","0.0-0.0","64077ddd11208afe2bec171a","bdp_trlrn","Wed Mar 15 2023 23:46:23 GMT-0400 (Eastern Daylight Time)","596661","Untrustworthy,Trustworthy","","","","","","","","","","","","","","","","","","","",""
"instructions","1","4450","0.0-1.0","64077ddd11208afe2bec171a","bdp_trlrn","Wed Mar 15 2023 23:46:23 GMT-0400 (Eastern Daylight Time)","596661","Untrustworthy,Trustworthy","[{""page_index"":0,""viewing_time"":4446}]","4446","","","","","","","","","","","","","","","","","",""
"","","","","64077ddd11208afe2bec171a","bdp_trlrn","Wed Mar 15 2023 23:46:23 GMT-0400 (Eastern Daylight Time)","596661","Untrustworthy,Trustworthy","","","fullscreenenter","2","7063","fullscreenenter","","","","","","","","","","","","","",""
"fullscreen","2","8060","0.0-2.0","64077ddd11208afe2bec171a","bdp_trlrn","Wed Mar 15 2023 23:46:23 GMT-0400 (Eastern Daylight Time)","596661","Untrustworthy,Trustworthy","","","","","","","true","","","","","","","","","","","","",""
"instructions","3","17921","0.0-4.0","64077ddd11208afe2bec171a","bdp_trlrn","Wed Mar 15 2023 23:46:23 GMT-0400 (Eastern Daylight Time)","596661","Untrustworthy,Trustworthy","[{""page_index"":0,""viewing_time"":5413},{""page_index"":1,""viewing_time"":4447}]","9860","","","","","","","","","","","","","","","","","",""
"instructions","4","19089","0.0-5.0","64077ddd11208afe2bec171a","bdp_trlrn","Wed Mar 15 2023 23:46:23 GMT-0400 (Eastern Daylight Time)","596661","Untrustworthy,Trustworthy","[{""page_index"":0,""viewing_time"":1167}]","1167","","","","","","","","","","","","","","","","","",""
"image-keyboard-response","5","20610","0.0-6.0-1.0","64077ddd11208afe2bec171a","bdp_trlrn","Wed Mar 15 2023 23:46:23 GMT-0400 (Eastern Daylight Time)","596661","Untrustworthy,Trustworthy","","1418","","","","rating","","trustrating_stim/white_00659_941121_fa_edt.bmp","2","","","","","","","","","","",""
"image-keyboard-response","6","20819","0.0-6.0-2.0","64077ddd11208afe2bec171a","bdp_trlrn","Wed Mar 15 2023 23:46:23 GMT-0400 (Eastern Daylight Time)","596661","Untrustworthy,Trustworthy","","null","","","","ratingFB","","trustrating_stim/white_00659_941121_fa_edt.bmp","null","","","","","","","","","","",""
"image-keyboard-response","7","22929","0.0-6.0-1.1","64077ddd11208afe2bec171a","bdp_trlrn","Wed Mar 15 2023 23:46:23 GMT-0400 (Eastern Daylight Time)","596661","Untrustworthy,Trustworthy","","2008","","","","rating","","trustrating_stim/white_mw056.bmp","1","","","","","","","","","","",""
"image-keyboard-response","8","23132","0.0-6.0-2.1","64077ddd11208afe2bec171a","bdp_trlrn","Wed Mar 15 2023 23:46:23 GMT-0400 (Eastern Daylight Time)","596661","Untrustworthy,Trustworthy","","null","","","","ratingFB","","trustrating_stim/white_mw056.bmp","null","","","","","","","","","","",""
"image-keyboard-response","9","24867","0.0-6.0-1.2","64077ddd11208afe2bec171a","bdp_trlrn","Wed Mar 15 2023 23:46:23 GMT-0400 (Eastern Daylight Time)","596661","Untrustworthy,Trustworthy","","1634","","","","rating","","trustrating_stim/white_00223_940128_fb_edt.bmp","6","","","","","","","","","","",""
"image-keyboard-response","10","25070","0.0-6.0-2.2","64077ddd11208afe2bec171a","bdp_trlrn","Wed Mar 15 2023 23:46:23 GMT-0400 (Eastern Daylight Time)","596661","Untrustworthy,Trustworthy","","null","","","","ratingFB","","trustrating_stim/white_00223_940128_fb_edt.bmp","null","","","","","","","","","","",""
"image-keyboard-response","11","26097","0.0-6.0-1.3","64077ddd11208afe2bec171a","bdp_trlrn","Wed Mar 15 2023 23:46:23 GMT-0400 (Eastern Daylight Time)","596661","Untrustworthy,Trustworthy","","925","","","","rating","","trustrating_stim/white_00785_941205_fb_edt.bmp","7","","","","","","","","","","",""
"image-keyboard-response","12","26315","0.0-6.0-2.3","64077ddd11208afe2bec171a","bdp_trlrn","Wed Mar 15 2023 23:46:23 GMT-0400 (Eastern Daylight Time)","596661","Untrustworthy,Trustworthy","","null","","","","ratingFB","","trustrating_stim/white_00785_941205_fb_edt.bmp","null","","","","","","","","","","",""
"image-keyboard-response","13","27313","0.0-6.0-1.4","64077ddd11208afe2bec171a","bdp_trlrn","Wed Mar 15 2023 23:46:23 GMT-0400 (Eastern Daylight Time)","596661","Untrustworthy,Trustworthy","","896","","","","rating","","trustrating_stim/white_00807_941205_fb_edt.bmp","7","","","","","","","","","","",""
"image-keyboard-response","14","27515","0.0-6.0-2.4","64077ddd11208afe2bec171a","bdp_trlrn","Wed Mar 15 2023 23:46:23 GMT-0400 (Eastern Daylight Time)","596661","Untrustworthy,Trustworthy","","null","","","","ratingFB","","trustrating_stim/white_00807_941205_fb_edt.bmp","null","","","","","","","","","","",""
"image-keyboard-response","15","28625","0.0-6.0-1.5","64077ddd11208afe2bec171a","bdp_trlrn","Wed Mar 15 2023 23:46:23 GMT-0400 (Eastern Daylight Time)","596661","Untrustworthy,Trustworthy","","1000","","","","rating","","trustrating_stim/white_00519_940519_fb_edt.bmp","8","","","","","","","","","","",""
"image-keyboard-response","16","28828","0.0-6.0-2.5","64077ddd11208afe2bec171a","bdp_trlrn","Wed Mar 15 2023 23:46:23 GMT-0400 (Eastern Daylight Time)","596661","Untrustworthy,Trustworthy","","null","","","","ratingFB","","trustrating_stim/white_00519_940519_fb_edt.bmp","null","","","","","","","","","","",""
"image-keyboard-response","17","30449","0.0-6.0-1.6","64077ddd11208afe2bec171a","bdp_trlrn","Wed Mar 15 2023 23:46:23 GMT-0400 (Eastern Daylight Time)","596661","Untrustworthy,Trustworthy","","1520","","","","rating","","trustrating_stim/white_mw097.bmp","6","","","","","","","","","","",""
"image-keyboard-response","18","30650","0.0-6.0-2.6","64077ddd11208afe2bec171a","bdp_trlrn","Wed Mar 15 2023 23:46:23 GMT-0400 (Eastern Daylight Time)","596661","Untrustworthy,Trustworthy","","null","","","","ratingFB","","trustrating_stim/white_mw097.bmp","null","","","","","","","","","","",""
"image-keyboard-response","19","31585","0.0-6.0-1.7","64077ddd11208afe2bec171a","bdp_trlrn","Wed Mar 15 2023 23:46:23 GMT-0400 (Eastern Daylight Time)","596661","Untrustworthy,Trustworthy","","833","","","","rating","","trustrating_stim/white_00898_960530_fa_edt.bmp","8","","","","","","","","","","",""
"image-keyboard-response","20","31786","0.0-6.0-2.7","64077ddd11208afe2bec171a","bdp_trlrn","Wed Mar 15 2023 23:46:23 GMT-0400 (Eastern Daylight Time)","596661","Untrustworthy,Trustworthy","","null","","","","ratingFB","","trustrating_stim/white_00898_960530_fa_edt.bmp","null","","","","","","","","","","",""
"image-keyboard-response","21","33329","0.0-6.0-1.8","64077ddd11208afe2bec171a","bdp_trlrn","Wed Mar 15 2023 23:46:23 GMT-0400 (Eastern Daylight Time)","596661","Untrustworthy,Trustworthy","","1442","","","","rating","","trustrating_stim/white_mw035.bmp","4","","","","","","","","","","",""
"image-keyboard-response","22","33531","0.0-6.0-2.8","64077ddd11208afe2bec171a","bdp_trlrn","Wed Mar 15 2023 23:46:23 GMT-0400 (Eastern Daylight Time)","596661","Untrustworthy,Trustworthy","","null","","","","ratingFB","","trustrating_stim/white_mw035.bmp","null","","","","","","","","","","",""
"image-keyboard-response","23","35650","0.0-6.0-1.9","64077ddd11208afe2bec171a","bdp_trlrn","Wed Mar 15 2023 23:46:23 GMT-0400 (Eastern Daylight Time)","596661","Untrustworthy,Trustworthy","","2017","","","","rating","","trustrating_stim/white_mw063.bmp","6","","","","","","","","","","",""
"image-keyboard-response","24","35851","0.0-6.0-2.9","64077ddd11208afe2bec171a","bdp_trlrn","Wed Mar 15 2023 23:46:23 GMT-0400 (Eastern Daylight Time)","596661","Untrustworthy,Trustworthy","","null","","","","ratingFB","","trustrating_stim/white_mw063.bmp","null","","","","","","","","","","",""
"image-keyboard-response","25","38145","0.0-6.0-1.10","64077ddd11208afe2bec171a","bdp_trlrn","Wed Mar 15 2023 23:46:23 GMT-0400 (Eastern Daylight Time)","596661","Untrustworthy,Trustworthy","","2193","","","","rating","","trustrating_stim/white_00761_941201_fb_edt.bmp","9","","","","","","","","","","",""
"image-keyboard-response","26","38351","0.0-6.0-2.10","64077ddd11208afe2bec171a","bdp_trlrn","Wed Mar 15 2023 23:46:23 GMT-0400 (Eastern Daylight Time)","596661","Untrustworthy,Trustworthy","","null","","","","ratingFB","","trustrating_stim/white_00761_941201_fb_edt.bmp","null","","","","","","","","","","",""
"image-keyboard-response","27","43233","0.0-6.0-1.11","64077ddd11208afe2bec171a","bdp_trlrn","Wed Mar 15 2023 23:46:23 GMT-0400 (Eastern Daylight Time)","596661","Untrustworthy,Trustworthy","","4782","","","","rating","","trustrating_stim/white_mw046.bmp","8","","","","","","","","","","",""
"image-keyboard-response","28","43434","0.0-6.0-2.11","64077ddd11208afe2bec171a","bdp_trlrn","Wed Mar 15 2023 23:46:23 GMT-0400 (Eastern Daylight Time)","596661","Untrustworthy,Trustworthy","","null","","","","ratingFB","","trustrating_stim/white_mw046.bmp","null","","","","","","","","","","",""
"image-keyboard-response","29","45282","0.0-6.0-1.12","64077ddd11208afe2bec171a","bdp_trlrn","Wed Mar 15 2023 23:46:23 GMT-0400 (Eastern Daylight Time)","596661","Untrustworthy,Trustworthy","","1746","","","","rating","","trustrating_stim/white_00577_940928_fa_edt.bmp","7","","","","","","","","","","",""
"image-keyboard-response","30","45483","0.0-6.0-2.12","64077ddd11208afe2bec171a","bdp_trlrn","Wed Mar 15 2023 23:46:23 GMT-0400 (Eastern Daylight Time)","596661","Untrustworthy,Trustworthy","","null","","","","ratingFB","","trustrating_stim/white_00577_940928_fa_edt.bmp","null","","","","","","","","","","",""
"image-keyboard-response","31","46690","0.0-6.0-1.13","64077ddd11208afe2bec171a","bdp_trlrn","Wed Mar 15 2023 23:46:23 GMT-0400 (Eastern Daylight Time)","596661","Untrustworthy,Trustworthy","","1106","","","","rating","","trustrating_stim/white_mw084.bmp","1","","","","","","","","","","",""
"image-keyboard-response","32","46892","0.0-6.0-2.13","64077ddd11208afe2bec171a","bdp_trlrn","Wed Mar 15 2023 23:46:23 GMT-0400 (Eastern Daylight Time)","596661","Untrustworthy,Trustworthy","","null","","","","ratingFB","","trustrating_stim/white_mw084.bmp","null","","","","","","","","","","",""
"image-keyboard-response","33","48801","0.0-6.0-1.14","64077ddd11208afe2bec171a","bdp_trlrn","Wed Mar 15 2023 23:46:23 GMT-0400 (Eastern Daylight Time)","596661","Untrustworthy,Trustworthy","","1808","","","","rating","","trustrating_stim/white_mw060.bmp","9","","","","","","","","","","",""
"image-keyboard-response","34","49002","0.0-6.0-2.14","64077ddd11208afe2bec171a","bdp_trlrn","Wed Mar 15 2023 23:46:23 GMT-0400 (Eastern Daylight Time)","596661","Untrustworthy,Trustworthy","","null","","","","ratingFB","","trustrating_stim/white_mw060.bmp","null","","","","","","","","","","",""
"image-keyboard-response","35","50113","0.0-6.0-1.15","64077ddd11208afe2bec171a","bdp_trlrn","Wed Mar 15 2023 23:46:23 GMT-0400 (Eastern Daylight Time)","596661","Untrustworthy,Trustworthy","","1009","","","","rating","","trustrating_stim/white_00757_941201_fa_edt.bmp","7","","","","","","","","","","",""
"image-keyboard-response","36","50314","0.0-6.0-2.15","64077ddd11208afe2bec171a","bdp_trlrn","Wed Mar 15 2023 23:46:23 GMT-0400 (Eastern Daylight Time)","596661","Untrustworthy,Trustworthy","","null","","","","ratingFB","","trustrating_stim/white_00757_941201_fa_edt.bmp","null","","","","","","","","","","",""
"image-keyboard-response","37","51489","0.0-6.0-1.16","64077ddd11208afe2bec171a","bdp_trlrn","Wed Mar 15 2023 23:46:23 GMT-0400 (Eastern Daylight Time)","596661","Untrustworthy,Trustworthy","","1073","","","","rating","","trustrating_stim/white_00340_940422_fa_edt.bmp","7","","","","","","","","","","",""
"image-keyboard-response","38","51691","0.0-6.0-2.16","64077ddd11208afe2bec171a","bdp_trlrn","Wed Mar 15 2023 23:46:23 GMT-0400 (Eastern Daylight Time)","596661","Untrustworthy,Trustworthy","","null","","","","ratingFB","","trustrating_stim/white_00340_940422_fa_edt.bmp","null","","","","","","","","","","",""
"image-keyboard-response","39","53313","0.0-6.0-1.17","64077ddd11208afe2bec171a","bdp_trlrn","Wed Mar 15 2023 23:46:23 GMT-0400 (Eastern Daylight Time)","596661","Untrustworthy,Trustworthy","","1521","","","","rating","","trustrating_stim/white_00109_931230_fa_edt.bmp","2","","","","","","","","","","",""
"image-keyboard-response","40","53515","0.0-6.0-2.17","64077ddd11208afe2bec171a","bdp_trlrn","Wed Mar 15 2023 23:46:23 GMT-0400 (Eastern Daylight Time)","596661","Untrustworthy,Trustworthy","","null","","","","ratingFB","","trustrating_stim/white_00109_931230_fa_edt.bmp","null","","","","","","","","","","",""
"image-keyboard-response","41","55185","0.0-6.0-1.18","64077ddd11208afe2bec171a","bdp_trlrn","Wed Mar 15 2023 23:46:23 GMT-0400 (Eastern Daylight Time)","596661","Untrustworthy,Trustworthy","","1569","","","","rating","","trustrating_stim/white_00602_940928_fb_edt.bmp","3","","","","","","","","","","",""
"image-keyboard-response","42","55387","0.0-6.0-2.18","64077ddd11208afe2bec171a","bdp_trlrn","Wed Mar 15 2023 23:46:23 GMT-0400 (Eastern Daylight Time)","596661","Untrustworthy,Trustworthy","","null","","","","ratingFB","","trustrating_stim/white_00602_940928_fb_edt.bmp","null","","","","","","","","","","",""
"image-keyboard-response","43","56577","0.0-6.0-1.19","64077ddd11208afe2bec171a","bdp_trlrn","Wed Mar 15 2023 23:46:23 GMT-0400 (Eastern Daylight Time)","596661","Untrustworthy,Trustworthy","","1089","","","","rating","","trustrating_stim/white_mw066.bmp","1","","","","","","","","","","",""
"image-keyboard-response","44","56778","0.0-6.0-2.19","64077ddd11208afe2bec171a","bdp_trlrn","Wed Mar 15 2023 23:46:23 GMT-0400 (Eastern Daylight Time)","596661","Untrustworthy,Trustworthy","","null","","","","ratingFB","","trustrating_stim/white_mw066.bmp","null","","","","","","","","","","",""
"image-keyboard-response","45","58226","0.0-6.0-1.20","64077ddd11208afe2bec171a","bdp_trlrn","Wed Mar 15 2023 23:46:23 GMT-0400 (Eastern Daylight Time)","596661","Untrustworthy,Trustworthy","","1336","","","","rating","","trustrating_stim/white_mw071.bmp","2","","","","","","","","","","",""
"image-keyboard-response","46","58427","0.0-6.0-2.20","64077ddd11208afe2bec171a","bdp_trlrn","Wed Mar 15 2023 23:46:23 GMT-0400 (Eastern Daylight Time)","596661","Untrustworthy,Trustworthy","","null","","","","ratingFB","","trustrating_stim/white_mw071.bmp","null","","","","","","","","","","",""
"image-keyboard-response","47","59857","0.0-6.0-1.21","64077ddd11208afe2bec171a","bdp_trlrn","Wed Mar 15 2023 23:46:23 GMT-0400 (Eastern Daylight Time)","596661","Untrustworthy,Trustworthy","","1329","","","","rating","","trustrating_stim/white_mw089.bmp","4","","","","","","","","","","",""
"image-keyboard-response","48","60058","0.0-6.0-2.21","64077ddd11208afe2bec171a","bdp_trlrn","Wed Mar 15 2023 23:46:23 GMT-0400 (Eastern Daylight Time)","596661","Untrustworthy,Trustworthy","","null","","","","ratingFB","","trustrating_stim/white_mw089.bmp","null","","","","","","","","","","",""
"image-keyboard-response","49","61121","0.0-6.0-1.22","64077ddd11208afe2bec171a","bdp_trlrn","Wed Mar 15 2023 23:46:23 GMT-0400 (Eastern Daylight Time)","596661","Untrustworthy,Trustworthy","","961","","","","rating","","trustrating_stim/white_mw033.bmp","7","","","","","","","","","","",""
"image-keyboard-response","50","61322","0.0-6.0-2.22","64077ddd11208afe2bec171a","bdp_trlrn","Wed Mar 15 2023 23:46:23 GMT-0400 (Eastern Daylight Time)","596661","Untrustworthy,Trustworthy","","null","","","","ratingFB","","trustrating_stim/white_mw033.bmp","null","","","","","","","","","","",""
"image-keyboard-response","51","62881","0.0-6.0-1.23","64077ddd11208afe2bec171a","bdp_trlrn","Wed Mar 15 2023 23:46:23 GMT-0400 (Eastern Daylight Time)","596661","Untrustworthy,Trustworthy","","1458","","","","rating","","trustrating_stim/white_mw053.bmp","1","","","","","","","","","","",""
"image-keyboard-response","52","63082","0.0-6.0-2.23","64077ddd11208afe2bec171a","bdp_trlrn","Wed Mar 15 2023 23:46:23 GMT-0400 (Eastern Daylight Time)","596661","Untrustworthy,Trustworthy","","null","","","","ratingFB","","trustrating_stim/white_mw053.bmp","null","","","","","","","","","","",""
"image-keyboard-response","53","65905","0.0-6.0-1.24","64077ddd11208afe2bec171a","bdp_trlrn","Wed Mar 15 2023 23:46:23 GMT-0400 (Eastern Daylight Time)","596661","Untrustworthy,Trustworthy","","2722","","","","rating","","trustrating_stim/white_mw099.bmp","7","","","","","","","","","","",""
"image-keyboard-response","54","66107","0.0-6.0-2.24","64077ddd11208afe2bec171a","bdp_trlrn","Wed Mar 15 2023 23:46:23 GMT-0400 (Eastern Daylight Time)","596661","Untrustworthy,Trustworthy","","null","","","","ratingFB","","trustrating_stim/white_mw099.bmp","null","","","","","","","","","","",""
"image-keyboard-response","55","67297","0.0-6.0-1.25","64077ddd11208afe2bec171a","bdp_trlrn","Wed Mar 15 2023 23:46:23 GMT-0400 (Eastern Daylight Time)","596661","Untrustworthy,Trustworthy","","1089","","","","rating","","trustrating_stim/white_00299_940422_fa_edt.bmp","8","","","","","","","","","","",""
"image-keyboard-response","56","67498","0.0-6.0-2.25","64077ddd11208afe2bec171a","bdp_trlrn","Wed Mar 15 2023 23:46:23 GMT-0400 (Eastern Daylight Time)","596661","Untrustworthy,Trustworthy","","null","","","","ratingFB","","trustrating_stim/white_00299_940422_fa_edt.bmp","null","","","","","","","","","","",""
"image-keyboard-response","57","68530","0.0-6.0-1.26","64077ddd11208afe2bec171a","bdp_trlrn","Wed Mar 15 2023 23:46:23 GMT-0400 (Eastern Daylight Time)","596661","Untrustworthy,Trustworthy","","930","","","","rating","","trustrating_stim/white_00129_931230_fb_edt.bmp","9","","","","","","","","","","",""
"image-keyboard-response","58","68731","0.0-6.0-2.26","64077ddd11208afe2bec171a","bdp_trlrn","Wed Mar 15 2023 23:46:23 GMT-0400 (Eastern Daylight Time)","596661","Untrustworthy,Trustworthy","","null","","","","ratingFB","","trustrating_stim/white_00129_931230_fb_edt.bmp","null","","","","","","","","","","",""
"image-keyboard-response","59","69825","0.0-6.0-1.27","64077ddd11208afe2bec171a","bdp_trlrn","Wed Mar 15 2023 23:46:23 GMT-0400 (Eastern Daylight Time)","596661","Untrustworthy,Trustworthy","","991","","","","rating","","trustrating_stim/white_mw049.bmp","1","","","","","","","","","","",""
"image-keyboard-response","60","70027","0.0-6.0-2.27","64077ddd11208afe2bec171a","bdp_trlrn","Wed Mar 15 2023 23:46:23 GMT-0400 (Eastern Daylight Time)","596661","Untrustworthy,Trustworthy","","null","","","","ratingFB","","trustrating_stim/white_mw049.bmp","null","","","","","","","","","","",""
"image-keyboard-response","61","71553","0.0-6.0-1.28","64077ddd11208afe2bec171a","bdp_trlrn","Wed Mar 15 2023 23:46:23 GMT-0400 (Eastern Daylight Time)","596661","Untrustworthy,Trustworthy","","1424","","","","rating","","trustrating_stim/white_mw048.bmp","2","","","","","","","","","","",""
"image-keyboard-response","62","71754","0.0-6.0-2.28","64077ddd11208afe2bec171a","bdp_trlrn","Wed Mar 15 2023 23:46:23 GMT-0400 (Eastern Daylight Time)","596661","Untrustworthy,Trustworthy","","null","","","","ratingFB","","trustrating_stim/white_mw048.bmp","null","","","","","","","","","","",""
"image-keyboard-response","63","73569","0.0-6.0-1.29","64077ddd11208afe2bec171a","bdp_trlrn","Wed Mar 15 2023 23:46:23 GMT-0400 (Eastern Daylight Time)","596661","Untrustworthy,Trustworthy","","1713","","","","rating","","trustrating_stim/white_00120_931230_fa_edt.bmp","7","","","","","","","","","","",""
"image-keyboard-response","64","73770","0.0-6.0-2.29","64077ddd11208afe2bec171a","bdp_trlrn","Wed Mar 15 2023 23:46:23 GMT-0400 (Eastern Daylight Time)","596661","Untrustworthy,Trustworthy","","null","","","","ratingFB","","trustrating_stim/white_00120_931230_fa_edt.bmp","null","","","","","","","","","","",""
"image-keyboard-response","65","75249","0.0-6.0-1.30","64077ddd11208afe2bec171a","bdp_trlrn","Wed Mar 15 2023 23:46:23 GMT-0400 (Eastern Daylight Time)","596661","Untrustworthy,Trustworthy","","1377","","","","rating","","trustrating_stim/white_mw035.bmp","2","","","","","","","","","","",""
"image-keyboard-response","66","75450","0.0-6.0-2.30","64077ddd11208afe2bec171a","bdp_trlrn","Wed Mar 15 2023 23:46:23 GMT-0400 (Eastern Daylight Time)","596661","Untrustworthy,Trustworthy","","null","","","","ratingFB","","trustrating_stim/white_mw035.bmp","null","","","","","","","","","","",""
"image-keyboard-response","67","77185","0.0-6.0-1.31","64077ddd11208afe2bec171a","bdp_trlrn","Wed Mar 15 2023 23:46:23 GMT-0400 (Eastern Daylight Time)","596661","Untrustworthy,Trustworthy","","1632","","","","rating","","trustrating_stim/white_mw097.bmp","6","","","","","","","","","","",""
"image-keyboard-response","68","77386","0.0-6.0-2.31","64077ddd11208afe2bec171a","bdp_trlrn","Wed Mar 15 2023 23:46:23 GMT-0400 (Eastern Daylight Time)","596661","Untrustworthy,Trustworthy","","null","","","","ratingFB","","trustrating_stim/white_mw097.bmp","null","","","","","","","","","","",""
"image-keyboard-response","69","78562","0.0-6.0-1.32","64077ddd11208afe2bec171a","bdp_trlrn","Wed Mar 15 2023 23:46:23 GMT-0400 (Eastern Daylight Time)","596661","Untrustworthy,Trustworthy","","1074","","","","rating","","trustrating_stim/white_mw060.bmp","7","","","","","","","","","","",""
"image-keyboard-response","70","78764","0.0-6.0-2.32","64077ddd11208afe2bec171a","bdp_trlrn","Wed Mar 15 2023 23:46:23 GMT-0400 (Eastern Daylight Time)","596661","Untrustworthy,Trustworthy","","null","","","","ratingFB","","trustrating_stim/white_mw060.bmp","null","","","","","","","","","","",""
"image-keyboard-response","71","80033","0.0-6.0-1.33","64077ddd11208afe2bec171a","bdp_trlrn","Wed Mar 15 2023 23:46:23 GMT-0400 (Eastern Daylight Time)","596661","Untrustworthy,Trustworthy","","1167","","","","rating","","trustrating_stim/white_mw033.bmp","2","","","","","","","","","","",""
"image-keyboard-response","72","80235","0.0-6.0-2.33","64077ddd11208afe2bec171a","bdp_trlrn","Wed Mar 15 2023 23:46:23 GMT-0400 (Eastern Daylight Time)","596661","Untrustworthy,Trustworthy","","null","","","","ratingFB","","trustrating_stim/white_mw033.bmp","null","","","","","","","","","","",""
"image-keyboard-response","73","81217","0.0-6.0-1.34","64077ddd11208afe2bec171a","bdp_trlrn","Wed Mar 15 2023 23:46:23 GMT-0400 (Eastern Daylight Time)","596661","Untrustworthy,Trustworthy","","880","","","","rating","","trustrating_stim/white_00519_940519_fb_edt.bmp","9","","","","","","","","","","",""
"image-keyboard-response","74","81418","0.0-6.0-2.34","64077ddd11208afe2bec171a","bdp_trlrn","Wed Mar 15 2023 23:46:23 GMT-0400 (Eastern Daylight Time)","596661","Untrustworthy,Trustworthy","","null","","","","ratingFB","","trustrating_stim/white_00519_940519_fb_edt.bmp","null","","","","","","","","","","",""
"image-keyboard-response","75","82385","0.0-6.0-1.35","64077ddd11208afe2bec171a","bdp_trlrn","Wed Mar 15 2023 23:46:23 GMT-0400 (Eastern Daylight Time)","596661","Untrustworthy,Trustworthy","","864","","","","rating","","trustrating_stim/white_00129_931230_fb_edt.bmp","7","","","","","","","","","","",""
"image-keyboard-response","76","82586","0.0-6.0-2.35","64077ddd11208afe2bec171a","bdp_trlrn","Wed Mar 15 2023 23:46:23 GMT-0400 (Eastern Daylight Time)","596661","Untrustworthy,Trustworthy","","null","","","","ratingFB","","trustrating_stim/white_00129_931230_fb_edt.bmp","null","","","","","","","","","","",""
"image-keyboard-response","77","83569","0.0-6.0-1.36","64077ddd11208afe2bec171a","bdp_trlrn","Wed Mar 15 2023 23:46:23 GMT-0400 (Eastern Daylight Time)","596661","Untrustworthy,Trustworthy","","881","","","","rating","","trustrating_stim/white_00761_941201_fb_edt.bmp","8","","","","","","","","","","",""
"image-keyboard-response","78","83770","0.0-6.0-2.36","64077ddd11208afe2bec171a","bdp_trlrn","Wed Mar 15 2023 23:46:23 GMT-0400 (Eastern Daylight Time)","596661","Untrustworthy,Trustworthy","","null","","","","ratingFB","","trustrating_stim/white_00761_941201_fb_edt.bmp","null","","","","","","","","","","",""
"image-keyboard-response","79","85713","0.0-6.0-1.37","64077ddd11208afe2bec171a","bdp_trlrn","Wed Mar 15 2023 23:46:23 GMT-0400 (Eastern Daylight Time)","596661","Untrustworthy,Trustworthy","","1842","","","","rating","","trustrating_stim/white_mw071.bmp","4","","","","","","","","","","",""
"image-keyboard-response","80","85914","0.0-6.0-2.37","64077ddd11208afe2bec171a","bdp_trlrn","Wed Mar 15 2023 23:46:23 GMT-0400 (Eastern Daylight Time)","596661","Untrustworthy,Trustworthy","","null","","","","ratingFB","","trustrating_stim/white_mw071.bmp","null","","","","","","","","","","",""
"image-keyboard-response","81","87025","0.0-6.0-1.38","64077ddd11208afe2bec171a","bdp_trlrn","Wed Mar 15 2023 23:46:23 GMT-0400 (Eastern Daylight Time)","596661","Untrustworthy,Trustworthy","","1009","","","","rating","","trustrating_stim/white_00299_940422_fa_edt.bmp","7","","","","","","","","","","",""
"image-keyboard-response","82","87226","0.0-6.0-2.38","64077ddd11208afe2bec171a","bdp_trlrn","Wed Mar 15 2023 23:46:23 GMT-0400 (Eastern Daylight Time)","596661","Untrustworthy,Trustworthy","","null","","","","ratingFB","","trustrating_stim/white_00299_940422_fa_edt.bmp","null","","","","","","","","","","",""
"image-keyboard-response","83","88337","0.0-6.0-1.39","64077ddd11208afe2bec171a","bdp_trlrn","Wed Mar 15 2023 23:46:23 GMT-0400 (Eastern Daylight Time)","596661","Untrustworthy,Trustworthy","","1010","","","","rating","","trustrating_stim/white_mw053.bmp","2","","","","","","","","","","",""
"image-keyboard-response","84","88538","0.0-6.0-2.39","64077ddd11208afe2bec171a","bdp_trlrn","Wed Mar 15 2023 23:46:23 GMT-0400 (Eastern Daylight Time)","596661","Untrustworthy,Trustworthy","","null","","","","ratingFB","","trustrating_stim/white_mw053.bmp","null","","","","","","","","","","",""
"image-keyboard-response","85","90050","0.0-6.0-1.40","64077ddd11208afe2bec171a","bdp_trlrn","Wed Mar 15 2023 23:46:23 GMT-0400 (Eastern Daylight Time)","596661","Untrustworthy,Trustworthy","","1409","","","","rating","","trustrating_stim/white_mw046.bmp","8","","","","","","","","","","",""
"image-keyboard-response","86","90250","0.0-6.0-2.40","64077ddd11208afe2bec171a","bdp_trlrn","Wed Mar 15 2023 23:46:23 GMT-0400 (Eastern Daylight Time)","596661","Untrustworthy,Trustworthy","","null","","","","ratingFB","","trustrating_stim/white_mw046.bmp","null","","","","","","","","","","",""
"image-keyboard-response","87","91617","0.0-6.0-1.41","64077ddd11208afe2bec171a","bdp_trlrn","Wed Mar 15 2023 23:46:23 GMT-0400 (Eastern Daylight Time)","596661","Untrustworthy,Trustworthy","","1265","","","","rating","","trustrating_stim/white_mw099.bmp","7","","","","","","","","","","",""
"image-keyboard-response","88","91818","0.0-6.0-2.41","64077ddd11208afe2bec171a","bdp_trlrn","Wed Mar 15 2023 23:46:23 GMT-0400 (Eastern Daylight Time)","596661","Untrustworthy,Trustworthy","","null","","","","ratingFB","","trustrating_stim/white_mw099.bmp","null","","","","","","","","","","",""
"image-keyboard-response","89","92897","0.0-6.0-1.42","64077ddd11208afe2bec171a","bdp_trlrn","Wed Mar 15 2023 23:46:23 GMT-0400 (Eastern Daylight Time)","596661","Untrustworthy,Trustworthy","","977","","","","rating","","trustrating_stim/white_00109_931230_fa_edt.bmp","2","","","","","","","","","","",""
"image-keyboard-response","90","93099","0.0-6.0-2.42","64077ddd11208afe2bec171a","bdp_trlrn","Wed Mar 15 2023 23:46:23 GMT-0400 (Eastern Daylight Time)","596661","Untrustworthy,Trustworthy","","null","","","","ratingFB","","trustrating_stim/white_00109_931230_fa_edt.bmp","null","","","","","","","","","","",""
"image-keyboard-response","91","94337","0.0-6.0-1.43","64077ddd11208afe2bec171a","bdp_trlrn","Wed Mar 15 2023 23:46:23 GMT-0400 (Eastern Daylight Time)","596661","Untrustworthy,Trustworthy","","1137","","","","rating","","trustrating_stim/white_mw084.bmp","1","","","","","","","","","","",""
"image-keyboard-response","92","94538","0.0-6.0-2.43","64077ddd11208afe2bec171a","bdp_trlrn","Wed Mar 15 2023 23:46:23 GMT-0400 (Eastern Daylight Time)","596661","Untrustworthy,Trustworthy","","null","","","","ratingFB","","trustrating_stim/white_mw084.bmp","null","","","","","","","","","","",""
"image-keyboard-response","93","96048","0.0-6.0-1.44","64077ddd11208afe2bec171a","bdp_trlrn","Wed Mar 15 2023 23:46:23 GMT-0400 (Eastern Daylight Time)","596661","Untrustworthy,Trustworthy","","1408","","","","rating","","trustrating_stim/white_mw089.bmp","8","","","","","","","","","","",""
"image-keyboard-response","94","96250","0.0-6.0-2.44","64077ddd11208afe2bec171a","bdp_trlrn","Wed Mar 15 2023 23:46:23 GMT-0400 (Eastern Daylight Time)","596661","Untrustworthy,Trustworthy","","null","","","","ratingFB","","trustrating_stim/white_mw089.bmp","null","","","","","","","","","","",""
"image-keyboard-response","95","97521","0.0-6.0-1.45","64077ddd11208afe2bec171a","bdp_trlrn","Wed Mar 15 2023 23:46:23 GMT-0400 (Eastern Daylight Time)","596661","Untrustworthy,Trustworthy","","1169","","","","rating","","trustrating_stim/white_00757_941201_fa_edt.bmp","9","","","","","","","","","","",""
"image-keyboard-response","96","97722","0.0-6.0-2.45","64077ddd11208afe2bec171a","bdp_trlrn","Wed Mar 15 2023 23:46:23 GMT-0400 (Eastern Daylight Time)","596661","Untrustworthy,Trustworthy","","null","","","","ratingFB","","trustrating_stim/white_00757_941201_fa_edt.bmp","null","","","","","","","","","","",""
"image-keyboard-response","97","98913","0.0-6.0-1.46","64077ddd11208afe2bec171a","bdp_trlrn","Wed Mar 15 2023 23:46:23 GMT-0400 (Eastern Daylight Time)","596661","Untrustworthy,Trustworthy","","1089","","","","rating","","trustrating_stim/white_mw063.bmp","8","","","","","","","","","","",""
"image-keyboard-response","98","99127","0.0-6.0-2.46","64077ddd11208afe2bec171a","bdp_trlrn","Wed Mar 15 2023 23:46:23 GMT-0400 (Eastern Daylight Time)","596661","Untrustworthy,Trustworthy","","null","","","","ratingFB","","trustrating_stim/white_mw063.bmp","null","","","","","","","","","","",""
"image-keyboard-response","99","101922","0.0-6.0-1.47","64077ddd11208afe2bec171a","bdp_trlrn","Wed Mar 15 2023 23:46:23 GMT-0400 (Eastern Daylight Time)","596661","Untrustworthy,Trustworthy","","2693","","","","rating","","trustrating_stim/white_00659_941121_fa_edt.bmp","3","","","","","","","","","","",""
"image-keyboard-response","100","102123","0.0-6.0-2.47","64077ddd11208afe2bec171a","bdp_trlrn","Wed Mar 15 2023 23:46:23 GMT-0400 (Eastern Daylight Time)","596661","Untrustworthy,Trustworthy","","null","","","","ratingFB","","trustrating_stim/white_00659_941121_fa_edt.bmp","null","","","","","","","","","","",""
"image-keyboard-response","101","103217","0.0-6.0-1.48","64077ddd11208afe2bec171a","bdp_trlrn","Wed Mar 15 2023 23:46:23 GMT-0400 (Eastern Daylight Time)","596661","Untrustworthy,Trustworthy","","992","","","","rating","","trustrating_stim/white_mw056.bmp","1","","","","","","","","","","",""
"image-keyboard-response","102","103418","0.0-6.0-2.48","64077ddd11208afe2bec171a","bdp_trlrn","Wed Mar 15 2023 23:46:23 GMT-0400 (Eastern Daylight Time)","596661","Untrustworthy,Trustworthy","","null","","","","ratingFB","","trustrating_stim/white_mw056.bmp","null","","","","","","","","","","",""
"image-keyboard-response","103","105649","0.0-6.0-1.49","64077ddd11208afe2bec171a","bdp_trlrn","Wed Mar 15 2023 23:46:23 GMT-0400 (Eastern Daylight Time)","596661","Untrustworthy,Trustworthy","","2128","","","","rating","","trustrating_stim/white_00120_931230_fa_edt.bmp","5","","","","","","","","","","",""
"image-keyboard-response","104","105850","0.0-6.0-2.49","64077ddd11208afe2bec171a","bdp_trlrn","Wed Mar 15 2023 23:46:23 GMT-0400 (Eastern Daylight Time)","596661","Untrustworthy,Trustworthy","","null","","","","ratingFB","","trustrating_stim/white_00120_931230_fa_edt.bmp","null","","","","","","","","","","",""
"image-keyboard-response","105","107121","0.0-6.0-1.50","64077ddd11208afe2bec171a","bdp_trlrn","Wed Mar 15 2023 23:46:23 GMT-0400 (Eastern Daylight Time)","596661","Untrustworthy,Trustworthy","","1169","","","","rating","","trustrating_stim/white_mw066.bmp","1","","","","","","","","","","",""
"image-keyboard-response","106","107322","0.0-6.0-2.50","64077ddd11208afe2bec171a","bdp_trlrn","Wed Mar 15 2023 23:46:23 GMT-0400 (Eastern Daylight Time)","596661","Untrustworthy,Trustworthy","","null","","","","ratingFB","","trustrating_stim/white_mw066.bmp","null","","","","","","","","","","",""
"image-keyboard-response","107","108641","0.0-6.0-1.51","64077ddd11208afe2bec171a","bdp_trlrn","Wed Mar 15 2023 23:46:23 GMT-0400 (Eastern Daylight Time)","596661","Untrustworthy,Trustworthy","","1216","","","","rating","","trustrating_stim/white_00340_940422_fa_edt.bmp","8","","","","","","","","","","",""
"image-keyboard-response","108","108842","0.0-6.0-2.51","64077ddd11208afe2bec171a","bdp_trlrn","Wed Mar 15 2023 23:46:23 GMT-0400 (Eastern Daylight Time)","596661","Untrustworthy,Trustworthy","","null","","","","ratingFB","","trustrating_stim/white_00340_940422_fa_edt.bmp","null","","","","","","","","","","",""
"image-keyboard-response","109","111232","0.0-6.0-1.52","64077ddd11208afe2bec171a","bdp_trlrn","Wed Mar 15 2023 23:46:23 GMT-0400 (Eastern Daylight Time)","596661","Untrustworthy,Trustworthy","","2288","","","","rating","","trustrating_stim/white_mw048.bmp","3","","","","","","","","","","",""
"image-keyboard-response","110","111434","0.0-6.0-2.52","64077ddd11208afe2bec171a","bdp_trlrn","Wed Mar 15 2023 23:46:23 GMT-0400 (Eastern Daylight Time)","596661","Untrustworthy,Trustworthy","","null","","","","ratingFB","","trustrating_stim/white_mw048.bmp","null","","","","","","","","","","",""
"image-keyboard-response","111","112753","0.0-6.0-1.53","64077ddd11208afe2bec171a","bdp_trlrn","Wed Mar 15 2023 23:46:23 GMT-0400 (Eastern Daylight Time)","596661","Untrustworthy,Trustworthy","","1218","","","","rating","","trustrating_stim/white_00223_940128_fb_edt.bmp","7","","","","","","","","","","",""
"image-keyboard-response","112","112955","0.0-6.0-2.53","64077ddd11208afe2bec171a","bdp_trlrn","Wed Mar 15 2023 23:46:23 GMT-0400 (Eastern Daylight Time)","596661","Untrustworthy,Trustworthy","","null","","","","ratingFB","","trustrating_stim/white_00223_940128_fb_edt.bmp","null","","","","","","","","","","",""
"image-keyboard-response","113","114112","0.0-6.0-1.54","64077ddd11208afe2bec171a","bdp_trlrn","Wed Mar 15 2023 23:46:23 GMT-0400 (Eastern Daylight Time)","596661","Untrustworthy,Trustworthy","","1056","","","","rating","","trustrating_stim/white_00785_941205_fb_edt.bmp","7","","","","","","","","","","",""
"image-keyboard-response","114","114314","0.0-6.0-2.54","64077ddd11208afe2bec171a","bdp_trlrn","Wed Mar 15 2023 23:46:23 GMT-0400 (Eastern Daylight Time)","596661","Untrustworthy,Trustworthy","","null","","","","ratingFB","","trustrating_stim/white_00785_941205_fb_edt.bmp","null","","","","","","","","","","",""
"image-keyboard-response","115","116064","0.0-6.0-1.55","64077ddd11208afe2bec171a","bdp_trlrn","Wed Mar 15 2023 23:46:23 GMT-0400 (Eastern Daylight Time)","596661","Untrustworthy,Trustworthy","","1648","","","","rating","","trustrating_stim/white_00577_940928_fa_edt.bmp","8","","","","","","","","","","",""
"image-keyboard-response","116","116267","0.0-6.0-2.55","64077ddd11208afe2bec171a","bdp_trlrn","Wed Mar 15 2023 23:46:23 GMT-0400 (Eastern Daylight Time)","596661","Untrustworthy,Trustworthy","","null","","","","ratingFB","","trustrating_stim/white_00577_940928_fa_edt.bmp","null","","","","","","","","","","",""
"image-keyboard-response","117","117312","0.0-6.0-1.56","64077ddd11208afe2bec171a","bdp_trlrn","Wed Mar 15 2023 23:46:23 GMT-0400 (Eastern Daylight Time)","596661","Untrustworthy,Trustworthy","","943","","","","rating","","trustrating_stim/white_mw049.bmp","1","","","","","","","","","","",""
"image-keyboard-response","118","117514","0.0-6.0-2.56","64077ddd11208afe2bec171a","bdp_trlrn","Wed Mar 15 2023 23:46:23 GMT-0400 (Eastern Daylight Time)","596661","Untrustworthy,Trustworthy","","null","","","","ratingFB","","trustrating_stim/white_mw049.bmp","null","","","","","","","","","","",""
"image-keyboard-response","119","119504","0.0-6.0-1.57","64077ddd11208afe2bec171a","bdp_trlrn","Wed Mar 15 2023 23:46:23 GMT-0400 (Eastern Daylight Time)","596661","Untrustworthy,Trustworthy","","1889","","","","rating","","trustrating_stim/white_00602_940928_fb_edt.bmp","3","","","","","","","","","","",""
"image-keyboard-response","120","119706","0.0-6.0-2.57","64077ddd11208afe2bec171a","bdp_trlrn","Wed Mar 15 2023 23:46:23 GMT-0400 (Eastern Daylight Time)","596661","Untrustworthy,Trustworthy","","null","","","","ratingFB","","trustrating_stim/white_00602_940928_fb_edt.bmp","null","","","","","","","","","","",""
"image-keyboard-response","121","121136","0.0-6.0-1.58","64077ddd11208afe2bec171a","bdp_trlrn","Wed Mar 15 2023 23:46:23 GMT-0400 (Eastern Daylight Time)","596661","Untrustworthy,Trustworthy","","1328","","","","rating","","trustrating_stim/white_00898_960530_fa_edt.bmp","5","","","","","","","","","","",""
"image-keyboard-response","122","121338","0.0-6.0-2.58","64077ddd11208afe2bec171a","bdp_trlrn","Wed Mar 15 2023 23:46:23 GMT-0400 (Eastern Daylight Time)","596661","Untrustworthy,Trustworthy","","null","","","","ratingFB","","trustrating_stim/white_00898_960530_fa_edt.bmp","null","","","","","","","","","","",""
"image-keyboard-response","123","123009","0.0-6.0-1.59","64077ddd11208afe2bec171a","bdp_trlrn","Wed Mar 15 2023 23:46:23 GMT-0400 (Eastern Daylight Time)","596661","Untrustworthy,Trustworthy","","1569","","","","rating","","trustrating_stim/white_00807_941205_fb_edt.bmp","6","","","","","","","","","","",""
"image-keyboard-response","124","123211","0.0-6.0-2.59","64077ddd11208afe2bec171a","bdp_trlrn","Wed Mar 15 2023 23:46:23 GMT-0400 (Eastern Daylight Time)","596661","Untrustworthy,Trustworthy","","null","","","","ratingFB","","trustrating_stim/white_00807_941205_fb_edt.bmp","null","","","","","","","","","","",""
"instructions","125","124560","0.0-7.0","64077ddd11208afe2bec171a","bdp_trlrn","Wed Mar 15 2023 23:46:23 GMT-0400 (Eastern Daylight Time)","596661","Untrustworthy,Trustworthy","[{""page_index"":0,""viewing_time"":1248}]","1248","","","","","","","","","","","","","","","","","",""
"instructions","126","205392","0.0-8.0","64077ddd11208afe2bec171a","bdp_trlrn","Wed Mar 15 2023 23:46:23 GMT-0400 (Eastern Daylight Time)","596661","Untrustworthy,Trustworthy","[{""page_index"":0,""viewing_time"":23275},{""page_index"":1,""viewing_time"":15904},{""page_index"":2,""viewing_time"":10544},{""page_index"":3,""viewing_time"":9055},{""page_index"":4,""viewing_time"":5489},{""page_index"":5,""viewing_time"":6239},{""page_index"":6,""viewing_time"":8209},{""page_index"":7,""viewing_time"":2015}]","80730","","","","","","","","","","","","","","","","","",""
"html-keyboard-response","127","211872","0.0-9.0","64077ddd11208afe2bec171a","bdp_trlrn","Wed Mar 15 2023 23:46:23 GMT-0400 (Eastern Daylight Time)","596661","Untrustworthy,Trustworthy","","6480","","","","","","<div class='header' style='text-align:left; position: absolute; top: 5%; left: 5%;'><small>Task 3 of 5</small></div><div class='instruxDiv'><p><strong>1) What is the minimum number of points you can choose to send to your partner?</strong></p><p>a) 0</p><p>b) 1</p><p>c) 5</p>","B","","","","","","","","","","",""
"html-keyboard-response","128","213056","0.0-10.0","64077ddd11208afe2bec171a","bdp_trlrn","Wed Mar 15 2023 23:46:23 GMT-0400 (Eastern Daylight Time)","596661","Untrustworthy,Trustworthy","","1075","","","","","","<div class='header' style='text-align:left; position: absolute; top: 5%; left: 5%;'><small>Task 3 of 5</small></div><div class='instruxDiv'><p><strong>1) What is the minimum number of points you can choose to send to your partner?</strong></p><p>a) 0</p><p style='color:#00FF00'>b) 1</p><p>c) 5</p><h3 style='color:#00FF00'>Correct!</h3><h3 class='center-content'>The correct response is b).</h3><h3 class='center-content'>The minimum number of points you can choose to send to your partner is 1 point.</h3><p><em>Press SPACEBAR to continue</em></p></div>"," ","","","","","","","","","","",""
"html-keyboard-response","129","215377","0.0-11.0","64077ddd11208afe2bec171a","bdp_trlrn","Wed Mar 15 2023 23:46:23 GMT-0400 (Eastern Daylight Time)","596661","Untrustworthy,Trustworthy","","2221","","","","","","<div class='header' style='text-align:left; position: absolute; top: 5%; left: 5%;'><small>Task 3 of 5</small></div><div class='instruxDiv'><p><strong>2) What is the maximum number of points you can choose to send to your partner?</strong></p><p>a) 8</p><p>b) 5</p><p>c) 3</p>","B","","","","","","","","","","",""
"html-keyboard-response","130","216243","0.0-12.0","64077ddd11208afe2bec171a","bdp_trlrn","Wed Mar 15 2023 23:46:23 GMT-0400 (Eastern Daylight Time)","596661","Untrustworthy,Trustworthy","","764","","","","","","<div class='header' style='text-align:left; position: absolute; top: 5%; left: 5%;'><small>Task 3 of 5</small></div><div class='instruxDiv'><p><strong>2) What is the maximum number of points you can choose to send to your partner?</strong></p><p>a) 8</p><p style='color:#00FF00'>b) 5</p><p>c) 3</p><h3 style='color:#00FF00'>Correct!</h3><h3 class='center-content'>The correct response is b).</h3><h3 class='center-content'>The maximum number of points you can choose to send to your partner is 5 points.</h3><p><em>Press SPACEBAR to continue</em></p></div>"," ","","","","","","","","","","",""
"html-keyboard-response","131","221408","0.0-13.0","64077ddd11208afe2bec171a","bdp_trlrn","Wed Mar 15 2023 23:46:23 GMT-0400 (Eastern Daylight Time)","596661","Untrustworthy,Trustworthy","","5061","","","","","","<div class='header' style='text-align:left; position: absolute; top: 5%; left: 5%;'><small>Task 3 of 5</small></div><div class='instruxDiv'><p><strong>3) What happens to the amount of points you send to your partner?</strong></p><p>a) Nothing</p><p>b) It doubles</p><p>c) It quadruples</p>","C","","","","","","","","","","",""
"html-keyboard-response","132","222848","0.0-14.0","64077ddd11208afe2bec171a","bdp_trlrn","Wed Mar 15 2023 23:46:23 GMT-0400 (Eastern Daylight Time)","596661","Untrustworthy,Trustworthy","","1338","","","","","","<div class='header' style='text-align:left; position: absolute; top: 5%; left: 5%;'><small>Task 3 of 5</small></div><div class='instruxDiv'><p><strong>3) What happens to the amount of points you send to your partner?</strong></p><p>a) Nothing</p><p>b) It doubles</p><p style='color:#00FF00'>c) It quadruples</p><h3 style='color:#00FF00'>Correct!</h3><h3 class='center-content'>The correct response is c).</h3><h3 class='center-content'>The amount of points you send to your partner quadruples.</h3><p><em>Press SPACEBAR to continue</em></p></div>"," ","","","","","","","","","","",""
"html-keyboard-response","133","241697","0.0-15.0","64077ddd11208afe2bec171a","bdp_trlrn","Wed Mar 15 2023 23:46:23 GMT-0400 (Eastern Daylight Time)","596661","Untrustworthy,Trustworthy","","18748","","","","","","<div class='header' style='text-align:left; position: absolute; top: 5%; left: 5%;'><small>Task 3 of 5</small></div><div class='instruxDiv'><p><strong>4) If you decided to share 4 out of 5 points with your partner, and they decided to share half of the amount they received with you, how many points would you receive back from them on this round?</strong></p><p>a) 16</p><p>b) 0</p><p>c) 8</p>","C","","","","","","","","","","",""
"html-keyboard-response","134","242400","0.0-16.0","64077ddd11208afe2bec171a","bdp_trlrn","Wed Mar 15 2023 23:46:23 GMT-0400 (Eastern Daylight Time)","596661","Untrustworthy,Trustworthy","","601","","","","","","<div class='header' style='text-align:left; position: absolute; top: 5%; left: 5%;'><small>Task 3 of 5</small></div><div class='instruxDiv'><p><strong>4) If you decided to share 4 out of 5 points with your partner, and they decided to share half of the amount they received with you, how many points would you receive back from them on this round?</strong></p><p>a) 16</p><p>b) 0</p><p style='color:#00FF00'>c) 8</p><h3 style='color:#00FF00'>Correct!</h3><h3 class='center-content'>The correct response is c).</h3><h3 class='center-content'>If you shared 4 out of 5 points with your partner and they decided to share half of the amount they received with you, you would receive 8 points back (i.e. (4 x 4)/2 = 8).</h3><p><em>Press SPACEBAR to continue</em></p></div>"," ","","","","","","","","","","",""
"html-keyboard-response","135","247503","0.0-17.0","64077ddd11208afe2bec171a","bdp_trlrn","Wed Mar 15 2023 23:46:23 GMT-0400 (Eastern Daylight Time)","596661","Untrustworthy,Trustworthy","","null","","","","","","<div class='header' style='text-align:left; position: absolute; top: 5%; left: 5%;'><small>Task 3 of 5</small></div><div class='instruxDiv'><p>Thank you for completing the quiz<p>These are the actual partners you will be interacting with in the next block:<p><div class='tc' align='center'><img class='introPic' src='trustrating_stim/white_mw084.bmp'><br><strong>Caleb</strong></div><div class='bl' align='center'><img class='introPic' src='trustrating_stim/white_00223_940128_fb_edt.bmp'><br><strong>Evan</strong></div><div class='br' align='center'><img class='introPic' src='trustrating_stim/white_00761_941201_fb_edt.bmp'><br><strong>Jordan</strong></div></div><p>Across <strong>66 rounds</strong> you will interact with each partner <strong>22 times</strong> (in random order).<p style='align:center; color:white'><font <em>Press SPACEBAR to continue</em></p>","null","","","","","","","","","","",""
"instructions","136","250640","0.0-18.0","64077ddd11208afe2bec171a","bdp_trlrn","Wed Mar 15 2023 23:46:23 GMT-0400 (Eastern Daylight Time)","596661","Untrustworthy,Trustworthy","[{""page_index"":0,""viewing_time"":704},{""page_index"":1,""viewing_time"":2432}]","3137","","","","","","","","","","","","","","","","","",""
"html-keyboard-response","137","253585","0.0-19.0-1.0","64077ddd11208afe2bec171a","bdp_trlrn","Wed Mar 15 2023 23:46:23 GMT-0400 (Eastern Daylight Time)","596661","Untrustworthy,Trustworthy","","2842","","","","decision","","<div class='trialDiv'><img src='trustrating_stim/white_00223_940128_fb_edt.bmp'><br><font class='baseline'><strong>Evan</strong><p>Choose number of points to send.</font><div class='respPicDiv'><img src='img/responseButtonOffersNo0L.png' class='respPic'></div></div>","3","1","Evan","7","Kept","0.8,0.35","11","0.8","trustrating_stim/white_00223_940128_fb_edt.bmp","6.5","5","1"
"html-keyboard-response","138","253836","0.0-19.0-2.0","64077ddd11208afe2bec171a","bdp_trlrn","Wed Mar 15 2023 23:46:23 GMT-0400 (Eastern Daylight Time)","596661","Untrustworthy,Trustworthy","","null","","","","decisionFB","","<div class='trialDiv'><img src='trustrating_stim/white_00223_940128_fb_edt.bmp'><br><font class='baseline'><strong>Evan</strong><p>Choose number of points to send.</font><div class='respPicDiv'><img src='img/responseButtonOffersNo0L3.png' class='respPic'></div></div>","null","1","Evan","7","Kept","0.8,0.35","11","0.8","trustrating_stim/white_00223_940128_fb_edt.bmp","6.5","2","1"
"html-keyboard-response","139","254839","0.0-19.0-3.0","64077ddd11208afe2bec171a","bdp_trlrn","Wed Mar 15 2023 23:46:23 GMT-0400 (Eastern Daylight Time)","596661","Untrustworthy,Trustworthy","","null","","","","feedback","","<div class='trialDiv'><img src='trustrating_stim/white_00223_940128_fb_edt.bmp'><br><font class='baseline'><strong>Evan</strong><p>Received: <strong>12</strong></font> &nbsp; &nbsp; &nbsp; &nbsp; &nbsp; &nbsp;<font class='negOutcome'>Shared back: <strong>0</strong></font></font><div class='respPicDiv'><img src='img/responseButtonOffersNo0_wht.png' class='respPic'></div></div>","null","1","Evan","7","Kept","0.8,0.35","11","0.8","trustrating_stim/white_00223_940128_fb_edt.bmp","6.5","2","1"
"html-keyboard-response","140","256736","0.0-19.0-1.1","64077ddd11208afe2bec171a","bdp_trlrn","Wed Mar 15 2023 23:46:23 GMT-0400 (Eastern Daylight Time)","596661","Untrustworthy,Trustworthy","","1895","","","","decision","","<div class='trialDiv'><img src='trustrating_stim/white_mw084.bmp'><br><font class='baseline'><strong>Caleb</strong><p>Choose number of points to send.</font><div class='respPicDiv'><img src='img/responseButtonOffersNo0L.png' class='respPic'></div></div>","3","1","Caleb","0","Kept","0.2,0.65","9","0.2","trustrating_stim/white_mw084.bmp","1","7","2"
"html-keyboard-response","141","256987","0.0-19.0-2.1","64077ddd11208afe2bec171a","bdp_trlrn","Wed Mar 15 2023 23:46:23 GMT-0400 (Eastern Daylight Time)","596661","Untrustworthy,Trustworthy","","null","","","","decisionFB","","<div class='trialDiv'><img src='trustrating_stim/white_mw084.bmp'><br><font class='baseline'><strong>Caleb</strong><p>Choose number of points to send.</font><div class='respPicDiv'><img src='img/responseButtonOffersNo0L3.png' class='respPic'></div></div>","null","1","Caleb","0","Kept","0.2,0.65","9","0.2","trustrating_stim/white_mw084.bmp","1","4","2"
"html-keyboard-response","142","257989","0.0-19.0-3.1","64077ddd11208afe2bec171a","bdp_trlrn","Wed Mar 15 2023 23:46:23 GMT-0400 (Eastern Daylight Time)","596661","Untrustworthy,Trustworthy","","null","","","","feedback","","<div class='trialDiv'><img src='trustrating_stim/white_mw084.bmp'><br><font class='baseline'><strong>Caleb</strong><p>Received: <strong>12</strong></font> &nbsp; &nbsp; &nbsp; &nbsp; &nbsp; &nbsp;<font class='negOutcome'>Shared back: <strong>0</strong></font></font><div class='respPicDiv'><img src='img/responseButtonOffersNo0_wht.png' class='respPic'></div></div>","null","1","Caleb","0","Kept","0.2,0.65","9","0.2","trustrating_stim/white_mw084.bmp","1","4","2"
"html-keyboard-response","143","259632","0.0-19.0-1.2","64077ddd11208afe2bec171a","bdp_trlrn","Wed Mar 15 2023 23:46:23 GMT-0400 (Eastern Daylight Time)","596661","Untrustworthy,Trustworthy","","1641","","","","decision","","<div class='trialDiv'><img src='trustrating_stim/white_00761_941201_fb_edt.bmp'><br><font class='baseline'><strong>Jordan</strong><p>Choose number of points to send.</font><div class='respPicDiv'><img src='img/responseButtonOffersNo0L.png' class='respPic'></div></div>","5","1","Jordan","11","Shared","0.2,0.8","14","0.2","trustrating_stim/white_00761_941201_fb_edt.bmp","8.5","9","3"
"html-keyboard-response","144","259884","0.0-19.0-2.2","64077ddd11208afe2bec171a","bdp_trlrn","Wed Mar 15 2023 23:46:23 GMT-0400 (Eastern Daylight Time)","596661","Untrustworthy,Trustworthy","","null","","","","decisionFB","","<div class='trialDiv'><img src='trustrating_stim/white_00761_941201_fb_edt.bmp'><br><font class='baseline'><strong>Jordan</strong><p>Choose number of points to send.</font><div class='respPicDiv'><img src='img/responseButtonOffersNo0L5.png' class='respPic'></div></div>","null","1","Jordan","11","Shared","0.2,0.8","14","0.2","trustrating_stim/white_00761_941201_fb_edt.bmp","8.5","4","3"
"html-keyboard-response","145","260885","0.0-19.0-3.2","64077ddd11208afe2bec171a","bdp_trlrn","Wed Mar 15 2023 23:46:23 GMT-0400 (Eastern Daylight Time)","596661","Untrustworthy,Trustworthy","","null","","","","feedback","","<div class='trialDiv'><img src='trustrating_stim/white_00761_941201_fb_edt.bmp'><br><font class='baseline'><strong>Jordan</strong><p>Received: <strong>20</strong></font> &nbsp; &nbsp; &nbsp; &nbsp; &nbsp; &nbsp;<font class='posOutcome'>Shared back: <strong>10</strong></font></font><div class='respPicDiv'><img src='img/responseButtonOffersNo0_wht.png' class='respPic'></div></div>","null","1","Jordan","11","Shared","0.2,0.8","14","0.2","trustrating_stim/white_00761_941201_fb_edt.bmp","8.5","14","3"
"html-keyboard-response","146","262303","0.0-19.0-1.3","64077ddd11208afe2bec171a","bdp_trlrn","Wed Mar 15 2023 23:46:23 GMT-0400 (Eastern Daylight Time)","596661","Untrustworthy,Trustworthy","","1417","","","","decision","","<div class='trialDiv'><img src='trustrating_stim/white_00223_940128_fb_edt.bmp'><br><font class='baseline'><strong>Evan</strong><p>Choose number of points to send.</font><div class='respPicDiv'><img src='img/responseButtonOffersNo0L.png' class='respPic'></div></div>","2","2","Evan","7","Kept","0.8,0.35","11","0.8","trustrating_stim/white_00223_940128_fb_edt.bmp","6.5","19","4"
"html-keyboard-response","147","262555","0.0-19.0-2.3","64077ddd11208afe2bec171a","bdp_trlrn","Wed Mar 15 2023 23:46:23 GMT-0400 (Eastern Daylight Time)","596661","Untrustworthy,Trustworthy","","null","","","","decisionFB","","<div class='trialDiv'><img src='trustrating_stim/white_00223_940128_fb_edt.bmp'><br><font class='baseline'><strong>Evan</strong><p>Choose number of points to send.</font><div class='respPicDiv'><img src='img/responseButtonOffersNo0L2.png' class='respPic'></div></div>","null","2","Evan","7","Kept","0.8,0.35","11","0.8","trustrating_stim/white_00223_940128_fb_edt.bmp","6.5","17","4"
"html-keyboard-response","148","263556","0.0-19.0-3.3","64077ddd11208afe2bec171a","bdp_trlrn","Wed Mar 15 2023 23:46:23 GMT-0400 (Eastern Daylight Time)","596661","Untrustworthy,Trustworthy","","null","","","","feedback","","<div class='trialDiv'><img src='trustrating_stim/white_00223_940128_fb_edt.bmp'><br><font class='baseline'><strong>Evan</strong><p>Received: <strong>8</strong></font> &nbsp; &nbsp; &nbsp; &nbsp; &nbsp; &nbsp;<font class='negOutcome'>Shared back: <strong>0</strong></font></font><div class='respPicDiv'><img src='img/responseButtonOffersNo0_wht.png' class='respPic'></div></div>","null","2","Evan","7","Kept","0.8,0.35","11","0.8","trustrating_stim/white_00223_940128_fb_edt.bmp","6.5","17","4"
"html-keyboard-response","149","264624","0.0-19.0-1.4","64077ddd11208afe2bec171a","bdp_trlrn","Wed Mar 15 2023 23:46:23 GMT-0400 (Eastern Daylight Time)","596661","Untrustworthy,Trustworthy","","1067","","","","decision","","<div class='trialDiv'><img src='trustrating_stim/white_mw084.bmp'><br><font class='baseline'><strong>Caleb</strong><p>Choose number of points to send.</font><div class='respPicDiv'><img src='img/responseButtonOffersNo0L.png' class='respPic'></div></div>","2","2","Caleb","0","Kept","0.2,0.65","9","0.2","trustrating_stim/white_mw084.bmp","1","22","5"
"html-keyboard-response","150","264875","0.0-19.0-2.4","64077ddd11208afe2bec171a","bdp_trlrn","Wed Mar 15 2023 23:46:23 GMT-0400 (Eastern Daylight Time)","596661","Untrustworthy,Trustworthy","","null","","","","decisionFB","","<div class='trialDiv'><img src='trustrating_stim/white_mw084.bmp'><br><font class='baseline'><strong>Caleb</strong><p>Choose number of points to send.</font><div class='respPicDiv'><img src='img/responseButtonOffersNo0L2.png' class='respPic'></div></div>","null","2","Caleb","0","Kept","0.2,0.65","9","0.2","trustrating_stim/white_mw084.bmp","1","20","5"
"html-keyboard-response","151","265877","0.0-19.0-3.4","64077ddd11208afe2bec171a","bdp_trlrn","Wed Mar 15 2023 23:46:23 GMT-0400 (Eastern Daylight Time)","596661","Untrustworthy,Trustworthy","","null","","","","feedback","","<div class='trialDiv'><img src='trustrating_stim/white_mw084.bmp'><br><font class='baseline'><strong>Caleb</strong><p>Received: <strong>8</strong></font> &nbsp; &nbsp; &nbsp; &nbsp; &nbsp; &nbsp;<font class='negOutcome'>Shared back: <strong>0</strong></font></font><div class='respPicDiv'><img src='img/responseButtonOffersNo0_wht.png' class='respPic'></div></div>","null","2","Caleb","0","Kept","0.2,0.65","9","0.2","trustrating_stim/white_mw084.bmp","1","20","5"
"html-keyboard-response","152","266927","0.0-19.0-1.5","64077ddd11208afe2bec171a","bdp_trlrn","Wed Mar 15 2023 23:46:23 GMT-0400 (Eastern Daylight Time)","596661","Untrustworthy,Trustworthy","","1049","","","","decision","","<div class='trialDiv'><img src='trustrating_stim/white_00761_941201_fb_edt.bmp'><br><font class='baseline'><strong>Jordan</strong><p>Choose number of points to send.</font><div class='respPicDiv'><img src='img/responseButtonOffersNo0L.png' class='respPic'></div></div>","5","2","Jordan","11","Kept","0.2,0.8","14","0.2","trustrating_stim/white_00761_941201_fb_edt.bmp","8.5","25","6"
"html-keyboard-response","153","267179","0.0-19.0-2.5","64077ddd11208afe2bec171a","bdp_trlrn","Wed Mar 15 2023 23:46:23 GMT-0400 (Eastern Daylight Time)","596661","Untrustworthy,Trustworthy","","null","","","","decisionFB","","<div class='trialDiv'><img src='trustrating_stim/white_00761_941201_fb_edt.bmp'><br><font class='baseline'><strong>Jordan</strong><p>Choose number of points to send.</font><div class='respPicDiv'><img src='img/responseButtonOffersNo0L5.png' class='respPic'></div></div>","null","2","Jordan","11","Kept","0.2,0.8","14","0.2","trustrating_stim/white_00761_941201_fb_edt.bmp","8.5","20","6"
"html-keyboard-response","154","268180","0.0-19.0-3.5","64077ddd11208afe2bec171a","bdp_trlrn","Wed Mar 15 2023 23:46:23 GMT-0400 (Eastern Daylight Time)","596661","Untrustworthy,Trustworthy","","null","","","","feedback","","<div class='trialDiv'><img src='trustrating_stim/white_00761_941201_fb_edt.bmp'><br><font class='baseline'><strong>Jordan</strong><p>Received: <strong>20</strong></font> &nbsp; &nbsp; &nbsp; &nbsp; &nbsp; &nbsp;<font class='negOutcome'>Shared back: <strong>0</strong></font></font><div class='respPicDiv'><img src='img/responseButtonOffersNo0_wht.png' class='respPic'></div></div>","null","2","Jordan","11","Kept","0.2,0.8","14","0.2","trustrating_stim/white_00761_941201_fb_edt.bmp","8.5","20","6"
"html-keyboard-response","155","268992","0.0-19.0-1.6","64077ddd11208afe2bec171a","bdp_trlrn","Wed Mar 15 2023 23:46:23 GMT-0400 (Eastern Daylight Time)","596661","Untrustworthy,Trustworthy","","810","","","","decision","","<div class='trialDiv'><img src='trustrating_stim/white_mw084.bmp'><br><font class='baseline'><strong>Caleb</strong><p>Choose number of points to send.</font><div class='respPicDiv'><img src='img/responseButtonOffersNo0L.png' class='respPic'></div></div>","1","3","Caleb","0","Kept","0.2,0.65","9","0.2","trustrating_stim/white_mw084.bmp","1","25","7"
"html-keyboard-response","156","269244","0.0-19.0-2.6","64077ddd11208afe2bec171a","bdp_trlrn","Wed Mar 15 2023 23:46:23 GMT-0400 (Eastern Daylight Time)","596661","Untrustworthy,Trustworthy","","null","","","","decisionFB","","<div class='trialDiv'><img src='trustrating_stim/white_mw084.bmp'><br><font class='baseline'><strong>Caleb</strong><p>Choose number of points to send.</font><div class='respPicDiv'><img src='img/responseButtonOffersNo0L1.png' class='respPic'></div></div>","null","3","Caleb","0","Kept","0.2,0.65","9","0.2","trustrating_stim/white_mw084.bmp","1","24","7"
"html-keyboard-response","157","270246","0.0-19.0-3.6","64077ddd11208afe2bec171a","bdp_trlrn","Wed Mar 15 2023 23:46:23 GMT-0400 (Eastern Daylight Time)","596661","Untrustworthy,Trustworthy","","null","","","","feedback","","<div class='trialDiv'><img src='trustrating_stim/white_mw084.bmp'><br><font class='baseline'><strong>Caleb</strong><p>Received: <strong>4</strong></font> &nbsp; &nbsp; &nbsp; &nbsp; &nbsp; &nbsp;<font class='negOutcome'>Shared back: <strong>0</strong></font></font><div class='respPicDiv'><img src='img/responseButtonOffersNo0_wht.png' class='respPic'></div></div>","null","3","Caleb","0","Kept","0.2,0.65","9","0.2","trustrating_stim/white_mw084.bmp","1","24","7"
"html-keyboard-response","158","273439","0.0-19.0-1.7","64077ddd11208afe2bec171a","bdp_trlrn","Wed Mar 15 2023 23:46:23 GMT-0400 (Eastern Daylight Time)","596661","Untrustworthy,Trustworthy","","3193","","","","decision","","<div class='trialDiv'><img src='trustrating_stim/white_00761_941201_fb_edt.bmp'><br><font class='baseline'><strong>Jordan</strong><p>Choose number of points to send.</font><div class='respPicDiv'><img src='img/responseButtonOffersNo0L.png' class='respPic'></div></div>","4","3","Jordan","11","Shared","0.2,0.8","14","0.2","trustrating_stim/white_00761_941201_fb_edt.bmp","8.5","29","8"
"html-keyboard-response","159","273691","0.0-19.0-2.7","64077ddd11208afe2bec171a","bdp_trlrn","Wed Mar 15 2023 23:46:23 GMT-0400 (Eastern Daylight Time)","596661","Untrustworthy,Trustworthy","","null","","","","decisionFB","","<div class='trialDiv'><img src='trustrating_stim/white_00761_941201_fb_edt.bmp'><br><font class='baseline'><strong>Jordan</strong><p>Choose number of points to send.</font><div class='respPicDiv'><img src='img/responseButtonOffersNo0L4.png' class='respPic'></div></div>","null","3","Jordan","11","Shared","0.2,0.8","14","0.2","trustrating_stim/white_00761_941201_fb_edt.bmp","8.5","25","8"
"html-keyboard-response","160","274693","0.0-19.0-3.7","64077ddd11208afe2bec171a","bdp_trlrn","Wed Mar 15 2023 23:46:23 GMT-0400 (Eastern Daylight Time)","596661","Untrustworthy,Trustworthy","","null","","","","feedback","","<div class='trialDiv'><img src='trustrating_stim/white_00761_941201_fb_edt.bmp'><br><font class='baseline'><strong>Jordan</strong><p>Received: <strong>16</strong></font> &nbsp; &nbsp; &nbsp; &nbsp; &nbsp; &nbsp;<font class='posOutcome'>Shared back: <strong>8</strong></font></font><div class='respPicDiv'><img src='img/responseButtonOffersNo0_wht.png' class='respPic'></div></div>","null","3","Jordan","11","Shared","0.2,0.8","14","0.2","trustrating_stim/white_00761_941201_fb_edt.bmp","8.5","33","8"
"html-keyboard-response","161","275520","0.0-19.0-1.8","64077ddd11208afe2bec171a","bdp_trlrn","Wed Mar 15 2023 23:46:23 GMT-0400 (Eastern Daylight Time)","596661","Untrustworthy,Trustworthy","","827","","","","decision","","<div class='trialDiv'><img src='trustrating_stim/white_00223_940128_fb_edt.bmp'><br><font class='baseline'><strong>Evan</strong><p>Choose number of points to send.</font><div class='respPicDiv'><img src='img/responseButtonOffersNo0L.png' class='respPic'></div></div>","1","3","Evan","7","Kept","0.8,0.35","11","0.8","trustrating_stim/white_00223_940128_fb_edt.bmp","6.5","38","9"
"html-keyboard-response","162","275773","0.0-19.0-2.8","64077ddd11208afe2bec171a","bdp_trlrn","Wed Mar 15 2023 23:46:23 GMT-0400 (Eastern Daylight Time)","596661","Untrustworthy,Trustworthy","","null","","","","decisionFB","","<div class='trialDiv'><img src='trustrating_stim/white_00223_940128_fb_edt.bmp'><br><font class='baseline'><strong>Evan</strong><p>Choose number of points to send.</font><div class='respPicDiv'><img src='img/responseButtonOffersNo0L1.png' class='respPic'></div></div>","null","3","Evan","7","Kept","0.8,0.35","11","0.8","trustrating_stim/white_00223_940128_fb_edt.bmp","6.5","37","9"
"html-keyboard-response","163","276774","0.0-19.0-3.8","64077ddd11208afe2bec171a","bdp_trlrn","Wed Mar 15 2023 23:46:23 GMT-0400 (Eastern Daylight Time)","596661","Untrustworthy,Trustworthy","","null","","","","feedback","","<div class='trialDiv'><img src='trustrating_stim/white_00223_940128_fb_edt.bmp'><br><font class='baseline'><strong>Evan</strong><p>Received: <strong>4</strong></font> &nbsp; &nbsp; &nbsp; &nbsp; &nbsp; &nbsp;<font class='negOutcome'>Shared back: <strong>0</strong></font></font><div class='respPicDiv'><img src='img/responseButtonOffersNo0_wht.png' class='respPic'></div></div>","null","3","Evan","7","Kept","0.8,0.35","11","0.8","trustrating_stim/white_00223_940128_fb_edt.bmp","6.5","37","9"
"html-keyboard-response","164","277551","0.0-19.0-1.9","64077ddd11208afe2bec171a","bdp_trlrn","Wed Mar 15 2023 23:46:23 GMT-0400 (Eastern Daylight Time)","596661","Untrustworthy,Trustworthy","","777","","","","decision","","<div class='trialDiv'><img src='trustrating_stim/white_mw084.bmp'><br><font class='baseline'><strong>Caleb</strong><p>Choose number of points to send.</font><div class='respPicDiv'><img src='img/responseButtonOffersNo0L.png' class='respPic'></div></div>","1","4","Caleb","0","Kept","0.2,0.65","9","0.2","trustrating_stim/white_mw084.bmp","1","42","10"
"html-keyboard-response","165","277803","0.0-19.0-2.9","64077ddd11208afe2bec171a","bdp_trlrn","Wed Mar 15 2023 23:46:23 GMT-0400 (Eastern Daylight Time)","596661","Untrustworthy,Trustworthy","","null","","","","decisionFB","","<div class='trialDiv'><img src='trustrating_stim/white_mw084.bmp'><br><font class='baseline'><strong>Caleb</strong><p>Choose number of points to send.</font><div class='respPicDiv'><img src='img/responseButtonOffersNo0L1.png' class='respPic'></div></div>","null","4","Caleb","0","Kept","0.2,0.65","9","0.2","trustrating_stim/white_mw084.bmp","1","41","10"
"html-keyboard-response","166","278805","0.0-19.0-3.9","64077ddd11208afe2bec171a","bdp_trlrn","Wed Mar 15 2023 23:46:23 GMT-0400 (Eastern Daylight Time)","596661","Untrustworthy,Trustworthy","","null","","","","feedback","","<div class='trialDiv'><img src='trustrating_stim/white_mw084.bmp'><br><font class='baseline'><strong>Caleb</strong><p>Received: <strong>4</strong></font> &nbsp; &nbsp; &nbsp; &nbsp; &nbsp; &nbsp;<font class='negOutcome'>Shared back: <strong>0</strong></font></font><div class='respPicDiv'><img src='img/responseButtonOffersNo0_wht.png' class='respPic'></div></div>","null","4","Caleb","0","Kept","0.2,0.65","9","0.2","trustrating_stim/white_mw084.bmp","1","41","10"
"html-keyboard-response","167","281487","0.0-19.0-1.10","64077ddd11208afe2bec171a","bdp_trlrn","Wed Mar 15 2023 23:46:23 GMT-0400 (Eastern Daylight Time)","596661","Untrustworthy,Trustworthy","","2682","","","","decision","","<div class='trialDiv'><img src='trustrating_stim/white_00761_941201_fb_edt.bmp'><br><font class='baseline'><strong>Jordan</strong><p>Choose number of points to send.</font><div class='respPicDiv'><img src='img/responseButtonOffersNo0L.png' class='respPic'></div></div>","5","4","Jordan","11","Kept","0.2,0.8","14","0.2","trustrating_stim/white_00761_941201_fb_edt.bmp","8.5","46","11"
"html-keyboard-response","168","281739","0.0-19.0-2.10","64077ddd11208afe2bec171a","bdp_trlrn","Wed Mar 15 2023 23:46:23 GMT-0400 (Eastern Daylight Time)","596661","Untrustworthy,Trustworthy","","null","","","","decisionFB","","<div class='trialDiv'><img src='trustrating_stim/white_00761_941201_fb_edt.bmp'><br><font class='baseline'><strong>Jordan</strong><p>Choose number of points to send.</font><div class='respPicDiv'><img src='img/responseButtonOffersNo0L5.png' class='respPic'></div></div>","null","4","Jordan","11","Kept","0.2,0.8","14","0.2","trustrating_stim/white_00761_941201_fb_edt.bmp","8.5","41","11"
"html-keyboard-response","169","282740","0.0-19.0-3.10","64077ddd11208afe2bec171a","bdp_trlrn","Wed Mar 15 2023 23:46:23 GMT-0400 (Eastern Daylight Time)","596661","Untrustworthy,Trustworthy","","null","","","","feedback","","<div class='trialDiv'><img src='trustrating_stim/white_00761_941201_fb_edt.bmp'><br><font class='baseline'><strong>Jordan</strong><p>Received: <strong>20</strong></font> &nbsp; &nbsp; &nbsp; &nbsp; &nbsp; &nbsp;<font class='negOutcome'>Shared back: <strong>0</strong></font></font><div class='respPicDiv'><img src='img/responseButtonOffersNo0_wht.png' class='respPic'></div></div>","null","4","Jordan","11","Kept","0.2,0.8","14","0.2","trustrating_stim/white_00761_941201_fb_edt.bmp","8.5","41","11"
"html-keyboard-response","170","283455","0.0-19.0-1.11","64077ddd11208afe2bec171a","bdp_trlrn","Wed Mar 15 2023 23:46:23 GMT-0400 (Eastern Daylight Time)","596661","Untrustworthy,Trustworthy","","714","","","","decision","","<div class='trialDiv'><img src='trustrating_stim/white_00223_940128_fb_edt.bmp'><br><font class='baseline'><strong>Evan</strong><p>Choose number of points to send.</font><div class='respPicDiv'><img src='img/responseButtonOffersNo0L.png' class='respPic'></div></div>","2","4","Evan","7","Shared","0.8,0.35","11","0.8","trustrating_stim/white_00223_940128_fb_edt.bmp","6.5","46","12"
"html-keyboard-response","171","283708","0.0-19.0-2.11","64077ddd11208afe2bec171a","bdp_trlrn","Wed Mar 15 2023 23:46:23 GMT-0400 (Eastern Daylight Time)","596661","Untrustworthy,Trustworthy","","null","","","","decisionFB","","<div class='trialDiv'><img src='trustrating_stim/white_00223_940128_fb_edt.bmp'><br><font class='baseline'><strong>Evan</strong><p>Choose number of points to send.</font><div class='respPicDiv'><img src='img/responseButtonOffersNo0L2.png' class='respPic'></div></div>","null","4","Evan","7","Shared","0.8,0.35","11","0.8","trustrating_stim/white_00223_940128_fb_edt.bmp","6.5","44","12"
"html-keyboard-response","172","284709","0.0-19.0-3.11","64077ddd11208afe2bec171a","bdp_trlrn","Wed Mar 15 2023 23:46:23 GMT-0400 (Eastern Daylight Time)","596661","Untrustworthy,Trustworthy","","null","","","","feedback","","<div class='trialDiv'><img src='trustrating_stim/white_00223_940128_fb_edt.bmp'><br><font class='baseline'><strong>Evan</strong><p>Received: <strong>8</strong></font> &nbsp; &nbsp; &nbsp; &nbsp; &nbsp; &nbsp;<font class='posOutcome'>Shared back: <strong>4</strong></font></font><div class='respPicDiv'><img src='img/responseButtonOffersNo0_wht.png' class='respPic'></div></div>","null","4","Evan","7","Shared","0.8,0.35","11","0.8","trustrating_stim/white_00223_940128_fb_edt.bmp","6.5","48","12"
"html-keyboard-response","173","285968","0.0-19.0-1.12","64077ddd11208afe2bec171a","bdp_trlrn","Wed Mar 15 2023 23:46:23 GMT-0400 (Eastern Daylight Time)","596661","Untrustworthy,Trustworthy","","1258","","","","decision","","<div class='trialDiv'><img src='trustrating_stim/white_00761_941201_fb_edt.bmp'><br><font class='baseline'><strong>Jordan</strong><p>Choose number of points to send.</font><div class='respPicDiv'><img src='img/responseButtonOffersNo0L.png' class='respPic'></div></div>","4","5","Jordan","11","Shared","0.2,0.8","14","0.2","trustrating_stim/white_00761_941201_fb_edt.bmp","8.5","53","13"
"html-keyboard-response","174","286219","0.0-19.0-2.12","64077ddd11208afe2bec171a","bdp_trlrn","Wed Mar 15 2023 23:46:23 GMT-0400 (Eastern Daylight Time)","596661","Untrustworthy,Trustworthy","","null","","","","decisionFB","","<div class='trialDiv'><img src='trustrating_stim/white_00761_941201_fb_edt.bmp'><br><font class='baseline'><strong>Jordan</strong><p>Choose number of points to send.</font><div class='respPicDiv'><img src='img/responseButtonOffersNo0L4.png' class='respPic'></div></div>","null","5","Jordan","11","Shared","0.2,0.8","14","0.2","trustrating_stim/white_00761_941201_fb_edt.bmp","8.5","49","13"
"html-keyboard-response","175","287221","0.0-19.0-3.12","64077ddd11208afe2bec171a","bdp_trlrn","Wed Mar 15 2023 23:46:23 GMT-0400 (Eastern Daylight Time)","596661","Untrustworthy,Trustworthy","","null","","","","feedback","","<div class='trialDiv'><img src='trustrating_stim/white_00761_941201_fb_edt.bmp'><br><font class='baseline'><strong>Jordan</strong><p>Received: <strong>16</strong></font> &nbsp; &nbsp; &nbsp; &nbsp; &nbsp; &nbsp;<font class='posOutcome'>Shared back: <strong>8</strong></font></font><div class='respPicDiv'><img src='img/responseButtonOffersNo0_wht.png' class='respPic'></div></div>","null","5","Jordan","11","Shared","0.2,0.8","14","0.2","trustrating_stim/white_00761_941201_fb_edt.bmp","8.5","57","13"
"html-keyboard-response","176","289023","0.0-19.0-1.13","64077ddd11208afe2bec171a","bdp_trlrn","Wed Mar 15 2023 23:46:23 GMT-0400 (Eastern Daylight Time)","596661","Untrustworthy,Trustworthy","","1802","","","","decision","","<div class='trialDiv'><img src='trustrating_stim/white_mw084.bmp'><br><font class='baseline'><strong>Caleb</strong><p>Choose number of points to send.</font><div class='respPicDiv'><img src='img/responseButtonOffersNo0L.png' class='respPic'></div></div>","2","5","Caleb","0","Kept","0.2,0.65","9","0.2","trustrating_stim/white_mw084.bmp","1","62","14"
"html-keyboard-response","177","289275","0.0-19.0-2.13","64077ddd11208afe2bec171a","bdp_trlrn","Wed Mar 15 2023 23:46:23 GMT-0400 (Eastern Daylight Time)","596661","Untrustworthy,Trustworthy","","null","","","","decisionFB","","<div class='trialDiv'><img src='trustrating_stim/white_mw084.bmp'><br><font class='baseline'><strong>Caleb</strong><p>Choose number of points to send.</font><div class='respPicDiv'><img src='img/responseButtonOffersNo0L2.png' class='respPic'></div></div>","null","5","Caleb","0","Kept","0.2,0.65","9","0.2","trustrating_stim/white_mw084.bmp","1","60","14"
"html-keyboard-response","178","290277","0.0-19.0-3.13","64077ddd11208afe2bec171a","bdp_trlrn","Wed Mar 15 2023 23:46:23 GMT-0400 (Eastern Daylight Time)","596661","Untrustworthy,Trustworthy","","null","","","","feedback","","<div class='trialDiv'><img src='trustrating_stim/white_mw084.bmp'><br><font class='baseline'><strong>Caleb</strong><p>Received: <strong>8</strong></font> &nbsp; &nbsp; &nbsp; &nbsp; &nbsp; &nbsp;<font class='negOutcome'>Shared back: <strong>0</strong></font></font><div class='respPicDiv'><img src='img/responseButtonOffersNo0_wht.png' class='respPic'></div></div>","null","5","Caleb","0","Kept","0.2,0.65","9","0.2","trustrating_stim/white_mw084.bmp","1","60","14"
"html-keyboard-response","179","291935","0.0-19.0-1.14","64077ddd11208afe2bec171a","bdp_trlrn","Wed Mar 15 2023 23:46:23 GMT-0400 (Eastern Daylight Time)","596661","Untrustworthy,Trustworthy","","1657","","","","decision","","<div class='trialDiv'><img src='trustrating_stim/white_00223_940128_fb_edt.bmp'><br><font class='baseline'><strong>Evan</strong><p>Choose number of points to send.</font><div class='respPicDiv'><img src='img/responseButtonOffersNo0L.png' class='respPic'></div></div>","5","5","Evan","7","Kept","0.8,0.35","11","0.8","trustrating_stim/white_00223_940128_fb_edt.bmp","6.5","65","15"
"html-keyboard-response","180","292186","0.0-19.0-2.14","64077ddd11208afe2bec171a","bdp_trlrn","Wed Mar 15 2023 23:46:23 GMT-0400 (Eastern Daylight Time)","596661","Untrustworthy,Trustworthy","","null","","","","decisionFB","","<div class='trialDiv'><img src='trustrating_stim/white_00223_940128_fb_edt.bmp'><br><font class='baseline'><strong>Evan</strong><p>Choose number of points to send.</font><div class='respPicDiv'><img src='img/responseButtonOffersNo0L5.png' class='respPic'></div></div>","null","5","Evan","7","Kept","0.8,0.35","11","0.8","trustrating_stim/white_00223_940128_fb_edt.bmp","6.5","60","15"
"html-keyboard-response","181","293188","0.0-19.0-3.14","64077ddd11208afe2bec171a","bdp_trlrn","Wed Mar 15 2023 23:46:23 GMT-0400 (Eastern Daylight Time)","596661","Untrustworthy,Trustworthy","","null","","","","feedback","","<div class='trialDiv'><img src='trustrating_stim/white_00223_940128_fb_edt.bmp'><br><font class='baseline'><strong>Evan</strong><p>Received: <strong>20</strong></font> &nbsp; &nbsp; &nbsp; &nbsp; &nbsp; &nbsp;<font class='negOutcome'>Shared back: <strong>0</strong></font></font><div class='respPicDiv'><img src='img/responseButtonOffersNo0_wht.png' class='respPic'></div></div>","null","5","Evan","7","Kept","0.8,0.35","11","0.8","trustrating_stim/white_00223_940128_fb_edt.bmp","6.5","60","15"
"html-keyboard-response","182","294015","0.0-19.0-1.15","64077ddd11208afe2bec171a","bdp_trlrn","Wed Mar 15 2023 23:46:23 GMT-0400 (Eastern Daylight Time)","596661","Untrustworthy,Trustworthy","","826","","","","decision","","<div class='trialDiv'><img src='trustrating_stim/white_00761_941201_fb_edt.bmp'><br><font class='baseline'><strong>Jordan</strong><p>Choose number of points to send.</font><div class='respPicDiv'><img src='img/responseButtonOffersNo0L.png' class='respPic'></div></div>","5","6","Jordan","11","Kept","0.2,0.8","14","0.2","trustrating_stim/white_00761_941201_fb_edt.bmp","8.5","65","16"
"html-keyboard-response","183","294268","0.0-19.0-2.15","64077ddd11208afe2bec171a","bdp_trlrn","Wed Mar 15 2023 23:46:23 GMT-0400 (Eastern Daylight Time)","596661","Untrustworthy,Trustworthy","","null","","","","decisionFB","","<div class='trialDiv'><img src='trustrating_stim/white_00761_941201_fb_edt.bmp'><br><font class='baseline'><strong>Jordan</strong><p>Choose number of points to send.</font><div class='respPicDiv'><img src='img/responseButtonOffersNo0L5.png' class='respPic'></div></div>","null","6","Jordan","11","Kept","0.2,0.8","14","0.2","trustrating_stim/white_00761_941201_fb_edt.bmp","8.5","60","16"
"html-keyboard-response","184","295269","0.0-19.0-3.15","64077ddd11208afe2bec171a","bdp_trlrn","Wed Mar 15 2023 23:46:23 GMT-0400 (Eastern Daylight Time)","596661","Untrustworthy,Trustworthy","","null","","","","feedback","","<div class='trialDiv'><img src='trustrating_stim/white_00761_941201_fb_edt.bmp'><br><font class='baseline'><strong>Jordan</strong><p>Received: <strong>20</strong></font> &nbsp; &nbsp; &nbsp; &nbsp; &nbsp; &nbsp;<font class='negOutcome'>Shared back: <strong>0</strong></font></font><div class='respPicDiv'><img src='img/responseButtonOffersNo0_wht.png' class='respPic'></div></div>","null","6","Jordan","11","Kept","0.2,0.8","14","0.2","trustrating_stim/white_00761_941201_fb_edt.bmp","8.5","60","16"
"html-keyboard-response","185","295855","0.0-19.0-1.16","64077ddd11208afe2bec171a","bdp_trlrn","Wed Mar 15 2023 23:46:23 GMT-0400 (Eastern Daylight Time)","596661","Untrustworthy,Trustworthy","","585","","","","decision","","<div class='trialDiv'><img src='trustrating_stim/white_mw084.bmp'><br><font class='baseline'><strong>Caleb</strong><p>Choose number of points to send.</font><div class='respPicDiv'><img src='img/responseButtonOffersNo0L.png' class='respPic'></div></div>","1","6","Caleb","0","Shared","0.2,0.65","9","0.2","trustrating_stim/white_mw084.bmp","1","65","17"
"html-keyboard-response","186","296107","0.0-19.0-2.16","64077ddd11208afe2bec171a","bdp_trlrn","Wed Mar 15 2023 23:46:23 GMT-0400 (Eastern Daylight Time)","596661","Untrustworthy,Trustworthy","","null","","","","decisionFB","","<div class='trialDiv'><img src='trustrating_stim/white_mw084.bmp'><br><font class='baseline'><strong>Caleb</strong><p>Choose number of points to send.</font><div class='respPicDiv'><img src='img/responseButtonOffersNo0L1.png' class='respPic'></div></div>","null","6","Caleb","0","Shared","0.2,0.65","9","0.2","trustrating_stim/white_mw084.bmp","1","64","17"
"html-keyboard-response","187","297109","0.0-19.0-3.16","64077ddd11208afe2bec171a","bdp_trlrn","Wed Mar 15 2023 23:46:23 GMT-0400 (Eastern Daylight Time)","596661","Untrustworthy,Trustworthy","","null","","","","feedback","","<div class='trialDiv'><img src='trustrating_stim/white_mw084.bmp'><br><font class='baseline'><strong>Caleb</strong><p>Received: <strong>4</strong></font> &nbsp; &nbsp; &nbsp; &nbsp; &nbsp; &nbsp;<font class='posOutcome'>Shared back: <strong>2</strong></font></font><div class='respPicDiv'><img src='img/responseButtonOffersNo0_wht.png' class='respPic'></div></div>","null","6","Caleb","0","Shared","0.2,0.65","9","0.2","trustrating_stim/white_mw084.bmp","1","66","17"
"html-keyboard-response","188","299040","0.0-19.0-1.17","64077ddd11208afe2bec171a","bdp_trlrn","Wed Mar 15 2023 23:46:23 GMT-0400 (Eastern Daylight Time)","596661","Untrustworthy,Trustworthy","","1931","","","","decision","","<div class='trialDiv'><img src='trustrating_stim/white_00223_940128_fb_edt.bmp'><br><font class='baseline'><strong>Evan</strong><p>Choose number of points to send.</font><div class='respPicDiv'><img src='img/responseButtonOffersNo0L.png' class='respPic'></div></div>","1","6","Evan","7","Shared","0.8,0.35","11","0.8","trustrating_stim/white_00223_940128_fb_edt.bmp","6.5","71","18"
"html-keyboard-response","189","299292","0.0-19.0-2.17","64077ddd11208afe2bec171a","bdp_trlrn","Wed Mar 15 2023 23:46:23 GMT-0400 (Eastern Daylight Time)","596661","Untrustworthy,Trustworthy","","null","","","","decisionFB","","<div class='trialDiv'><img src='trustrating_stim/white_00223_940128_fb_edt.bmp'><br><font class='baseline'><strong>Evan</strong><p>Choose number of points to send.</font><div class='respPicDiv'><img src='img/responseButtonOffersNo0L1.png' class='respPic'></div></div>","null","6","Evan","7","Shared","0.8,0.35","11","0.8","trustrating_stim/white_00223_940128_fb_edt.bmp","6.5","70","18"
"html-keyboard-response","190","300293","0.0-19.0-3.17","64077ddd11208afe2bec171a","bdp_trlrn","Wed Mar 15 2023 23:46:23 GMT-0400 (Eastern Daylight Time)","596661","Untrustworthy,Trustworthy","","null","","","","feedback","","<div class='trialDiv'><img src='trustrating_stim/white_00223_940128_fb_edt.bmp'><br><font class='baseline'><strong>Evan</strong><p>Received: <strong>4</strong></font> &nbsp; &nbsp; &nbsp; &nbsp; &nbsp; &nbsp;<font class='posOutcome'>Shared back: <strong>2</strong></font></font><div class='respPicDiv'><img src='img/responseButtonOffersNo0_wht.png' class='respPic'></div></div>","null","6","Evan","7","Shared","0.8,0.35","11","0.8","trustrating_stim/white_00223_940128_fb_edt.bmp","6.5","72","18"
"html-keyboard-response","191","302271","0.0-19.0-1.18","64077ddd11208afe2bec171a","bdp_trlrn","Wed Mar 15 2023 23:46:23 GMT-0400 (Eastern Daylight Time)","596661","Untrustworthy,Trustworthy","","1977","","","","decision","","<div class='trialDiv'><img src='trustrating_stim/white_mw084.bmp'><br><font class='baseline'><strong>Caleb</strong><p>Choose number of points to send.</font><div class='respPicDiv'><img src='img/responseButtonOffersNo0L.png' class='respPic'></div></div>","5","7","Caleb","0","Shared","0.2,0.65","9","0.2","trustrating_stim/white_mw084.bmp","1","77","19"
"html-keyboard-response","192","302522","0.0-19.0-2.18","64077ddd11208afe2bec171a","bdp_trlrn","Wed Mar 15 2023 23:46:23 GMT-0400 (Eastern Daylight Time)","596661","Untrustworthy,Trustworthy","","null","","","","decisionFB","","<div class='trialDiv'><img src='trustrating_stim/white_mw084.bmp'><br><font class='baseline'><strong>Caleb</strong><p>Choose number of points to send.</font><div class='respPicDiv'><img src='img/responseButtonOffersNo0L5.png' class='respPic'></div></div>","null","7","Caleb","0","Shared","0.2,0.65","9","0.2","trustrating_stim/white_mw084.bmp","1","72","19"
"html-keyboard-response","193","303523","0.0-19.0-3.18","64077ddd11208afe2bec171a","bdp_trlrn","Wed Mar 15 2023 23:46:23 GMT-0400 (Eastern Daylight Time)","596661","Untrustworthy,Trustworthy","","null","","","","feedback","","<div class='trialDiv'><img src='trustrating_stim/white_mw084.bmp'><br><font class='baseline'><strong>Caleb</strong><p>Received: <strong>20</strong></font> &nbsp; &nbsp; &nbsp; &nbsp; &nbsp; &nbsp;<font class='posOutcome'>Shared back: <strong>10</strong></font></font><div class='respPicDiv'><img src='img/responseButtonOffersNo0_wht.png' class='respPic'></div></div>","null","7","Caleb","0","Shared","0.2,0.65","9","0.2","trustrating_stim/white_mw084.bmp","1","82","19"
"html-keyboard-response","194","304415","0.0-19.0-1.19","64077ddd11208afe2bec171a","bdp_trlrn","Wed Mar 15 2023 23:46:23 GMT-0400 (Eastern Daylight Time)","596661","Untrustworthy,Trustworthy","","891","","","","decision","","<div class='trialDiv'><img src='trustrating_stim/white_00761_941201_fb_edt.bmp'><br><font class='baseline'><strong>Jordan</strong><p>Choose number of points to send.</font><div class='respPicDiv'><img src='img/responseButtonOffersNo0L.png' class='respPic'></div></div>","1","7","Jordan","11","Kept","0.2,0.8","14","0.2","trustrating_stim/white_00761_941201_fb_edt.bmp","8.5","87","20"
"html-keyboard-response","195","304666","0.0-19.0-2.19","64077ddd11208afe2bec171a","bdp_trlrn","Wed Mar 15 2023 23:46:23 GMT-0400 (Eastern Daylight Time)","596661","Untrustworthy,Trustworthy","","null","","","","decisionFB","","<div class='trialDiv'><img src='trustrating_stim/white_00761_941201_fb_edt.bmp'><br><font class='baseline'><strong>Jordan</strong><p>Choose number of points to send.</font><div class='respPicDiv'><img src='img/responseButtonOffersNo0L1.png' class='respPic'></div></div>","null","7","Jordan","11","Kept","0.2,0.8","14","0.2","trustrating_stim/white_00761_941201_fb_edt.bmp","8.5","86","20"
"html-keyboard-response","196","305668","0.0-19.0-3.19","64077ddd11208afe2bec171a","bdp_trlrn","Wed Mar 15 2023 23:46:23 GMT-0400 (Eastern Daylight Time)","596661","Untrustworthy,Trustworthy","","null","","","","feedback","","<div class='trialDiv'><img src='trustrating_stim/white_00761_941201_fb_edt.bmp'><br><font class='baseline'><strong>Jordan</strong><p>Received: <strong>4</strong></font> &nbsp; &nbsp; &nbsp; &nbsp; &nbsp; &nbsp;<font class='negOutcome'>Shared back: <strong>0</strong></font></font><div class='respPicDiv'><img src='img/responseButtonOffersNo0_wht.png' class='respPic'></div></div>","null","7","Jordan","11","Kept","0.2,0.8","14","0.2","trustrating_stim/white_00761_941201_fb_edt.bmp","8.5","86","20"
"html-keyboard-response","197","306479","0.0-19.0-1.20","64077ddd11208afe2bec171a","bdp_trlrn","Wed Mar 15 2023 23:46:23 GMT-0400 (Eastern Daylight Time)","596661","Untrustworthy,Trustworthy","","811","","","","decision","","<div class='trialDiv'><img src='trustrating_stim/white_00223_940128_fb_edt.bmp'><br><font class='baseline'><strong>Evan</strong><p>Choose number of points to send.</font><div class='respPicDiv'><img src='img/responseButtonOffersNo0L.png' class='respPic'></div></div>","5","7","Evan","7","Shared","0.8,0.35","11","0.8","trustrating_stim/white_00223_940128_fb_edt.bmp","6.5","91","21"
"html-keyboard-response","198","306730","0.0-19.0-2.20","64077ddd11208afe2bec171a","bdp_trlrn","Wed Mar 15 2023 23:46:23 GMT-0400 (Eastern Daylight Time)","596661","Untrustworthy,Trustworthy","","null","","","","decisionFB","","<div class='trialDiv'><img src='trustrating_stim/white_00223_940128_fb_edt.bmp'><br><font class='baseline'><strong>Evan</strong><p>Choose number of points to send.</font><div class='respPicDiv'><img src='img/responseButtonOffersNo0L5.png' class='respPic'></div></div>","null","7","Evan","7","Shared","0.8,0.35","11","0.8","trustrating_stim/white_00223_940128_fb_edt.bmp","6.5","86","21"
"html-keyboard-response","199","307732","0.0-19.0-3.20","64077ddd11208afe2bec171a","bdp_trlrn","Wed Mar 15 2023 23:46:23 GMT-0400 (Eastern Daylight Time)","596661","Untrustworthy,Trustworthy","","null","","","","feedback","","<div class='trialDiv'><img src='trustrating_stim/white_00223_940128_fb_edt.bmp'><br><font class='baseline'><strong>Evan</strong><p>Received: <strong>20</strong></font> &nbsp; &nbsp; &nbsp; &nbsp; &nbsp; &nbsp;<font class='posOutcome'>Shared back: <strong>10</strong></font></font><div class='respPicDiv'><img src='img/responseButtonOffersNo0_wht.png' class='respPic'></div></div>","null","7","Evan","7","Shared","0.8,0.35","11","0.8","trustrating_stim/white_00223_940128_fb_edt.bmp","6.5","96","21"
"html-keyboard-response","200","308895","0.0-19.0-1.21","64077ddd11208afe2bec171a","bdp_trlrn","Wed Mar 15 2023 23:46:23 GMT-0400 (Eastern Daylight Time)","596661","Untrustworthy,Trustworthy","","1162","","","","decision","","<div class='trialDiv'><img src='trustrating_stim/white_00761_941201_fb_edt.bmp'><br><font class='baseline'><strong>Jordan</strong><p>Choose number of points to send.</font><div class='respPicDiv'><img src='img/responseButtonOffersNo0L.png' class='respPic'></div></div>","1","8","Jordan","11","Kept","0.2,0.8","14","0.2","trustrating_stim/white_00761_941201_fb_edt.bmp","8.5","101","22"
"html-keyboard-response","201","309147","0.0-19.0-2.21","64077ddd11208afe2bec171a","bdp_trlrn","Wed Mar 15 2023 23:46:23 GMT-0400 (Eastern Daylight Time)","596661","Untrustworthy,Trustworthy","","null","","","","decisionFB","","<div class='trialDiv'><img src='trustrating_stim/white_00761_941201_fb_edt.bmp'><br><font class='baseline'><strong>Jordan</strong><p>Choose number of points to send.</font><div class='respPicDiv'><img src='img/responseButtonOffersNo0L1.png' class='respPic'></div></div>","null","8","Jordan","11","Kept","0.2,0.8","14","0.2","trustrating_stim/white_00761_941201_fb_edt.bmp","8.5","100","22"
"html-keyboard-response","202","310149","0.0-19.0-3.21","64077ddd11208afe2bec171a","bdp_trlrn","Wed Mar 15 2023 23:46:23 GMT-0400 (Eastern Daylight Time)","596661","Untrustworthy,Trustworthy","","null","","","","feedback","","<div class='trialDiv'><img src='trustrating_stim/white_00761_941201_fb_edt.bmp'><br><font class='baseline'><strong>Jordan</strong><p>Received: <strong>4</strong></font> &nbsp; &nbsp; &nbsp; &nbsp; &nbsp; &nbsp;<font class='negOutcome'>Shared back: <strong>0</strong></font></font><div class='respPicDiv'><img src='img/responseButtonOffersNo0_wht.png' class='respPic'></div></div>","null","8","Jordan","11","Kept","0.2,0.8","14","0.2","trustrating_stim/white_00761_941201_fb_edt.bmp","8.5","100","22"
"html-keyboard-response","203","311024","0.0-19.0-1.22","64077ddd11208afe2bec171a","bdp_trlrn","Wed Mar 15 2023 23:46:23 GMT-0400 (Eastern Daylight Time)","596661","Untrustworthy,Trustworthy","","875","","","","decision","","<div class='trialDiv'><img src='trustrating_stim/white_00223_940128_fb_edt.bmp'><br><font class='baseline'><strong>Evan</strong><p>Choose number of points to send.</font><div class='respPicDiv'><img src='img/responseButtonOffersNo0L.png' class='respPic'></div></div>","5","8","Evan","7","Shared","0.8,0.35","11","0.8","trustrating_stim/white_00223_940128_fb_edt.bmp","6.5","105","23"
"html-keyboard-response","204","311276","0.0-19.0-2.22","64077ddd11208afe2bec171a","bdp_trlrn","Wed Mar 15 2023 23:46:23 GMT-0400 (Eastern Daylight Time)","596661","Untrustworthy,Trustworthy","","null","","","","decisionFB","","<div class='trialDiv'><img src='trustrating_stim/white_00223_940128_fb_edt.bmp'><br><font class='baseline'><strong>Evan</strong><p>Choose number of points to send.</font><div class='respPicDiv'><img src='img/responseButtonOffersNo0L5.png' class='respPic'></div></div>","null","8","Evan","7","Shared","0.8,0.35","11","0.8","trustrating_stim/white_00223_940128_fb_edt.bmp","6.5","100","23"
"html-keyboard-response","205","312278","0.0-19.0-3.22","64077ddd11208afe2bec171a","bdp_trlrn","Wed Mar 15 2023 23:46:23 GMT-0400 (Eastern Daylight Time)","596661","Untrustworthy,Trustworthy","","null","","","","feedback","","<div class='trialDiv'><img src='trustrating_stim/white_00223_940128_fb_edt.bmp'><br><font class='baseline'><strong>Evan</strong><p>Received: <strong>20</strong></font> &nbsp; &nbsp; &nbsp; &nbsp; &nbsp; &nbsp;<font class='posOutcome'>Shared back: <strong>10</strong></font></font><div class='respPicDiv'><img src='img/responseButtonOffersNo0_wht.png' class='respPic'></div></div>","null","8","Evan","7","Shared","0.8,0.35","11","0.8","trustrating_stim/white_00223_940128_fb_edt.bmp","6.5","110","23"
"html-keyboard-response","206","312879","0.0-19.0-1.23","64077ddd11208afe2bec171a","bdp_trlrn","Wed Mar 15 2023 23:46:23 GMT-0400 (Eastern Daylight Time)","596661","Untrustworthy,Trustworthy","","600","","","","decision","","<div class='trialDiv'><img src='trustrating_stim/white_mw084.bmp'><br><font class='baseline'><strong>Caleb</strong><p>Choose number of points to send.</font><div class='respPicDiv'><img src='img/responseButtonOffersNo0L.png' class='respPic'></div></div>","5","8","Caleb","0","Kept","0.2,0.65","9","0.2","trustrating_stim/white_mw084.bmp","1","115","24"
"html-keyboard-response","207","313131","0.0-19.0-2.23","64077ddd11208afe2bec171a","bdp_trlrn","Wed Mar 15 2023 23:46:23 GMT-0400 (Eastern Daylight Time)","596661","Untrustworthy,Trustworthy","","null","","","","decisionFB","","<div class='trialDiv'><img src='trustrating_stim/white_mw084.bmp'><br><font class='baseline'><strong>Caleb</strong><p>Choose number of points to send.</font><div class='respPicDiv'><img src='img/responseButtonOffersNo0L5.png' class='respPic'></div></div>","null","8","Caleb","0","Kept","0.2,0.65","9","0.2","trustrating_stim/white_mw084.bmp","1","110","24"
"html-keyboard-response","208","314132","0.0-19.0-3.23","64077ddd11208afe2bec171a","bdp_trlrn","Wed Mar 15 2023 23:46:23 GMT-0400 (Eastern Daylight Time)","596661","Untrustworthy,Trustworthy","","null","","","","feedback","","<div class='trialDiv'><img src='trustrating_stim/white_mw084.bmp'><br><font class='baseline'><strong>Caleb</strong><p>Received: <strong>20</strong></font> &nbsp; &nbsp; &nbsp; &nbsp; &nbsp; &nbsp;<font class='negOutcome'>Shared back: <strong>0</strong></font></font><div class='respPicDiv'><img src='img/responseButtonOffersNo0_wht.png' class='respPic'></div></div>","null","8","Caleb","0","Kept","0.2,0.65","9","0.2","trustrating_stim/white_mw084.bmp","1","110","24"
"html-keyboard-response","209","316239","0.0-19.0-1.24","64077ddd11208afe2bec171a","bdp_trlrn","Wed Mar 15 2023 23:46:23 GMT-0400 (Eastern Daylight Time)","596661","Untrustworthy,Trustworthy","","2106","","","","decision","","<div class='trialDiv'><img src='trustrating_stim/white_00761_941201_fb_edt.bmp'><br><font class='baseline'><strong>Jordan</strong><p>Choose number of points to send.</font><div class='respPicDiv'><img src='img/responseButtonOffersNo0L.png' class='respPic'></div></div>","1","9","Jordan","11","Kept","0.2,0.8","14","0.2","trustrating_stim/white_00761_941201_fb_edt.bmp","8.5","115","25"
"html-keyboard-response","210","316490","0.0-19.0-2.24","64077ddd11208afe2bec171a","bdp_trlrn","Wed Mar 15 2023 23:46:23 GMT-0400 (Eastern Daylight Time)","596661","Untrustworthy,Trustworthy","","null","","","","decisionFB","","<div class='trialDiv'><img src='trustrating_stim/white_00761_941201_fb_edt.bmp'><br><font class='baseline'><strong>Jordan</strong><p>Choose number of points to send.</font><div class='respPicDiv'><img src='img/responseButtonOffersNo0L1.png' class='respPic'></div></div>","null","9","Jordan","11","Kept","0.2,0.8","14","0.2","trustrating_stim/white_00761_941201_fb_edt.bmp","8.5","114","25"
"html-keyboard-response","211","317492","0.0-19.0-3.24","64077ddd11208afe2bec171a","bdp_trlrn","Wed Mar 15 2023 23:46:23 GMT-0400 (Eastern Daylight Time)","596661","Untrustworthy,Trustworthy","","null","","","","feedback","","<div class='trialDiv'><img src='trustrating_stim/white_00761_941201_fb_edt.bmp'><br><font class='baseline'><strong>Jordan</strong><p>Received: <strong>4</strong></font> &nbsp; &nbsp; &nbsp; &nbsp; &nbsp; &nbsp;<font class='negOutcome'>Shared back: <strong>0</strong></font></font><div class='respPicDiv'><img src='img/responseButtonOffersNo0_wht.png' class='respPic'></div></div>","null","9","Jordan","11","Kept","0.2,0.8","14","0.2","trustrating_stim/white_00761_941201_fb_edt.bmp","8.5","114","25"
"html-keyboard-response","212","318799","0.0-19.0-1.25","64077ddd11208afe2bec171a","bdp_trlrn","Wed Mar 15 2023 23:46:23 GMT-0400 (Eastern Daylight Time)","596661","Untrustworthy,Trustworthy","","1306","","","","decision","","<div class='trialDiv'><img src='trustrating_stim/white_mw084.bmp'><br><font class='baseline'><strong>Caleb</strong><p>Choose number of points to send.</font><div class='respPicDiv'><img src='img/responseButtonOffersNo0L.png' class='respPic'></div></div>","2","9","Caleb","0","Shared","0.2,0.65","9","0.2","trustrating_stim/white_mw084.bmp","1","119","26"
"html-keyboard-response","213","319050","0.0-19.0-2.25","64077ddd11208afe2bec171a","bdp_trlrn","Wed Mar 15 2023 23:46:23 GMT-0400 (Eastern Daylight Time)","596661","Untrustworthy,Trustworthy","","null","","","","decisionFB","","<div class='trialDiv'><img src='trustrating_stim/white_mw084.bmp'><br><font class='baseline'><strong>Caleb</strong><p>Choose number of points to send.</font><div class='respPicDiv'><img src='img/responseButtonOffersNo0L2.png' class='respPic'></div></div>","null","9","Caleb","0","Shared","0.2,0.65","9","0.2","trustrating_stim/white_mw084.bmp","1","117","26"
"html-keyboard-response","214","320051","0.0-19.0-3.25","64077ddd11208afe2bec171a","bdp_trlrn","Wed Mar 15 2023 23:46:23 GMT-0400 (Eastern Daylight Time)","596661","Untrustworthy,Trustworthy","","null","","","","feedback","","<div class='trialDiv'><img src='trustrating_stim/white_mw084.bmp'><br><font class='baseline'><strong>Caleb</strong><p>Received: <strong>8</strong></font> &nbsp; &nbsp; &nbsp; &nbsp; &nbsp; &nbsp;<font class='posOutcome'>Shared back: <strong>4</strong></font></font><div class='respPicDiv'><img src='img/responseButtonOffersNo0_wht.png' class='respPic'></div></div>","null","9","Caleb","0","Shared","0.2,0.65","9","0.2","trustrating_stim/white_mw084.bmp","1","121","26"
"html-keyboard-response","215","320863","0.0-19.0-1.26","64077ddd11208afe2bec171a","bdp_trlrn","Wed Mar 15 2023 23:46:23 GMT-0400 (Eastern Daylight Time)","596661","Untrustworthy,Trustworthy","","811","","","","decision","","<div class='trialDiv'><img src='trustrating_stim/white_00223_940128_fb_edt.bmp'><br><font class='baseline'><strong>Evan</strong><p>Choose number of points to send.</font><div class='respPicDiv'><img src='img/responseButtonOffersNo0L.png' class='respPic'></div></div>","5","9","Evan","7","Kept","0.8,0.35","11","0.8","trustrating_stim/white_00223_940128_fb_edt.bmp","6.5","126","27"
"html-keyboard-response","216","321115","0.0-19.0-2.26","64077ddd11208afe2bec171a","bdp_trlrn","Wed Mar 15 2023 23:46:23 GMT-0400 (Eastern Daylight Time)","596661","Untrustworthy,Trustworthy","","null","","","","decisionFB","","<div class='trialDiv'><img src='trustrating_stim/white_00223_940128_fb_edt.bmp'><br><font class='baseline'><strong>Evan</strong><p>Choose number of points to send.</font><div class='respPicDiv'><img src='img/responseButtonOffersNo0L5.png' class='respPic'></div></div>","null","9","Evan","7","Kept","0.8,0.35","11","0.8","trustrating_stim/white_00223_940128_fb_edt.bmp","6.5","121","27"
"html-keyboard-response","217","322117","0.0-19.0-3.26","64077ddd11208afe2bec171a","bdp_trlrn","Wed Mar 15 2023 23:46:23 GMT-0400 (Eastern Daylight Time)","596661","Untrustworthy,Trustworthy","","null","","","","feedback","","<div class='trialDiv'><img src='trustrating_stim/white_00223_940128_fb_edt.bmp'><br><font class='baseline'><strong>Evan</strong><p>Received: <strong>20</strong></font> &nbsp; &nbsp; &nbsp; &nbsp; &nbsp; &nbsp;<font class='negOutcome'>Shared back: <strong>0</strong></font></font><div class='respPicDiv'><img src='img/responseButtonOffersNo0_wht.png' class='respPic'></div></div>","null","9","Evan","7","Kept","0.8,0.35","11","0.8","trustrating_stim/white_00223_940128_fb_edt.bmp","6.5","121","27"
"html-keyboard-response","218","323280","0.0-19.0-1.27","64077ddd11208afe2bec171a","bdp_trlrn","Wed Mar 15 2023 23:46:23 GMT-0400 (Eastern Daylight Time)","596661","Untrustworthy,Trustworthy","","1163","","","","decision","","<div class='trialDiv'><img src='trustrating_stim/white_mw084.bmp'><br><font class='baseline'><strong>Caleb</strong><p>Choose number of points to send.</font><div class='respPicDiv'><img src='img/responseButtonOffersNo0L.png' class='respPic'></div></div>","5","10","Caleb","0","Shared","0.2,0.65","9","0.2","trustrating_stim/white_mw084.bmp","1","126","28"
"html-keyboard-response","219","323532","0.0-19.0-2.27","64077ddd11208afe2bec171a","bdp_trlrn","Wed Mar 15 2023 23:46:23 GMT-0400 (Eastern Daylight Time)","596661","Untrustworthy,Trustworthy","","null","","","","decisionFB","","<div class='trialDiv'><img src='trustrating_stim/white_mw084.bmp'><br><font class='baseline'><strong>Caleb</strong><p>Choose number of points to send.</font><div class='respPicDiv'><img src='img/responseButtonOffersNo0L5.png' class='respPic'></div></div>","null","10","Caleb","0","Shared","0.2,0.65","9","0.2","trustrating_stim/white_mw084.bmp","1","121","28"
"html-keyboard-response","220","324534","0.0-19.0-3.27","64077ddd11208afe2bec171a","bdp_trlrn","Wed Mar 15 2023 23:46:23 GMT-0400 (Eastern Daylight Time)","596661","Untrustworthy,Trustworthy","","null","","","","feedback","","<div class='trialDiv'><img src='trustrating_stim/white_mw084.bmp'><br><font class='baseline'><strong>Caleb</strong><p>Received: <strong>20</strong></font> &nbsp; &nbsp; &nbsp; &nbsp; &nbsp; &nbsp;<font class='posOutcome'>Shared back: <strong>10</strong></font></font><div class='respPicDiv'><img src='img/responseButtonOffersNo0_wht.png' class='respPic'></div></div>","null","10","Caleb","0","Shared","0.2,0.65","9","0.2","trustrating_stim/white_mw084.bmp","1","131","28"
