"trial_type","trial_index","time_elapsed","internal_node_id","subject_id","task","startTime","totalTime","labels","view_history","rt","event","trial","time","trialtype","success","stimulus","key_press","aground","name","faceID","outcome","agenttype","agentswpt","agentcurrpshare","face","avgRating","point_total","round"
"pavlovia","0","3","0.0-0.0","614fe09fec9ce4a2a415476d","bdp_trlrn","Tue Mar 14 2023 20:01:49 GMT-0500 (Central Daylight Time)","490327","Untrustworthy,Trustworthy","","","","","","","","","","","","","","","","","","","",""
"instructions","1","8624","0.0-1.0","614fe09fec9ce4a2a415476d","bdp_trlrn","Tue Mar 14 2023 20:01:49 GMT-0500 (Central Daylight Time)","490327","Untrustworthy,Trustworthy","[{""page_index"":0,""viewing_time"":8619}]","8619","","","","","","","","","","","","","","","","","",""
"","","","","614fe09fec9ce4a2a415476d","bdp_trlrn","Tue Mar 14 2023 20:01:49 GMT-0500 (Central Daylight Time)","490327","Untrustworthy,Trustworthy","","","fullscreenenter","2","13400","fullscreenenter","","","","","","","","","","","","","",""
"fullscreen","2","14397","0.0-2.0","614fe09fec9ce4a2a415476d","bdp_trlrn","Tue Mar 14 2023 20:01:49 GMT-0500 (Central Daylight Time)","490327","Untrustworthy,Trustworthy","","","","","","","true","","","","","","","","","","","","",""
"instructions","3","19677","0.0-4.0","614fe09fec9ce4a2a415476d","bdp_trlrn","Tue Mar 14 2023 20:01:49 GMT-0500 (Central Daylight Time)","490327","Untrustworthy,Trustworthy","[{""page_index"":0,""viewing_time"":4490},{""page_index"":1,""viewing_time"":789}]","5279","","","","","","","","","","","","","","","","","",""
"instructions","4","20499","0.0-5.0","614fe09fec9ce4a2a415476d","bdp_trlrn","Tue Mar 14 2023 20:01:49 GMT-0500 (Central Daylight Time)","490327","Untrustworthy,Trustworthy","[{""page_index"":0,""viewing_time"":822}]","822","","","","","","","","","","","","","","","","","",""
"image-keyboard-response","5","22278","0.0-6.0-1.0","614fe09fec9ce4a2a415476d","bdp_trlrn","Tue Mar 14 2023 20:01:49 GMT-0500 (Central Daylight Time)","490327","Untrustworthy,Trustworthy","","1668","","","","rating","","trustrating_stim/white_00519_940519_fb_edt.bmp","4","","","","","","","","","","",""
"image-keyboard-response","6","22489","0.0-6.0-2.0","614fe09fec9ce4a2a415476d","bdp_trlrn","Tue Mar 14 2023 20:01:49 GMT-0500 (Central Daylight Time)","490327","Untrustworthy,Trustworthy","","null","","","","ratingFB","","trustrating_stim/white_00519_940519_fb_edt.bmp","null","","","","","","","","","","",""
"image-keyboard-response","7","23785","0.0-6.0-1.1","614fe09fec9ce4a2a415476d","bdp_trlrn","Tue Mar 14 2023 20:01:49 GMT-0500 (Central Daylight Time)","490327","Untrustworthy,Trustworthy","","1185","","","","rating","","trustrating_stim/white_mw097.bmp","2","","","","","","","","","","",""
"image-keyboard-response","8","23993","0.0-6.0-2.1","614fe09fec9ce4a2a415476d","bdp_trlrn","Tue Mar 14 2023 20:01:49 GMT-0500 (Central Daylight Time)","490327","Untrustworthy,Trustworthy","","null","","","","ratingFB","","trustrating_stim/white_mw097.bmp","null","","","","","","","","","","",""
"image-keyboard-response","9","25723","0.0-6.0-1.2","614fe09fec9ce4a2a415476d","bdp_trlrn","Tue Mar 14 2023 20:01:49 GMT-0500 (Central Daylight Time)","490327","Untrustworthy,Trustworthy","","1620","","","","rating","","trustrating_stim/white_00129_931230_fb_edt.bmp","6","","","","","","","","","","",""
"image-keyboard-response","10","25926","0.0-6.0-2.2","614fe09fec9ce4a2a415476d","bdp_trlrn","Tue Mar 14 2023 20:01:49 GMT-0500 (Central Daylight Time)","490327","Untrustworthy,Trustworthy","","null","","","","ratingFB","","trustrating_stim/white_00129_931230_fb_edt.bmp","null","","","","","","","","","","",""
"image-keyboard-response","11","27163","0.0-6.0-1.3","614fe09fec9ce4a2a415476d","bdp_trlrn","Tue Mar 14 2023 20:01:49 GMT-0500 (Central Daylight Time)","490327","Untrustworthy,Trustworthy","","1132","","","","rating","","trustrating_stim/white_mw053.bmp","6","","","","","","","","","","",""
"image-keyboard-response","12","27365","0.0-6.0-2.3","614fe09fec9ce4a2a415476d","bdp_trlrn","Tue Mar 14 2023 20:01:49 GMT-0500 (Central Daylight Time)","490327","Untrustworthy,Trustworthy","","null","","","","ratingFB","","trustrating_stim/white_mw053.bmp","null","","","","","","","","","","",""
"image-keyboard-response","13","29151","0.0-6.0-1.4","614fe09fec9ce4a2a415476d","bdp_trlrn","Tue Mar 14 2023 20:01:49 GMT-0500 (Central Daylight Time)","490327","Untrustworthy,Trustworthy","","1681","","","","rating","","trustrating_stim/white_mw049.bmp","6","","","","","","","","","","",""
"image-keyboard-response","14","29357","0.0-6.0-2.4","614fe09fec9ce4a2a415476d","bdp_trlrn","Tue Mar 14 2023 20:01:49 GMT-0500 (Central Daylight Time)","490327","Untrustworthy,Trustworthy","","null","","","","ratingFB","","trustrating_stim/white_mw049.bmp","null","","","","","","","","","","",""
"image-keyboard-response","15","30835","0.0-6.0-1.5","614fe09fec9ce4a2a415476d","bdp_trlrn","Tue Mar 14 2023 20:01:49 GMT-0500 (Central Daylight Time)","490327","Untrustworthy,Trustworthy","","1373","","","","rating","","trustrating_stim/white_mw046.bmp","5","","","","","","","","","","",""
"image-keyboard-response","16","31041","0.0-6.0-2.5","614fe09fec9ce4a2a415476d","bdp_trlrn","Tue Mar 14 2023 20:01:49 GMT-0500 (Central Daylight Time)","490327","Untrustworthy,Trustworthy","","null","","","","ratingFB","","trustrating_stim/white_mw046.bmp","null","","","","","","","","","","",""
"image-keyboard-response","17","32306","0.0-6.0-1.6","614fe09fec9ce4a2a415476d","bdp_trlrn","Tue Mar 14 2023 20:01:49 GMT-0500 (Central Daylight Time)","490327","Untrustworthy,Trustworthy","","1153","","","","rating","","trustrating_stim/white_mw071.bmp","6","","","","","","","","","","",""
"image-keyboard-response","18","32509","0.0-6.0-2.6","614fe09fec9ce4a2a415476d","bdp_trlrn","Tue Mar 14 2023 20:01:49 GMT-0500 (Central Daylight Time)","490327","Untrustworthy,Trustworthy","","null","","","","ratingFB","","trustrating_stim/white_mw071.bmp","null","","","","","","","","","","",""
"image-keyboard-response","19","33939","0.0-6.0-1.7","614fe09fec9ce4a2a415476d","bdp_trlrn","Tue Mar 14 2023 20:01:49 GMT-0500 (Central Daylight Time)","490327","Untrustworthy,Trustworthy","","1326","","","","rating","","trustrating_stim/white_00898_960530_fa_edt.bmp","6","","","","","","","","","","",""
"image-keyboard-response","20","34146","0.0-6.0-2.7","614fe09fec9ce4a2a415476d","bdp_trlrn","Tue Mar 14 2023 20:01:49 GMT-0500 (Central Daylight Time)","490327","Untrustworthy,Trustworthy","","null","","","","ratingFB","","trustrating_stim/white_00898_960530_fa_edt.bmp","null","","","","","","","","","","",""
"image-keyboard-response","21","35516","0.0-6.0-1.8","614fe09fec9ce4a2a415476d","bdp_trlrn","Tue Mar 14 2023 20:01:49 GMT-0500 (Central Daylight Time)","490327","Untrustworthy,Trustworthy","","1250","","","","rating","","trustrating_stim/white_00807_941205_fb_edt.bmp","5","","","","","","","","","","",""
"image-keyboard-response","22","35720","0.0-6.0-2.8","614fe09fec9ce4a2a415476d","bdp_trlrn","Tue Mar 14 2023 20:01:49 GMT-0500 (Central Daylight Time)","490327","Untrustworthy,Trustworthy","","null","","","","ratingFB","","trustrating_stim/white_00807_941205_fb_edt.bmp","null","","","","","","","","","","",""
"image-keyboard-response","23","37043","0.0-6.0-1.9","614fe09fec9ce4a2a415476d","bdp_trlrn","Tue Mar 14 2023 20:01:49 GMT-0500 (Central Daylight Time)","490327","Untrustworthy,Trustworthy","","1218","","","","rating","","trustrating_stim/white_00757_941201_fa_edt.bmp","5","","","","","","","","","","",""
"image-keyboard-response","24","37247","0.0-6.0-2.9","614fe09fec9ce4a2a415476d","bdp_trlrn","Tue Mar 14 2023 20:01:49 GMT-0500 (Central Daylight Time)","490327","Untrustworthy,Trustworthy","","null","","","","ratingFB","","trustrating_stim/white_00757_941201_fa_edt.bmp","null","","","","","","","","","","",""
"image-keyboard-response","25","38708","0.0-6.0-1.10","614fe09fec9ce4a2a415476d","bdp_trlrn","Tue Mar 14 2023 20:01:49 GMT-0500 (Central Daylight Time)","490327","Untrustworthy,Trustworthy","","1359","","","","rating","","trustrating_stim/white_00299_940422_fa_edt.bmp","5","","","","","","","","","","",""
"image-keyboard-response","26","38912","0.0-6.0-2.10","614fe09fec9ce4a2a415476d","bdp_trlrn","Tue Mar 14 2023 20:01:49 GMT-0500 (Central Daylight Time)","490327","Untrustworthy,Trustworthy","","null","","","","ratingFB","","trustrating_stim/white_00299_940422_fa_edt.bmp","null","","","","","","","","","","",""
"image-keyboard-response","27","40622","0.0-6.0-1.11","614fe09fec9ce4a2a415476d","bdp_trlrn","Tue Mar 14 2023 20:01:49 GMT-0500 (Central Daylight Time)","490327","Untrustworthy,Trustworthy","","1604","","","","rating","","trustrating_stim/white_mw089.bmp","4","","","","","","","","","","",""
"image-keyboard-response","28","40831","0.0-6.0-2.11","614fe09fec9ce4a2a415476d","bdp_trlrn","Tue Mar 14 2023 20:01:49 GMT-0500 (Central Daylight Time)","490327","Untrustworthy,Trustworthy","","null","","","","ratingFB","","trustrating_stim/white_mw089.bmp","null","","","","","","","","","","",""
"image-keyboard-response","29","41920","0.0-6.0-1.12","614fe09fec9ce4a2a415476d","bdp_trlrn","Tue Mar 14 2023 20:01:49 GMT-0500 (Central Daylight Time)","490327","Untrustworthy,Trustworthy","","986","","","","rating","","trustrating_stim/white_mw063.bmp","4","","","","","","","","","","",""
"image-keyboard-response","30","42128","0.0-6.0-2.12","614fe09fec9ce4a2a415476d","bdp_trlrn","Tue Mar 14 2023 20:01:49 GMT-0500 (Central Daylight Time)","490327","Untrustworthy,Trustworthy","","null","","","","ratingFB","","trustrating_stim/white_mw063.bmp","null","","","","","","","","","","",""
"image-keyboard-response","31","43358","0.0-6.0-1.13","614fe09fec9ce4a2a415476d","bdp_trlrn","Tue Mar 14 2023 20:01:49 GMT-0500 (Central Daylight Time)","490327","Untrustworthy,Trustworthy","","1124","","","","rating","","trustrating_stim/white_mw035.bmp","5","","","","","","","","","","",""
"image-keyboard-response","32","43568","0.0-6.0-2.13","614fe09fec9ce4a2a415476d","bdp_trlrn","Tue Mar 14 2023 20:01:49 GMT-0500 (Central Daylight Time)","490327","Untrustworthy,Trustworthy","","null","","","","ratingFB","","trustrating_stim/white_mw035.bmp","null","","","","","","","","","","",""
"image-keyboard-response","33","44829","0.0-6.0-1.14","614fe09fec9ce4a2a415476d","bdp_trlrn","Tue Mar 14 2023 20:01:49 GMT-0500 (Central Daylight Time)","490327","Untrustworthy,Trustworthy","","1149","","","","rating","","trustrating_stim/white_mw099.bmp","4","","","","","","","","","","",""
"image-keyboard-response","34","45037","0.0-6.0-2.14","614fe09fec9ce4a2a415476d","bdp_trlrn","Tue Mar 14 2023 20:01:49 GMT-0500 (Central Daylight Time)","490327","Untrustworthy,Trustworthy","","null","","","","ratingFB","","trustrating_stim/white_mw099.bmp","null","","","","","","","","","","",""
"image-keyboard-response","35","46364","0.0-6.0-1.15","614fe09fec9ce4a2a415476d","bdp_trlrn","Tue Mar 14 2023 20:01:49 GMT-0500 (Central Daylight Time)","490327","Untrustworthy,Trustworthy","","1222","","","","rating","","trustrating_stim/white_mw084.bmp","4","","","","","","","","","","",""
"image-keyboard-response","36","46566","0.0-6.0-2.15","614fe09fec9ce4a2a415476d","bdp_trlrn","Tue Mar 14 2023 20:01:49 GMT-0500 (Central Daylight Time)","490327","Untrustworthy,Trustworthy","","null","","","","ratingFB","","trustrating_stim/white_mw084.bmp","null","","","","","","","","","","",""
"image-keyboard-response","37","47997","0.0-6.0-1.16","614fe09fec9ce4a2a415476d","bdp_trlrn","Tue Mar 14 2023 20:01:49 GMT-0500 (Central Daylight Time)","490327","Untrustworthy,Trustworthy","","1325","","","","rating","","trustrating_stim/white_00577_940928_fa_edt.bmp","6","","","","","","","","","","",""
"image-keyboard-response","38","48207","0.0-6.0-2.16","614fe09fec9ce4a2a415476d","bdp_trlrn","Tue Mar 14 2023 20:01:49 GMT-0500 (Central Daylight Time)","490327","Untrustworthy,Trustworthy","","null","","","","ratingFB","","trustrating_stim/white_00577_940928_fa_edt.bmp","null","","","","","","","","","","",""
"image-keyboard-response","39","50072","0.0-6.0-1.17","614fe09fec9ce4a2a415476d","bdp_trlrn","Tue Mar 14 2023 20:01:49 GMT-0500 (Central Daylight Time)","490327","Untrustworthy,Trustworthy","","1761","","","","rating","","trustrating_stim/white_00785_941205_fb_edt.bmp","5","","","","","","","","","","",""
"image-keyboard-response","40","50278","0.0-6.0-2.17","614fe09fec9ce4a2a415476d","bdp_trlrn","Tue Mar 14 2023 20:01:49 GMT-0500 (Central Daylight Time)","490327","Untrustworthy,Trustworthy","","null","","","","ratingFB","","trustrating_stim/white_00785_941205_fb_edt.bmp","null","","","","","","","","","","",""
"image-keyboard-response","41","51842","0.0-6.0-1.18","614fe09fec9ce4a2a415476d","bdp_trlrn","Tue Mar 14 2023 20:01:49 GMT-0500 (Central Daylight Time)","490327","Untrustworthy,Trustworthy","","1458","","","","rating","","trustrating_stim/white_00109_931230_fa_edt.bmp","6","","","","","","","","","","",""
"image-keyboard-response","42","52049","0.0-6.0-2.18","614fe09fec9ce4a2a415476d","bdp_trlrn","Tue Mar 14 2023 20:01:49 GMT-0500 (Central Daylight Time)","490327","Untrustworthy,Trustworthy","","null","","","","ratingFB","","trustrating_stim/white_00109_931230_fa_edt.bmp","null","","","","","","","","","","",""
"image-keyboard-response","43","53202","0.0-6.0-1.19","614fe09fec9ce4a2a415476d","bdp_trlrn","Tue Mar 14 2023 20:01:49 GMT-0500 (Central Daylight Time)","490327","Untrustworthy,Trustworthy","","1042","","","","rating","","trustrating_stim/white_mw033.bmp","4","","","","","","","","","","",""
"image-keyboard-response","44","53408","0.0-6.0-2.19","614fe09fec9ce4a2a415476d","bdp_trlrn","Tue Mar 14 2023 20:01:49 GMT-0500 (Central Daylight Time)","490327","Untrustworthy,Trustworthy","","null","","","","ratingFB","","trustrating_stim/white_mw033.bmp","null","","","","","","","","","","",""
"image-keyboard-response","45","54426","0.0-6.0-1.20","614fe09fec9ce4a2a415476d","bdp_trlrn","Tue Mar 14 2023 20:01:49 GMT-0500 (Central Daylight Time)","490327","Untrustworthy,Trustworthy","","915","","","","rating","","trustrating_stim/white_00659_941121_fa_edt.bmp","2","","","","","","","","","","",""
"image-keyboard-response","46","54633","0.0-6.0-2.20","614fe09fec9ce4a2a415476d","bdp_trlrn","Tue Mar 14 2023 20:01:49 GMT-0500 (Central Daylight Time)","490327","Untrustworthy,Trustworthy","","null","","","","ratingFB","","trustrating_stim/white_00659_941121_fa_edt.bmp","null","","","","","","","","","","",""
"image-keyboard-response","47","55767","0.0-6.0-1.21","614fe09fec9ce4a2a415476d","bdp_trlrn","Tue Mar 14 2023 20:01:49 GMT-0500 (Central Daylight Time)","490327","Untrustworthy,Trustworthy","","1024","","","","rating","","trustrating_stim/white_00602_940928_fb_edt.bmp","4","","","","","","","","","","",""
"image-keyboard-response","48","55973","0.0-6.0-2.21","614fe09fec9ce4a2a415476d","bdp_trlrn","Tue Mar 14 2023 20:01:49 GMT-0500 (Central Daylight Time)","490327","Untrustworthy,Trustworthy","","null","","","","ratingFB","","trustrating_stim/white_00602_940928_fb_edt.bmp","null","","","","","","","","","","",""
"image-keyboard-response","49","56992","0.0-6.0-1.22","614fe09fec9ce4a2a415476d","bdp_trlrn","Tue Mar 14 2023 20:01:49 GMT-0500 (Central Daylight Time)","490327","Untrustworthy,Trustworthy","","914","","","","rating","","trustrating_stim/white_mw066.bmp","3","","","","","","","","","","",""
"image-keyboard-response","50","57198","0.0-6.0-2.22","614fe09fec9ce4a2a415476d","bdp_trlrn","Tue Mar 14 2023 20:01:49 GMT-0500 (Central Daylight Time)","490327","Untrustworthy,Trustworthy","","null","","","","ratingFB","","trustrating_stim/white_mw066.bmp","null","","","","","","","","","","",""
"image-keyboard-response","51","58338","0.0-6.0-1.23","614fe09fec9ce4a2a415476d","bdp_trlrn","Tue Mar 14 2023 20:01:49 GMT-0500 (Central Daylight Time)","490327","Untrustworthy,Trustworthy","","1035","","","","rating","","trustrating_stim/white_mw048.bmp","2","","","","","","","","","","",""
"image-keyboard-response","52","58545","0.0-6.0-2.23","614fe09fec9ce4a2a415476d","bdp_trlrn","Tue Mar 14 2023 20:01:49 GMT-0500 (Central Daylight Time)","490327","Untrustworthy,Trustworthy","","null","","","","ratingFB","","trustrating_stim/white_mw048.bmp","null","","","","","","","","","","",""
"image-keyboard-response","53","59821","0.0-6.0-1.24","614fe09fec9ce4a2a415476d","bdp_trlrn","Tue Mar 14 2023 20:01:49 GMT-0500 (Central Daylight Time)","490327","Untrustworthy,Trustworthy","","1165","","","","rating","","trustrating_stim/white_00340_940422_fa_edt.bmp","3","","","","","","","","","","",""
"image-keyboard-response","54","60030","0.0-6.0-2.24","614fe09fec9ce4a2a415476d","bdp_trlrn","Tue Mar 14 2023 20:01:49 GMT-0500 (Central Daylight Time)","490327","Untrustworthy,Trustworthy","","null","","","","ratingFB","","trustrating_stim/white_00340_940422_fa_edt.bmp","null","","","","","","","","","","",""
"image-keyboard-response","55","60994","0.0-6.0-1.25","614fe09fec9ce4a2a415476d","bdp_trlrn","Tue Mar 14 2023 20:01:49 GMT-0500 (Central Daylight Time)","490327","Untrustworthy,Trustworthy","","858","","","","rating","","trustrating_stim/white_00223_940128_fb_edt.bmp","2","","","","","","","","","","",""
"image-keyboard-response","56","61198","0.0-6.0-2.25","614fe09fec9ce4a2a415476d","bdp_trlrn","Tue Mar 14 2023 20:01:49 GMT-0500 (Central Daylight Time)","490327","Untrustworthy,Trustworthy","","null","","","","ratingFB","","trustrating_stim/white_00223_940128_fb_edt.bmp","null","","","","","","","","","","",""
"image-keyboard-response","57","63175","0.0-6.0-1.26","614fe09fec9ce4a2a415476d","bdp_trlrn","Tue Mar 14 2023 20:01:49 GMT-0500 (Central Daylight Time)","490327","Untrustworthy,Trustworthy","","1871","","","","rating","","trustrating_stim/white_00761_941201_fb_edt.bmp","3","","","","","","","","","","",""
"image-keyboard-response","58","63384","0.0-6.0-2.26","614fe09fec9ce4a2a415476d","bdp_trlrn","Tue Mar 14 2023 20:01:49 GMT-0500 (Central Daylight Time)","490327","Untrustworthy,Trustworthy","","null","","","","ratingFB","","trustrating_stim/white_00761_941201_fb_edt.bmp","null","","","","","","","","","","",""
"image-keyboard-response","59","64854","0.0-6.0-1.27","614fe09fec9ce4a2a415476d","bdp_trlrn","Tue Mar 14 2023 20:01:49 GMT-0500 (Central Daylight Time)","490327","Untrustworthy,Trustworthy","","1357","","","","rating","","trustrating_stim/white_00120_931230_fa_edt.bmp","6","","","","","","","","","","",""
"image-keyboard-response","60","65064","0.0-6.0-2.27","614fe09fec9ce4a2a415476d","bdp_trlrn","Tue Mar 14 2023 20:01:49 GMT-0500 (Central Daylight Time)","490327","Untrustworthy,Trustworthy","","null","","","","ratingFB","","trustrating_stim/white_00120_931230_fa_edt.bmp","null","","","","","","","","","","",""
"image-keyboard-response","61","65950","0.0-6.0-1.28","614fe09fec9ce4a2a415476d","bdp_trlrn","Tue Mar 14 2023 20:01:49 GMT-0500 (Central Daylight Time)","490327","Untrustworthy,Trustworthy","","775","","","","rating","","trustrating_stim/white_mw056.bmp","5","","","","","","","","","","",""
"image-keyboard-response","62","66162","0.0-6.0-2.28","614fe09fec9ce4a2a415476d","bdp_trlrn","Tue Mar 14 2023 20:01:49 GMT-0500 (Central Daylight Time)","490327","Untrustworthy,Trustworthy","","null","","","","ratingFB","","trustrating_stim/white_mw056.bmp","null","","","","","","","","","","",""
"image-keyboard-response","63","67035","0.0-6.0-1.29","614fe09fec9ce4a2a415476d","bdp_trlrn","Tue Mar 14 2023 20:01:49 GMT-0500 (Central Daylight Time)","490327","Untrustworthy,Trustworthy","","763","","","","rating","","trustrating_stim/white_mw060.bmp","4","","","","","","","","","","",""
"image-keyboard-response","64","67241","0.0-6.0-2.29","614fe09fec9ce4a2a415476d","bdp_trlrn","Tue Mar 14 2023 20:01:49 GMT-0500 (Central Daylight Time)","490327","Untrustworthy,Trustworthy","","null","","","","ratingFB","","trustrating_stim/white_mw060.bmp","null","","","","","","","","","","",""
"image-keyboard-response","65","68337","0.0-6.0-1.30","614fe09fec9ce4a2a415476d","bdp_trlrn","Tue Mar 14 2023 20:01:49 GMT-0500 (Central Daylight Time)","490327","Untrustworthy,Trustworthy","","992","","","","rating","","trustrating_stim/white_00898_960530_fa_edt.bmp","6","","","","","","","","","","",""
"image-keyboard-response","66","68541","0.0-6.0-2.30","614fe09fec9ce4a2a415476d","bdp_trlrn","Tue Mar 14 2023 20:01:49 GMT-0500 (Central Daylight Time)","490327","Untrustworthy,Trustworthy","","null","","","","ratingFB","","trustrating_stim/white_00898_960530_fa_edt.bmp","null","","","","","","","","","","",""
"image-keyboard-response","67","69295","0.0-6.0-1.31","614fe09fec9ce4a2a415476d","bdp_trlrn","Tue Mar 14 2023 20:01:49 GMT-0500 (Central Daylight Time)","490327","Untrustworthy,Trustworthy","","649","","","","rating","","trustrating_stim/white_00807_941205_fb_edt.bmp","2","","","","","","","","","","",""
"image-keyboard-response","68","69505","0.0-6.0-2.31","614fe09fec9ce4a2a415476d","bdp_trlrn","Tue Mar 14 2023 20:01:49 GMT-0500 (Central Daylight Time)","490327","Untrustworthy,Trustworthy","","null","","","","ratingFB","","trustrating_stim/white_00807_941205_fb_edt.bmp","null","","","","","","","","","","",""
"image-keyboard-response","69","70380","0.0-6.0-1.32","614fe09fec9ce4a2a415476d","bdp_trlrn","Tue Mar 14 2023 20:01:49 GMT-0500 (Central Daylight Time)","490327","Untrustworthy,Trustworthy","","765","","","","rating","","trustrating_stim/white_00659_941121_fa_edt.bmp","3","","","","","","","","","","",""
"image-keyboard-response","70","70590","0.0-6.0-2.32","614fe09fec9ce4a2a415476d","bdp_trlrn","Tue Mar 14 2023 20:01:49 GMT-0500 (Central Daylight Time)","490327","Untrustworthy,Trustworthy","","null","","","","ratingFB","","trustrating_stim/white_00659_941121_fa_edt.bmp","null","","","","","","","","","","",""
"image-keyboard-response","71","72229","0.0-6.0-1.33","614fe09fec9ce4a2a415476d","bdp_trlrn","Tue Mar 14 2023 20:01:49 GMT-0500 (Central Daylight Time)","490327","Untrustworthy,Trustworthy","","1532","","","","rating","","trustrating_stim/white_mw053.bmp","5","","","","","","","","","","",""
"image-keyboard-response","72","72438","0.0-6.0-2.33","614fe09fec9ce4a2a415476d","bdp_trlrn","Tue Mar 14 2023 20:01:49 GMT-0500 (Central Daylight Time)","490327","Untrustworthy,Trustworthy","","null","","","","ratingFB","","trustrating_stim/white_mw053.bmp","null","","","","","","","","","","",""
"image-keyboard-response","73","73609","0.0-6.0-1.34","614fe09fec9ce4a2a415476d","bdp_trlrn","Tue Mar 14 2023 20:01:49 GMT-0500 (Central Daylight Time)","490327","Untrustworthy,Trustworthy","","1063","","","","rating","","trustrating_stim/white_00761_941201_fb_edt.bmp","2","","","","","","","","","","",""
"image-keyboard-response","74","73818","0.0-6.0-2.34","614fe09fec9ce4a2a415476d","bdp_trlrn","Tue Mar 14 2023 20:01:49 GMT-0500 (Central Daylight Time)","490327","Untrustworthy,Trustworthy","","null","","","","ratingFB","","trustrating_stim/white_00761_941201_fb_edt.bmp","null","","","","","","","","","","",""
"image-keyboard-response","75","74851","0.0-6.0-1.35","614fe09fec9ce4a2a415476d","bdp_trlrn","Tue Mar 14 2023 20:01:49 GMT-0500 (Central Daylight Time)","490327","Untrustworthy,Trustworthy","","922","","","","rating","","trustrating_stim/white_mw089.bmp","3","","","","","","","","","","",""
"image-keyboard-response","76","75053","0.0-6.0-2.35","614fe09fec9ce4a2a415476d","bdp_trlrn","Tue Mar 14 2023 20:01:49 GMT-0500 (Central Daylight Time)","490327","Untrustworthy,Trustworthy","","null","","","","ratingFB","","trustrating_stim/white_mw089.bmp","null","","","","","","","","","","",""
"image-keyboard-response","77","76063","0.0-6.0-1.36","614fe09fec9ce4a2a415476d","bdp_trlrn","Tue Mar 14 2023 20:01:49 GMT-0500 (Central Daylight Time)","490327","Untrustworthy,Trustworthy","","902","","","","rating","","trustrating_stim/white_mw060.bmp","3","","","","","","","","","","",""
"image-keyboard-response","78","76270","0.0-6.0-2.36","614fe09fec9ce4a2a415476d","bdp_trlrn","Tue Mar 14 2023 20:01:49 GMT-0500 (Central Daylight Time)","490327","Untrustworthy,Trustworthy","","null","","","","ratingFB","","trustrating_stim/white_mw060.bmp","null","","","","","","","","","","",""
"image-keyboard-response","79","77227","0.0-6.0-1.37","614fe09fec9ce4a2a415476d","bdp_trlrn","Tue Mar 14 2023 20:01:49 GMT-0500 (Central Daylight Time)","490327","Untrustworthy,Trustworthy","","854","","","","rating","","trustrating_stim/white_00785_941205_fb_edt.bmp","4","","","","","","","","","","",""
"image-keyboard-response","80","77429","0.0-6.0-2.37","614fe09fec9ce4a2a415476d","bdp_trlrn","Tue Mar 14 2023 20:01:49 GMT-0500 (Central Daylight Time)","490327","Untrustworthy,Trustworthy","","null","","","","ratingFB","","trustrating_stim/white_00785_941205_fb_edt.bmp","null","","","","","","","","","","",""
"image-keyboard-response","81","78419","0.0-6.0-1.38","614fe09fec9ce4a2a415476d","bdp_trlrn","Tue Mar 14 2023 20:01:49 GMT-0500 (Central Daylight Time)","490327","Untrustworthy,Trustworthy","","885","","","","rating","","trustrating_stim/white_mw033.bmp","3","","","","","","","","","","",""
"image-keyboard-response","82","78624","0.0-6.0-2.38","614fe09fec9ce4a2a415476d","bdp_trlrn","Tue Mar 14 2023 20:01:49 GMT-0500 (Central Daylight Time)","490327","Untrustworthy,Trustworthy","","null","","","","ratingFB","","trustrating_stim/white_mw033.bmp","null","","","","","","","","","","",""
"image-keyboard-response","83","79462","0.0-6.0-1.39","614fe09fec9ce4a2a415476d","bdp_trlrn","Tue Mar 14 2023 20:01:49 GMT-0500 (Central Daylight Time)","490327","Untrustworthy,Trustworthy","","733","","","","rating","","trustrating_stim/white_mw099.bmp","3","","","","","","","","","","",""
"image-keyboard-response","84","79669","0.0-6.0-2.39","614fe09fec9ce4a2a415476d","bdp_trlrn","Tue Mar 14 2023 20:01:49 GMT-0500 (Central Daylight Time)","490327","Untrustworthy,Trustworthy","","null","","","","ratingFB","","trustrating_stim/white_mw099.bmp","null","","","","","","","","","","",""
"image-keyboard-response","85","80667","0.0-6.0-1.40","614fe09fec9ce4a2a415476d","bdp_trlrn","Tue Mar 14 2023 20:01:49 GMT-0500 (Central Daylight Time)","490327","Untrustworthy,Trustworthy","","888","","","","rating","","trustrating_stim/white_00129_931230_fb_edt.bmp","3","","","","","","","","","","",""
"image-keyboard-response","86","80870","0.0-6.0-2.40","614fe09fec9ce4a2a415476d","bdp_trlrn","Tue Mar 14 2023 20:01:49 GMT-0500 (Central Daylight Time)","490327","Untrustworthy,Trustworthy","","null","","","","ratingFB","","trustrating_stim/white_00129_931230_fb_edt.bmp","null","","","","","","","","","","",""
"image-keyboard-response","87","82075","0.0-6.0-1.41","614fe09fec9ce4a2a415476d","bdp_trlrn","Tue Mar 14 2023 20:01:49 GMT-0500 (Central Daylight Time)","490327","Untrustworthy,Trustworthy","","1100","","","","rating","","trustrating_stim/white_00120_931230_fa_edt.bmp","4","","","","","","","","","","",""
"image-keyboard-response","88","82282","0.0-6.0-2.41","614fe09fec9ce4a2a415476d","bdp_trlrn","Tue Mar 14 2023 20:01:49 GMT-0500 (Central Daylight Time)","490327","Untrustworthy,Trustworthy","","null","","","","ratingFB","","trustrating_stim/white_00120_931230_fa_edt.bmp","null","","","","","","","","","","",""
"image-keyboard-response","89","82942","0.0-6.0-1.42","614fe09fec9ce4a2a415476d","bdp_trlrn","Tue Mar 14 2023 20:01:49 GMT-0500 (Central Daylight Time)","490327","Untrustworthy,Trustworthy","","550","","","","rating","","trustrating_stim/white_00299_940422_fa_edt.bmp","3","","","","","","","","","","",""
"image-keyboard-response","90","83153","0.0-6.0-2.42","614fe09fec9ce4a2a415476d","bdp_trlrn","Tue Mar 14 2023 20:01:49 GMT-0500 (Central Daylight Time)","490327","Untrustworthy,Trustworthy","","null","","","","ratingFB","","trustrating_stim/white_00299_940422_fa_edt.bmp","null","","","","","","","","","","",""
"image-keyboard-response","91","84053","0.0-6.0-1.43","614fe09fec9ce4a2a415476d","bdp_trlrn","Tue Mar 14 2023 20:01:49 GMT-0500 (Central Daylight Time)","490327","Untrustworthy,Trustworthy","","790","","","","rating","","trustrating_stim/white_mw066.bmp","3","","","","","","","","","","",""
"image-keyboard-response","92","84261","0.0-6.0-2.43","614fe09fec9ce4a2a415476d","bdp_trlrn","Tue Mar 14 2023 20:01:49 GMT-0500 (Central Daylight Time)","490327","Untrustworthy,Trustworthy","","null","","","","ratingFB","","trustrating_stim/white_mw066.bmp","null","","","","","","","","","","",""
"image-keyboard-response","93","85905","0.0-6.0-1.44","614fe09fec9ce4a2a415476d","bdp_trlrn","Tue Mar 14 2023 20:01:49 GMT-0500 (Central Daylight Time)","490327","Untrustworthy,Trustworthy","","1540","","","","rating","","trustrating_stim/white_00519_940519_fb_edt.bmp","4","","","","","","","","","","",""
"image-keyboard-response","94","86112","0.0-6.0-2.44","614fe09fec9ce4a2a415476d","bdp_trlrn","Tue Mar 14 2023 20:01:49 GMT-0500 (Central Daylight Time)","490327","Untrustworthy,Trustworthy","","null","","","","ratingFB","","trustrating_stim/white_00519_940519_fb_edt.bmp","null","","","","","","","","","","",""
"image-keyboard-response","95","86939","0.0-6.0-1.45","614fe09fec9ce4a2a415476d","bdp_trlrn","Tue Mar 14 2023 20:01:49 GMT-0500 (Central Daylight Time)","490327","Untrustworthy,Trustworthy","","714","","","","rating","","trustrating_stim/white_mw035.bmp","3","","","","","","","","","","",""
"image-keyboard-response","96","87144","0.0-6.0-2.45","614fe09fec9ce4a2a415476d","bdp_trlrn","Tue Mar 14 2023 20:01:49 GMT-0500 (Central Daylight Time)","490327","Untrustworthy,Trustworthy","","null","","","","ratingFB","","trustrating_stim/white_mw035.bmp","null","","","","","","","","","","",""
"image-keyboard-response","97","88226","0.0-6.0-1.46","614fe09fec9ce4a2a415476d","bdp_trlrn","Tue Mar 14 2023 20:01:49 GMT-0500 (Central Daylight Time)","490327","Untrustworthy,Trustworthy","","969","","","","rating","","trustrating_stim/white_mw097.bmp","2","","","","","","","","","","",""
"image-keyboard-response","98","88429","0.0-6.0-2.46","614fe09fec9ce4a2a415476d","bdp_trlrn","Tue Mar 14 2023 20:01:49 GMT-0500 (Central Daylight Time)","490327","Untrustworthy,Trustworthy","","null","","","","ratingFB","","trustrating_stim/white_mw097.bmp","null","","","","","","","","","","",""
"image-keyboard-response","99","89311","0.0-6.0-1.47","614fe09fec9ce4a2a415476d","bdp_trlrn","Tue Mar 14 2023 20:01:49 GMT-0500 (Central Daylight Time)","490327","Untrustworthy,Trustworthy","","777","","","","rating","","trustrating_stim/white_00109_931230_fa_edt.bmp","4","","","","","","","","","","",""
"image-keyboard-response","100","89521","0.0-6.0-2.47","614fe09fec9ce4a2a415476d","bdp_trlrn","Tue Mar 14 2023 20:01:49 GMT-0500 (Central Daylight Time)","490327","Untrustworthy,Trustworthy","","null","","","","ratingFB","","trustrating_stim/white_00109_931230_fa_edt.bmp","null","","","","","","","","","","",""
"image-keyboard-response","101","90194","0.0-6.0-1.48","614fe09fec9ce4a2a415476d","bdp_trlrn","Tue Mar 14 2023 20:01:49 GMT-0500 (Central Daylight Time)","490327","Untrustworthy,Trustworthy","","563","","","","rating","","trustrating_stim/white_00340_940422_fa_edt.bmp","3","","","","","","","","","","",""
"image-keyboard-response","102","90397","0.0-6.0-2.48","614fe09fec9ce4a2a415476d","bdp_trlrn","Tue Mar 14 2023 20:01:49 GMT-0500 (Central Daylight Time)","490327","Untrustworthy,Trustworthy","","null","","","","ratingFB","","trustrating_stim/white_00340_940422_fa_edt.bmp","null","","","","","","","","","","",""
"image-keyboard-response","103","91192","0.0-6.0-1.49","614fe09fec9ce4a2a415476d","bdp_trlrn","Tue Mar 14 2023 20:01:49 GMT-0500 (Central Daylight Time)","490327","Untrustworthy,Trustworthy","","691","","","","rating","","trustrating_stim/white_00223_940128_fb_edt.bmp","3","","","","","","","","","","",""
"image-keyboard-response","104","91399","0.0-6.0-2.49","614fe09fec9ce4a2a415476d","bdp_trlrn","Tue Mar 14 2023 20:01:49 GMT-0500 (Central Daylight Time)","490327","Untrustworthy,Trustworthy","","null","","","","ratingFB","","trustrating_stim/white_00223_940128_fb_edt.bmp","null","","","","","","","","","","",""
"image-keyboard-response","105","92169","0.0-6.0-1.50","614fe09fec9ce4a2a415476d","bdp_trlrn","Tue Mar 14 2023 20:01:49 GMT-0500 (Central Daylight Time)","490327","Untrustworthy,Trustworthy","","667","","","","rating","","trustrating_stim/white_mw048.bmp","3","","","","","","","","","","",""
"image-keyboard-response","106","92377","0.0-6.0-2.50","614fe09fec9ce4a2a415476d","bdp_trlrn","Tue Mar 14 2023 20:01:49 GMT-0500 (Central Daylight Time)","490327","Untrustworthy,Trustworthy","","null","","","","ratingFB","","trustrating_stim/white_mw048.bmp","null","","","","","","","","","","",""
"image-keyboard-response","107","93566","0.0-6.0-1.51","614fe09fec9ce4a2a415476d","bdp_trlrn","Tue Mar 14 2023 20:01:49 GMT-0500 (Central Daylight Time)","490327","Untrustworthy,Trustworthy","","1079","","","","rating","","trustrating_stim/white_00757_941201_fa_edt.bmp","4","","","","","","","","","","",""
"image-keyboard-response","108","93775","0.0-6.0-2.51","614fe09fec9ce4a2a415476d","bdp_trlrn","Tue Mar 14 2023 20:01:49 GMT-0500 (Central Daylight Time)","490327","Untrustworthy,Trustworthy","","null","","","","ratingFB","","trustrating_stim/white_00757_941201_fa_edt.bmp","null","","","","","","","","","","",""
"image-keyboard-response","109","94551","0.0-6.0-1.52","614fe09fec9ce4a2a415476d","bdp_trlrn","Tue Mar 14 2023 20:01:49 GMT-0500 (Central Daylight Time)","490327","Untrustworthy,Trustworthy","","670","","","","rating","","trustrating_stim/white_mw063.bmp","3","","","","","","","","","","",""
"image-keyboard-response","110","94758","0.0-6.0-2.52","614fe09fec9ce4a2a415476d","bdp_trlrn","Tue Mar 14 2023 20:01:49 GMT-0500 (Central Daylight Time)","490327","Untrustworthy,Trustworthy","","null","","","","ratingFB","","trustrating_stim/white_mw063.bmp","null","","","","","","","","","","",""
"image-keyboard-response","111","95735","0.0-6.0-1.53","614fe09fec9ce4a2a415476d","bdp_trlrn","Tue Mar 14 2023 20:01:49 GMT-0500 (Central Daylight Time)","490327","Untrustworthy,Trustworthy","","874","","","","rating","","trustrating_stim/white_mw084.bmp","4","","","","","","","","","","",""
"image-keyboard-response","112","95945","0.0-6.0-2.53","614fe09fec9ce4a2a415476d","bdp_trlrn","Tue Mar 14 2023 20:01:49 GMT-0500 (Central Daylight Time)","490327","Untrustworthy,Trustworthy","","null","","","","ratingFB","","trustrating_stim/white_mw084.bmp","null","","","","","","","","","","",""
"image-keyboard-response","113","96875","0.0-6.0-1.54","614fe09fec9ce4a2a415476d","bdp_trlrn","Tue Mar 14 2023 20:01:49 GMT-0500 (Central Daylight Time)","490327","Untrustworthy,Trustworthy","","817","","","","rating","","trustrating_stim/white_mw071.bmp","4","","","","","","","","","","",""
"image-keyboard-response","114","97079","0.0-6.0-2.54","614fe09fec9ce4a2a415476d","bdp_trlrn","Tue Mar 14 2023 20:01:49 GMT-0500 (Central Daylight Time)","490327","Untrustworthy,Trustworthy","","null","","","","ratingFB","","trustrating_stim/white_mw071.bmp","null","","","","","","","","","","",""
"image-keyboard-response","115","98252","0.0-6.0-1.55","614fe09fec9ce4a2a415476d","bdp_trlrn","Tue Mar 14 2023 20:01:49 GMT-0500 (Central Daylight Time)","490327","Untrustworthy,Trustworthy","","1069","","","","rating","","trustrating_stim/white_mw056.bmp","3","","","","","","","","","","",""
"image-keyboard-response","116","98462","0.0-6.0-2.55","614fe09fec9ce4a2a415476d","bdp_trlrn","Tue Mar 14 2023 20:01:49 GMT-0500 (Central Daylight Time)","490327","Untrustworthy,Trustworthy","","null","","","","ratingFB","","trustrating_stim/white_mw056.bmp","null","","","","","","","","","","",""
"image-keyboard-response","117","99350","0.0-6.0-1.56","614fe09fec9ce4a2a415476d","bdp_trlrn","Tue Mar 14 2023 20:01:49 GMT-0500 (Central Daylight Time)","490327","Untrustworthy,Trustworthy","","784","","","","rating","","trustrating_stim/white_00577_940928_fa_edt.bmp","2","","","","","","","","","","",""
"image-keyboard-response","118","99561","0.0-6.0-2.56","614fe09fec9ce4a2a415476d","bdp_trlrn","Tue Mar 14 2023 20:01:49 GMT-0500 (Central Daylight Time)","490327","Untrustworthy,Trustworthy","","null","","","","ratingFB","","trustrating_stim/white_00577_940928_fa_edt.bmp","null","","","","","","","","","","",""
"image-keyboard-response","119","100371","0.0-6.0-1.57","614fe09fec9ce4a2a415476d","bdp_trlrn","Tue Mar 14 2023 20:01:49 GMT-0500 (Central Daylight Time)","490327","Untrustworthy,Trustworthy","","700","","","","rating","","trustrating_stim/white_mw046.bmp","3","","","","","","","","","","",""
"image-keyboard-response","120","100573","0.0-6.0-2.57","614fe09fec9ce4a2a415476d","bdp_trlrn","Tue Mar 14 2023 20:01:49 GMT-0500 (Central Daylight Time)","490327","Untrustworthy,Trustworthy","","null","","","","ratingFB","","trustrating_stim/white_mw046.bmp","null","","","","","","","","","","",""
"image-keyboard-response","121","101706","0.0-6.0-1.58","614fe09fec9ce4a2a415476d","bdp_trlrn","Tue Mar 14 2023 20:01:49 GMT-0500 (Central Daylight Time)","490327","Untrustworthy,Trustworthy","","1029","","","","rating","","trustrating_stim/white_00602_940928_fb_edt.bmp","3","","","","","","","","","","",""
"image-keyboard-response","122","101911","0.0-6.0-2.58","614fe09fec9ce4a2a415476d","bdp_trlrn","Tue Mar 14 2023 20:01:49 GMT-0500 (Central Daylight Time)","490327","Untrustworthy,Trustworthy","","null","","","","ratingFB","","trustrating_stim/white_00602_940928_fb_edt.bmp","null","","","","","","","","","","",""
"image-keyboard-response","123","102723","0.0-6.0-1.59","614fe09fec9ce4a2a415476d","bdp_trlrn","Tue Mar 14 2023 20:01:49 GMT-0500 (Central Daylight Time)","490327","Untrustworthy,Trustworthy","","710","","","","rating","","trustrating_stim/white_mw049.bmp","2","","","","","","","","","","",""
"image-keyboard-response","124","102928","0.0-6.0-2.59","614fe09fec9ce4a2a415476d","bdp_trlrn","Tue Mar 14 2023 20:01:49 GMT-0500 (Central Daylight Time)","490327","Untrustworthy,Trustworthy","","null","","","","ratingFB","","trustrating_stim/white_mw049.bmp","null","","","","","","","","","","",""
"instructions","125","104370","0.0-7.0","614fe09fec9ce4a2a415476d","bdp_trlrn","Tue Mar 14 2023 20:01:49 GMT-0500 (Central Daylight Time)","490327","Untrustworthy,Trustworthy","[{""page_index"":0,""viewing_time"":1330}]","1330","","","","","","","","","","","","","","","","","",""
"instructions","126","142916","0.0-8.0","614fe09fec9ce4a2a415476d","bdp_trlrn","Tue Mar 14 2023 20:01:49 GMT-0500 (Central Daylight Time)","490327","Untrustworthy,Trustworthy","[{""page_index"":0,""viewing_time"":1410},{""page_index"":1,""viewing_time"":12754},{""page_index"":2,""viewing_time"":3457},{""page_index"":3,""viewing_time"":3868},{""page_index"":4,""viewing_time"":1014},{""page_index"":5,""viewing_time"":7525},{""page_index"":6,""viewing_time"":7320},{""page_index"":7,""viewing_time"":1088}]","38436","","","","","","","","","","","","","","","","","",""
"html-keyboard-response","127","145740","0.0-9.0","614fe09fec9ce4a2a415476d","bdp_trlrn","Tue Mar 14 2023 20:01:49 GMT-0500 (Central Daylight Time)","490327","Untrustworthy,Trustworthy","","2822","","","","","","<div class='header' style='text-align:left; position: absolute; top: 5%; left: 5%;'><small>Task 3 of 5</small></div><div class='instruxDiv'><p><strong>1) What is the minimum number of points you can choose to send to your partner?</strong></p><p>a) 0</p><p>b) 1</p><p>c) 5</p>","A","","","","","","","","","","",""
"html-keyboard-response","128","147731","0.0-10.0","614fe09fec9ce4a2a415476d","bdp_trlrn","Tue Mar 14 2023 20:01:49 GMT-0500 (Central Daylight Time)","490327","Untrustworthy,Trustworthy","","1885","","","","","","<div class='header' style='text-align:left; position: absolute; top: 5%; left: 5%;'><small>Task 3 of 5</small></div><div class='instruxDiv'><p><strong>1) What is the minimum number of points you can choose to send to your partner?</strong></p><p style='color:#FF0000'>a) 0</p><p>b) 1</p><p>c) 5</p><h3 style='color:#FF0000'>Incorrect!</h3><h3 class='center-content'>The correct response is b).</h3><h3 class='center-content'>The minimum number of points you can choose to send to your partner is 1 point.</h3><p><em>Press SPACEBAR to continue</em></p></div>"," ","","","","","","","","","","",""
"html-keyboard-response","129","149419","0.0-11.0","614fe09fec9ce4a2a415476d","bdp_trlrn","Tue Mar 14 2023 20:01:49 GMT-0500 (Central Daylight Time)","490327","Untrustworthy,Trustworthy","","1580","","","","","","<div class='header' style='text-align:left; position: absolute; top: 5%; left: 5%;'><small>Task 3 of 5</small></div><div class='instruxDiv'><p><strong>2) What is the maximum number of points you can choose to send to your partner?</strong></p><p>a) 8</p><p>b) 5</p><p>c) 3</p>","B","","","","","","","","","","",""
"html-keyboard-response","130","150130","0.0-12.0","614fe09fec9ce4a2a415476d","bdp_trlrn","Tue Mar 14 2023 20:01:49 GMT-0500 (Central Daylight Time)","490327","Untrustworthy,Trustworthy","","604","","","","","","<div class='header' style='text-align:left; position: absolute; top: 5%; left: 5%;'><small>Task 3 of 5</small></div><div class='instruxDiv'><p><strong>2) What is the maximum number of points you can choose to send to your partner?</strong></p><p>a) 8</p><p style='color:#00FF00'>b) 5</p><p>c) 3</p><h3 style='color:#00FF00'>Correct!</h3><h3 class='center-content'>The correct response is b).</h3><h3 class='center-content'>The maximum number of points you can choose to send to your partner is 5 points.</h3><p><em>Press SPACEBAR to continue</em></p></div>"," ","","","","","","","","","","",""
"html-keyboard-response","131","153752","0.0-13.0","614fe09fec9ce4a2a415476d","bdp_trlrn","Tue Mar 14 2023 20:01:49 GMT-0500 (Central Daylight Time)","490327","Untrustworthy,Trustworthy","","3510","","","","","","<div class='header' style='text-align:left; position: absolute; top: 5%; left: 5%;'><small>Task 3 of 5</small></div><div class='instruxDiv'><p><strong>3) What happens to the amount of points you send to your partner?</strong></p><p>a) Nothing</p><p>b) It doubles</p><p>c) It quadruples</p>","B","","","","","","","","","","",""
"html-keyboard-response","132","154552","0.0-14.0","614fe09fec9ce4a2a415476d","bdp_trlrn","Tue Mar 14 2023 20:01:49 GMT-0500 (Central Daylight Time)","490327","Untrustworthy,Trustworthy","","698","","","","","","<div class='header' style='text-align:left; position: absolute; top: 5%; left: 5%;'><small>Task 3 of 5</small></div><div class='instruxDiv'><p><strong>3) What happens to the amount of points you send to your partner?</strong></p><p>a) Nothing</p><p style='color:#FF0000'>b) It doubles</p><p>c) It quadruples</p><h3 style='color:#FF0000'>Incorrect!</h3><h3 class='center-content'>The correct response is c).</h3><h3 class='center-content'>The amount of points you send to your partner quadruples.</h3><p><em>Press SPACEBAR to continue</em></p></div>"," ","","","","","","","","","","",""
"html-keyboard-response","133","162559","0.0-15.0","614fe09fec9ce4a2a415476d","bdp_trlrn","Tue Mar 14 2023 20:01:49 GMT-0500 (Central Daylight Time)","490327","Untrustworthy,Trustworthy","","7906","","","","","","<div class='header' style='text-align:left; position: absolute; top: 5%; left: 5%;'><small>Task 3 of 5</small></div><div class='instruxDiv'><p><strong>4) If you decided to share 4 out of 5 points with your partner, and they decided to share half of the amount they received with you, how many points would you receive back from them on this round?</strong></p><p>a) 16</p><p>b) 0</p><p>c) 8</p>","C","","","","","","","","","","",""
"html-keyboard-response","134","163285","0.0-16.0","614fe09fec9ce4a2a415476d","bdp_trlrn","Tue Mar 14 2023 20:01:49 GMT-0500 (Central Daylight Time)","490327","Untrustworthy,Trustworthy","","621","","","","","","<div class='header' style='text-align:left; position: absolute; top: 5%; left: 5%;'><small>Task 3 of 5</small></div><div class='instruxDiv'><p><strong>4) If you decided to share 4 out of 5 points with your partner, and they decided to share half of the amount they received with you, how many points would you receive back from them on this round?</strong></p><p>a) 16</p><p>b) 0</p><p style='color:#00FF00'>c) 8</p><h3 style='color:#00FF00'>Correct!</h3><h3 class='center-content'>The correct response is c).</h3><h3 class='center-content'>If you shared 4 out of 5 points with your partner and they decided to share half of the amount they received with you, you would receive 8 points back (i.e. (4 x 4)/2 = 8).</h3><p><em>Press SPACEBAR to continue</em></p></div>"," ","","","","","","","","","","",""
"html-keyboard-response","135","168398","0.0-17.0","614fe09fec9ce4a2a415476d","bdp_trlrn","Tue Mar 14 2023 20:01:49 GMT-0500 (Central Daylight Time)","490327","Untrustworthy,Trustworthy","","null","","","","","","<div class='header' style='text-align:left; position: absolute; top: 5%; left: 5%;'><small>Task 3 of 5</small></div><div class='instruxDiv'><p>Thank you for completing the quiz<p>These are the actual partners you will be interacting with in the next block:<p><div class='tc' align='center'><img class='introPic' src='trustrating_stim/white_mw048.bmp'><br><strong>Sebastian</strong></div><div class='bl' align='center'><img class='introPic' src='trustrating_stim/white_00299_940422_fa_edt.bmp'><br><strong>Benjamin</strong></div><div class='br' align='center'><img class='introPic' src='trustrating_stim/white_mw053.bmp'><br><strong>Jason</strong></div></div><p>Across <strong>66 rounds</strong> you will interact with each partner <strong>22 times</strong> (in random order).<p style='align:center; color:white'><font <em>Press SPACEBAR to continue</em></p>","null","","","","","","","","","","",""
"instructions","136","170287","0.0-18.0","614fe09fec9ce4a2a415476d","bdp_trlrn","Tue Mar 14 2023 20:01:49 GMT-0500 (Central Daylight Time)","490327","Untrustworthy,Trustworthy","[{""page_index"":0,""viewing_time"":1116},{""page_index"":1,""viewing_time"":772}]","1889","","","","","","","","","","","","","","","","","",""
"html-keyboard-response","137","173139","0.0-19.0-1.0","614fe09fec9ce4a2a415476d","bdp_trlrn","Tue Mar 14 2023 20:01:49 GMT-0500 (Central Daylight Time)","490327","Untrustworthy,Trustworthy","","2748","","","","decision","","<div class='trialDiv'><img src='trustrating_stim/white_00299_940422_fa_edt.bmp'><br><font class='baseline'><strong>Benjamin</strong><p>Choose number of points to send.</font><div class='respPicDiv'><img src='img/responseButtonOffersNo0L.png' class='respPic'></div></div>","5","1","Benjamin","5","Kept","0.2,0.65","12","0.2","trustrating_stim/white_00299_940422_fa_edt.bmp","4","5","1"
"html-keyboard-response","138","173397","0.0-19.0-2.0","614fe09fec9ce4a2a415476d","bdp_trlrn","Tue Mar 14 2023 20:01:49 GMT-0500 (Central Daylight Time)","490327","Untrustworthy,Trustworthy","","null","","","","decisionFB","","<div class='trialDiv'><img src='trustrating_stim/white_00299_940422_fa_edt.bmp'><br><font class='baseline'><strong>Benjamin</strong><p>Choose number of points to send.</font><div class='respPicDiv'><img src='img/responseButtonOffersNo0L5.png' class='respPic'></div></div>","null","1","Benjamin","5","Kept","0.2,0.65","12","0.2","trustrating_stim/white_00299_940422_fa_edt.bmp","4","0","1"
"html-keyboard-response","139","174407","0.0-19.0-3.0","614fe09fec9ce4a2a415476d","bdp_trlrn","Tue Mar 14 2023 20:01:49 GMT-0500 (Central Daylight Time)","490327","Untrustworthy,Trustworthy","","null","","","","feedback","","<div class='trialDiv'><img src='trustrating_stim/white_00299_940422_fa_edt.bmp'><br><font class='baseline'><strong>Benjamin</strong><p>Received: <strong>20</strong></font> &nbsp; &nbsp; &nbsp; &nbsp; &nbsp; &nbsp;<font class='negOutcome'>Shared back: <strong>0</strong></font></font><div class='respPicDiv'><img src='img/responseButtonOffersNo0_wht.png' class='respPic'></div></div>","null","1","Benjamin","5","Kept","0.2,0.65","12","0.2","trustrating_stim/white_00299_940422_fa_edt.bmp","4","0","1"
"html-keyboard-response","140","176534","0.0-19.0-1.1","614fe09fec9ce4a2a415476d","bdp_trlrn","Tue Mar 14 2023 20:01:49 GMT-0500 (Central Daylight Time)","490327","Untrustworthy,Trustworthy","","2127","","","","decision","","<div class='trialDiv'><img src='trustrating_stim/white_mw053.bmp'><br><font class='baseline'><strong>Jason</strong><p>Choose number of points to send.</font><div class='respPicDiv'><img src='img/responseButtonOffersNo0L.png' class='respPic'></div></div>","5","1","Jason","10","Kept","0.35,0.65","9","0.35","trustrating_stim/white_mw053.bmp","5.5","5","2"
"html-keyboard-response","141","176791","0.0-19.0-2.1","614fe09fec9ce4a2a415476d","bdp_trlrn","Tue Mar 14 2023 20:01:49 GMT-0500 (Central Daylight Time)","490327","Untrustworthy,Trustworthy","","null","","","","decisionFB","","<div class='trialDiv'><img src='trustrating_stim/white_mw053.bmp'><br><font class='baseline'><strong>Jason</strong><p>Choose number of points to send.</font><div class='respPicDiv'><img src='img/responseButtonOffersNo0L5.png' class='respPic'></div></div>","null","1","Jason","10","Kept","0.35,0.65","9","0.35","trustrating_stim/white_mw053.bmp","5.5","0","2"
"html-keyboard-response","142","177796","0.0-19.0-3.1","614fe09fec9ce4a2a415476d","bdp_trlrn","Tue Mar 14 2023 20:01:49 GMT-0500 (Central Daylight Time)","490327","Untrustworthy,Trustworthy","","null","","","","feedback","","<div class='trialDiv'><img src='trustrating_stim/white_mw053.bmp'><br><font class='baseline'><strong>Jason</strong><p>Received: <strong>20</strong></font> &nbsp; &nbsp; &nbsp; &nbsp; &nbsp; &nbsp;<font class='negOutcome'>Shared back: <strong>0</strong></font></font><div class='respPicDiv'><img src='img/responseButtonOffersNo0_wht.png' class='respPic'></div></div>","null","1","Jason","10","Kept","0.35,0.65","9","0.35","trustrating_stim/white_mw053.bmp","5.5","0","2"
"html-keyboard-response","143","178453","0.0-19.0-1.2","614fe09fec9ce4a2a415476d","bdp_trlrn","Tue Mar 14 2023 20:01:49 GMT-0500 (Central Daylight Time)","490327","Untrustworthy,Trustworthy","","656","","","","decision","","<div class='trialDiv'><img src='trustrating_stim/white_mw048.bmp'><br><font class='baseline'><strong>Sebastian</strong><p>Choose number of points to send.</font><div class='respPicDiv'><img src='img/responseButtonOffersNo0L.png' class='respPic'></div></div>","5","1","Sebastian","1","Shared","0.65,0.2","11","0.65","trustrating_stim/white_mw048.bmp","2.5","5","3"
"html-keyboard-response","144","178709","0.0-19.0-2.2","614fe09fec9ce4a2a415476d","bdp_trlrn","Tue Mar 14 2023 20:01:49 GMT-0500 (Central Daylight Time)","490327","Untrustworthy,Trustworthy","","null","","","","decisionFB","","<div class='trialDiv'><img src='trustrating_stim/white_mw048.bmp'><br><font class='baseline'><strong>Sebastian</strong><p>Choose number of points to send.</font><div class='respPicDiv'><img src='img/responseButtonOffersNo0L5.png' class='respPic'></div></div>","null","1","Sebastian","1","Shared","0.65,0.2","11","0.65","trustrating_stim/white_mw048.bmp","2.5","0","3"
"html-keyboard-response","145","179718","0.0-19.0-3.2","614fe09fec9ce4a2a415476d","bdp_trlrn","Tue Mar 14 2023 20:01:49 GMT-0500 (Central Daylight Time)","490327","Untrustworthy,Trustworthy","","null","","","","feedback","","<div class='trialDiv'><img src='trustrating_stim/white_mw048.bmp'><br><font class='baseline'><strong>Sebastian</strong><p>Received: <strong>20</strong></font> &nbsp; &nbsp; &nbsp; &nbsp; &nbsp; &nbsp;<font class='posOutcome'>Shared back: <strong>10</strong></font></font><div class='respPicDiv'><img src='img/responseButtonOffersNo0_wht.png' class='respPic'></div></div>","null","1","Sebastian","1","Shared","0.65,0.2","11","0.65","trustrating_stim/white_mw048.bmp","2.5","10","3"
"html-keyboard-response","146","180911","0.0-19.0-1.3","614fe09fec9ce4a2a415476d","bdp_trlrn","Tue Mar 14 2023 20:01:49 GMT-0500 (Central Daylight Time)","490327","Untrustworthy,Trustworthy","","1192","","","","decision","","<div class='trialDiv'><img src='trustrating_stim/white_mw053.bmp'><br><font class='baseline'><strong>Jason</strong><p>Choose number of points to send.</font><div class='respPicDiv'><img src='img/responseButtonOffersNo0L.png' class='respPic'></div></div>","5","2","Jason","10","Kept","0.35,0.65","9","0.35","trustrating_stim/white_mw053.bmp","5.5","15","4"
"html-keyboard-response","147","181171","0.0-19.0-2.3","614fe09fec9ce4a2a415476d","bdp_trlrn","Tue Mar 14 2023 20:01:49 GMT-0500 (Central Daylight Time)","490327","Untrustworthy,Trustworthy","","null","","","","decisionFB","","<div class='trialDiv'><img src='trustrating_stim/white_mw053.bmp'><br><font class='baseline'><strong>Jason</strong><p>Choose number of points to send.</font><div class='respPicDiv'><img src='img/responseButtonOffersNo0L5.png' class='respPic'></div></div>","null","2","Jason","10","Kept","0.35,0.65","9","0.35","trustrating_stim/white_mw053.bmp","5.5","10","4"
"html-keyboard-response","148","182185","0.0-19.0-3.3","614fe09fec9ce4a2a415476d","bdp_trlrn","Tue Mar 14 2023 20:01:49 GMT-0500 (Central Daylight Time)","490327","Untrustworthy,Trustworthy","","null","","","","feedback","","<div class='trialDiv'><img src='trustrating_stim/white_mw053.bmp'><br><font class='baseline'><strong>Jason</strong><p>Received: <strong>20</strong></font> &nbsp; &nbsp; &nbsp; &nbsp; &nbsp; &nbsp;<font class='negOutcome'>Shared back: <strong>0</strong></font></font><div class='respPicDiv'><img src='img/responseButtonOffersNo0_wht.png' class='respPic'></div></div>","null","2","Jason","10","Kept","0.35,0.65","9","0.35","trustrating_stim/white_mw053.bmp","5.5","10","4"
"html-keyboard-response","149","183625","0.0-19.0-1.4","614fe09fec9ce4a2a415476d","bdp_trlrn","Tue Mar 14 2023 20:01:49 GMT-0500 (Central Daylight Time)","490327","Untrustworthy,Trustworthy","","1439","","","","decision","","<div class='trialDiv'><img src='trustrating_stim/white_mw048.bmp'><br><font class='baseline'><strong>Sebastian</strong><p>Choose number of points to send.</font><div class='respPicDiv'><img src='img/responseButtonOffersNo0L.png' class='respPic'></div></div>","5","2","Sebastian","1","Shared","0.65,0.2","11","0.65","trustrating_stim/white_mw048.bmp","2.5","15","5"
"html-keyboard-response","150","183880","0.0-19.0-2.4","614fe09fec9ce4a2a415476d","bdp_trlrn","Tue Mar 14 2023 20:01:49 GMT-0500 (Central Daylight Time)","490327","Untrustworthy,Trustworthy","","null","","","","decisionFB","","<div class='trialDiv'><img src='trustrating_stim/white_mw048.bmp'><br><font class='baseline'><strong>Sebastian</strong><p>Choose number of points to send.</font><div class='respPicDiv'><img src='img/responseButtonOffersNo0L5.png' class='respPic'></div></div>","null","2","Sebastian","1","Shared","0.65,0.2","11","0.65","trustrating_stim/white_mw048.bmp","2.5","10","5"
"html-keyboard-response","151","184885","0.0-19.0-3.4","614fe09fec9ce4a2a415476d","bdp_trlrn","Tue Mar 14 2023 20:01:49 GMT-0500 (Central Daylight Time)","490327","Untrustworthy,Trustworthy","","null","","","","feedback","","<div class='trialDiv'><img src='trustrating_stim/white_mw048.bmp'><br><font class='baseline'><strong>Sebastian</strong><p>Received: <strong>20</strong></font> &nbsp; &nbsp; &nbsp; &nbsp; &nbsp; &nbsp;<font class='posOutcome'>Shared back: <strong>10</strong></font></font><div class='respPicDiv'><img src='img/responseButtonOffersNo0_wht.png' class='respPic'></div></div>","null","2","Sebastian","1","Shared","0.65,0.2","11","0.65","trustrating_stim/white_mw048.bmp","2.5","20","5"
"html-keyboard-response","152","186095","0.0-19.0-1.5","614fe09fec9ce4a2a415476d","bdp_trlrn","Tue Mar 14 2023 20:01:49 GMT-0500 (Central Daylight Time)","490327","Untrustworthy,Trustworthy","","1209","","","","decision","","<div class='trialDiv'><img src='trustrating_stim/white_00299_940422_fa_edt.bmp'><br><font class='baseline'><strong>Benjamin</strong><p>Choose number of points to send.</font><div class='respPicDiv'><img src='img/responseButtonOffersNo0L.png' class='respPic'></div></div>","5","2","Benjamin","5","Kept","0.2,0.65","12","0.2","trustrating_stim/white_00299_940422_fa_edt.bmp","4","25","6"
"html-keyboard-response","153","186349","0.0-19.0-2.5","614fe09fec9ce4a2a415476d","bdp_trlrn","Tue Mar 14 2023 20:01:49 GMT-0500 (Central Daylight Time)","490327","Untrustworthy,Trustworthy","","null","","","","decisionFB","","<div class='trialDiv'><img src='trustrating_stim/white_00299_940422_fa_edt.bmp'><br><font class='baseline'><strong>Benjamin</strong><p>Choose number of points to send.</font><div class='respPicDiv'><img src='img/responseButtonOffersNo0L5.png' class='respPic'></div></div>","null","2","Benjamin","5","Kept","0.2,0.65","12","0.2","trustrating_stim/white_00299_940422_fa_edt.bmp","4","20","6"
"html-keyboard-response","154","187358","0.0-19.0-3.5","614fe09fec9ce4a2a415476d","bdp_trlrn","Tue Mar 14 2023 20:01:49 GMT-0500 (Central Daylight Time)","490327","Untrustworthy,Trustworthy","","null","","","","feedback","","<div class='trialDiv'><img src='trustrating_stim/white_00299_940422_fa_edt.bmp'><br><font class='baseline'><strong>Benjamin</strong><p>Received: <strong>20</strong></font> &nbsp; &nbsp; &nbsp; &nbsp; &nbsp; &nbsp;<font class='negOutcome'>Shared back: <strong>0</strong></font></font><div class='respPicDiv'><img src='img/responseButtonOffersNo0_wht.png' class='respPic'></div></div>","null","2","Benjamin","5","Kept","0.2,0.65","12","0.2","trustrating_stim/white_00299_940422_fa_edt.bmp","4","20","6"
"html-keyboard-response","155","189585","0.0-19.0-1.6","614fe09fec9ce4a2a415476d","bdp_trlrn","Tue Mar 14 2023 20:01:49 GMT-0500 (Central Daylight Time)","490327","Untrustworthy,Trustworthy","","2226","","","","decision","","<div class='trialDiv'><img src='trustrating_stim/white_mw053.bmp'><br><font class='baseline'><strong>Jason</strong><p>Choose number of points to send.</font><div class='respPicDiv'><img src='img/responseButtonOffersNo0L.png' class='respPic'></div></div>","1","3","Jason","10","Shared","0.35,0.65","9","0.35","trustrating_stim/white_mw053.bmp","5.5","25","7"
"html-keyboard-response","156","189838","0.0-19.0-2.6","614fe09fec9ce4a2a415476d","bdp_trlrn","Tue Mar 14 2023 20:01:49 GMT-0500 (Central Daylight Time)","490327","Untrustworthy,Trustworthy","","null","","","","decisionFB","","<div class='trialDiv'><img src='trustrating_stim/white_mw053.bmp'><br><font class='baseline'><strong>Jason</strong><p>Choose number of points to send.</font><div class='respPicDiv'><img src='img/responseButtonOffersNo0L1.png' class='respPic'></div></div>","null","3","Jason","10","Shared","0.35,0.65","9","0.35","trustrating_stim/white_mw053.bmp","5.5","24","7"
"html-keyboard-response","157","190841","0.0-19.0-3.6","614fe09fec9ce4a2a415476d","bdp_trlrn","Tue Mar 14 2023 20:01:49 GMT-0500 (Central Daylight Time)","490327","Untrustworthy,Trustworthy","","null","","","","feedback","","<div class='trialDiv'><img src='trustrating_stim/white_mw053.bmp'><br><font class='baseline'><strong>Jason</strong><p>Received: <strong>4</strong></font> &nbsp; &nbsp; &nbsp; &nbsp; &nbsp; &nbsp;<font class='posOutcome'>Shared back: <strong>2</strong></font></font><div class='respPicDiv'><img src='img/responseButtonOffersNo0_wht.png' class='respPic'></div></div>","null","3","Jason","10","Shared","0.35,0.65","9","0.35","trustrating_stim/white_mw053.bmp","5.5","26","7"
"html-keyboard-response","158","192462","0.0-19.0-1.7","614fe09fec9ce4a2a415476d","bdp_trlrn","Tue Mar 14 2023 20:01:49 GMT-0500 (Central Daylight Time)","490327","Untrustworthy,Trustworthy","","1621","","","","decision","","<div class='trialDiv'><img src='trustrating_stim/white_00299_940422_fa_edt.bmp'><br><font class='baseline'><strong>Benjamin</strong><p>Choose number of points to send.</font><div class='respPicDiv'><img src='img/responseButtonOffersNo0L.png' class='respPic'></div></div>","1","3","Benjamin","5","Kept","0.2,0.65","12","0.2","trustrating_stim/white_00299_940422_fa_edt.bmp","4","31","8"
"html-keyboard-response","159","192716","0.0-19.0-2.7","614fe09fec9ce4a2a415476d","bdp_trlrn","Tue Mar 14 2023 20:01:49 GMT-0500 (Central Daylight Time)","490327","Untrustworthy,Trustworthy","","null","","","","decisionFB","","<div class='trialDiv'><img src='trustrating_stim/white_00299_940422_fa_edt.bmp'><br><font class='baseline'><strong>Benjamin</strong><p>Choose number of points to send.</font><div class='respPicDiv'><img src='img/responseButtonOffersNo0L1.png' class='respPic'></div></div>","null","3","Benjamin","5","Kept","0.2,0.65","12","0.2","trustrating_stim/white_00299_940422_fa_edt.bmp","4","30","8"
"html-keyboard-response","160","193726","0.0-19.0-3.7","614fe09fec9ce4a2a415476d","bdp_trlrn","Tue Mar 14 2023 20:01:49 GMT-0500 (Central Daylight Time)","490327","Untrustworthy,Trustworthy","","null","","","","feedback","","<div class='trialDiv'><img src='trustrating_stim/white_00299_940422_fa_edt.bmp'><br><font class='baseline'><strong>Benjamin</strong><p>Received: <strong>4</strong></font> &nbsp; &nbsp; &nbsp; &nbsp; &nbsp; &nbsp;<font class='negOutcome'>Shared back: <strong>0</strong></font></font><div class='respPicDiv'><img src='img/responseButtonOffersNo0_wht.png' class='respPic'></div></div>","null","3","Benjamin","5","Kept","0.2,0.65","12","0.2","trustrating_stim/white_00299_940422_fa_edt.bmp","4","30","8"
"html-keyboard-response","161","196111","0.0-19.0-1.8","614fe09fec9ce4a2a415476d","bdp_trlrn","Tue Mar 14 2023 20:01:49 GMT-0500 (Central Daylight Time)","490327","Untrustworthy,Trustworthy","","2385","","","","decision","","<div class='trialDiv'><img src='trustrating_stim/white_mw048.bmp'><br><font class='baseline'><strong>Sebastian</strong><p>Choose number of points to send.</font><div class='respPicDiv'><img src='img/responseButtonOffersNo0L.png' class='respPic'></div></div>","1","3","Sebastian","1","Kept","0.65,0.2","11","0.65","trustrating_stim/white_mw048.bmp","2.5","35","9"
"html-keyboard-response","162","196367","0.0-19.0-2.8","614fe09fec9ce4a2a415476d","bdp_trlrn","Tue Mar 14 2023 20:01:49 GMT-0500 (Central Daylight Time)","490327","Untrustworthy,Trustworthy","","null","","","","decisionFB","","<div class='trialDiv'><img src='trustrating_stim/white_mw048.bmp'><br><font class='baseline'><strong>Sebastian</strong><p>Choose number of points to send.</font><div class='respPicDiv'><img src='img/responseButtonOffersNo0L1.png' class='respPic'></div></div>","null","3","Sebastian","1","Kept","0.65,0.2","11","0.65","trustrating_stim/white_mw048.bmp","2.5","34","9"
"html-keyboard-response","163","197377","0.0-19.0-3.8","614fe09fec9ce4a2a415476d","bdp_trlrn","Tue Mar 14 2023 20:01:49 GMT-0500 (Central Daylight Time)","490327","Untrustworthy,Trustworthy","","null","","","","feedback","","<div class='trialDiv'><img src='trustrating_stim/white_mw048.bmp'><br><font class='baseline'><strong>Sebastian</strong><p>Received: <strong>4</strong></font> &nbsp; &nbsp; &nbsp; &nbsp; &nbsp; &nbsp;<font class='negOutcome'>Shared back: <strong>0</strong></font></font><div class='respPicDiv'><img src='img/responseButtonOffersNo0_wht.png' class='respPic'></div></div>","null","3","Sebastian","1","Kept","0.65,0.2","11","0.65","trustrating_stim/white_mw048.bmp","2.5","34","9"
"html-keyboard-response","164","198301","0.0-19.0-1.9","614fe09fec9ce4a2a415476d","bdp_trlrn","Tue Mar 14 2023 20:01:49 GMT-0500 (Central Daylight Time)","490327","Untrustworthy,Trustworthy","","923","","","","decision","","<div class='trialDiv'><img src='trustrating_stim/white_00299_940422_fa_edt.bmp'><br><font class='baseline'><strong>Benjamin</strong><p>Choose number of points to send.</font><div class='respPicDiv'><img src='img/responseButtonOffersNo0L.png' class='respPic'></div></div>","1","4","Benjamin","5","Kept","0.2,0.65","12","0.2","trustrating_stim/white_00299_940422_fa_edt.bmp","4","39","10"
"html-keyboard-response","165","198559","0.0-19.0-2.9","614fe09fec9ce4a2a415476d","bdp_trlrn","Tue Mar 14 2023 20:01:49 GMT-0500 (Central Daylight Time)","490327","Untrustworthy,Trustworthy","","null","","","","decisionFB","","<div class='trialDiv'><img src='trustrating_stim/white_00299_940422_fa_edt.bmp'><br><font class='baseline'><strong>Benjamin</strong><p>Choose number of points to send.</font><div class='respPicDiv'><img src='img/responseButtonOffersNo0L1.png' class='respPic'></div></div>","null","4","Benjamin","5","Kept","0.2,0.65","12","0.2","trustrating_stim/white_00299_940422_fa_edt.bmp","4","38","10"
"html-keyboard-response","166","199565","0.0-19.0-3.9","614fe09fec9ce4a2a415476d","bdp_trlrn","Tue Mar 14 2023 20:01:49 GMT-0500 (Central Daylight Time)","490327","Untrustworthy,Trustworthy","","null","","","","feedback","","<div class='trialDiv'><img src='trustrating_stim/white_00299_940422_fa_edt.bmp'><br><font class='baseline'><strong>Benjamin</strong><p>Received: <strong>4</strong></font> &nbsp; &nbsp; &nbsp; &nbsp; &nbsp; &nbsp;<font class='negOutcome'>Shared back: <strong>0</strong></font></font><div class='respPicDiv'><img src='img/responseButtonOffersNo0_wht.png' class='respPic'></div></div>","null","4","Benjamin","5","Kept","0.2,0.65","12","0.2","trustrating_stim/white_00299_940422_fa_edt.bmp","4","38","10"
"html-keyboard-response","167","200921","0.0-19.0-1.10","614fe09fec9ce4a2a415476d","bdp_trlrn","Tue Mar 14 2023 20:01:49 GMT-0500 (Central Daylight Time)","490327","Untrustworthy,Trustworthy","","1356","","","","decision","","<div class='trialDiv'><img src='trustrating_stim/white_mw053.bmp'><br><font class='baseline'><strong>Jason</strong><p>Choose number of points to send.</font><div class='respPicDiv'><img src='img/responseButtonOffersNo0L.png' class='respPic'></div></div>","5","4","Jason","10","Kept","0.35,0.65","9","0.35","trustrating_stim/white_mw053.bmp","5.5","43","11"
"html-keyboard-response","168","201173","0.0-19.0-2.10","614fe09fec9ce4a2a415476d","bdp_trlrn","Tue Mar 14 2023 20:01:49 GMT-0500 (Central Daylight Time)","490327","Untrustworthy,Trustworthy","","null","","","","decisionFB","","<div class='trialDiv'><img src='trustrating_stim/white_mw053.bmp'><br><font class='baseline'><strong>Jason</strong><p>Choose number of points to send.</font><div class='respPicDiv'><img src='img/responseButtonOffersNo0L5.png' class='respPic'></div></div>","null","4","Jason","10","Kept","0.35,0.65","9","0.35","trustrating_stim/white_mw053.bmp","5.5","38","11"
"html-keyboard-response","169","202182","0.0-19.0-3.10","614fe09fec9ce4a2a415476d","bdp_trlrn","Tue Mar 14 2023 20:01:49 GMT-0500 (Central Daylight Time)","490327","Untrustworthy,Trustworthy","","null","","","","feedback","","<div class='trialDiv'><img src='trustrating_stim/white_mw053.bmp'><br><font class='baseline'><strong>Jason</strong><p>Received: <strong>20</strong></font> &nbsp; &nbsp; &nbsp; &nbsp; &nbsp; &nbsp;<font class='negOutcome'>Shared back: <strong>0</strong></font></font><div class='respPicDiv'><img src='img/responseButtonOffersNo0_wht.png' class='respPic'></div></div>","null","4","Jason","10","Kept","0.35,0.65","9","0.35","trustrating_stim/white_mw053.bmp","5.5","38","11"
"html-keyboard-response","170","203091","0.0-19.0-1.11","614fe09fec9ce4a2a415476d","bdp_trlrn","Tue Mar 14 2023 20:01:49 GMT-0500 (Central Daylight Time)","490327","Untrustworthy,Trustworthy","","909","","","","decision","","<div class='trialDiv'><img src='trustrating_stim/white_mw048.bmp'><br><font class='baseline'><strong>Sebastian</strong><p>Choose number of points to send.</font><div class='respPicDiv'><img src='img/responseButtonOffersNo0L.png' class='respPic'></div></div>","1","4","Sebastian","1","Shared","0.65,0.2","11","0.65","trustrating_stim/white_mw048.bmp","2.5","43","12"
"html-keyboard-response","171","203345","0.0-19.0-2.11","614fe09fec9ce4a2a415476d","bdp_trlrn","Tue Mar 14 2023 20:01:49 GMT-0500 (Central Daylight Time)","490327","Untrustworthy,Trustworthy","","null","","","","decisionFB","","<div class='trialDiv'><img src='trustrating_stim/white_mw048.bmp'><br><font class='baseline'><strong>Sebastian</strong><p>Choose number of points to send.</font><div class='respPicDiv'><img src='img/responseButtonOffersNo0L1.png' class='respPic'></div></div>","null","4","Sebastian","1","Shared","0.65,0.2","11","0.65","trustrating_stim/white_mw048.bmp","2.5","42","12"
"html-keyboard-response","172","204350","0.0-19.0-3.11","614fe09fec9ce4a2a415476d","bdp_trlrn","Tue Mar 14 2023 20:01:49 GMT-0500 (Central Daylight Time)","490327","Untrustworthy,Trustworthy","","null","","","","feedback","","<div class='trialDiv'><img src='trustrating_stim/white_mw048.bmp'><br><font class='baseline'><strong>Sebastian</strong><p>Received: <strong>4</strong></font> &nbsp; &nbsp; &nbsp; &nbsp; &nbsp; &nbsp;<font class='posOutcome'>Shared back: <strong>2</strong></font></font><div class='respPicDiv'><img src='img/responseButtonOffersNo0_wht.png' class='respPic'></div></div>","null","4","Sebastian","1","Shared","0.65,0.2","11","0.65","trustrating_stim/white_mw048.bmp","2.5","44","12"
"html-keyboard-response","173","205894","0.0-19.0-1.12","614fe09fec9ce4a2a415476d","bdp_trlrn","Tue Mar 14 2023 20:01:49 GMT-0500 (Central Daylight Time)","490327","Untrustworthy,Trustworthy","","1544","","","","decision","","<div class='trialDiv'><img src='trustrating_stim/white_00299_940422_fa_edt.bmp'><br><font class='baseline'><strong>Benjamin</strong><p>Choose number of points to send.</font><div class='respPicDiv'><img src='img/responseButtonOffersNo0L.png' class='respPic'></div></div>","1","5","Benjamin","5","Kept","0.2,0.65","12","0.2","trustrating_stim/white_00299_940422_fa_edt.bmp","4","49","13"
"html-keyboard-response","174","206152","0.0-19.0-2.12","614fe09fec9ce4a2a415476d","bdp_trlrn","Tue Mar 14 2023 20:01:49 GMT-0500 (Central Daylight Time)","490327","Untrustworthy,Trustworthy","","null","","","","decisionFB","","<div class='trialDiv'><img src='trustrating_stim/white_00299_940422_fa_edt.bmp'><br><font class='baseline'><strong>Benjamin</strong><p>Choose number of points to send.</font><div class='respPicDiv'><img src='img/responseButtonOffersNo0L1.png' class='respPic'></div></div>","null","5","Benjamin","5","Kept","0.2,0.65","12","0.2","trustrating_stim/white_00299_940422_fa_edt.bmp","4","48","13"
"html-keyboard-response","175","207158","0.0-19.0-3.12","614fe09fec9ce4a2a415476d","bdp_trlrn","Tue Mar 14 2023 20:01:49 GMT-0500 (Central Daylight Time)","490327","Untrustworthy,Trustworthy","","null","","","","feedback","","<div class='trialDiv'><img src='trustrating_stim/white_00299_940422_fa_edt.bmp'><br><font class='baseline'><strong>Benjamin</strong><p>Received: <strong>4</strong></font> &nbsp; &nbsp; &nbsp; &nbsp; &nbsp; &nbsp;<font class='negOutcome'>Shared back: <strong>0</strong></font></font><div class='respPicDiv'><img src='img/responseButtonOffersNo0_wht.png' class='respPic'></div></div>","null","5","Benjamin","5","Kept","0.2,0.65","12","0.2","trustrating_stim/white_00299_940422_fa_edt.bmp","4","48","13"
"html-keyboard-response","176","207970","0.0-19.0-1.13","614fe09fec9ce4a2a415476d","bdp_trlrn","Tue Mar 14 2023 20:01:49 GMT-0500 (Central Daylight Time)","490327","Untrustworthy,Trustworthy","","811","","","","decision","","<div class='trialDiv'><img src='trustrating_stim/white_mw053.bmp'><br><font class='baseline'><strong>Jason</strong><p>Choose number of points to send.</font><div class='respPicDiv'><img src='img/responseButtonOffersNo0L.png' class='respPic'></div></div>","1","5","Jason","10","Shared","0.35,0.65","9","0.35","trustrating_stim/white_mw053.bmp","5.5","53","14"
"html-keyboard-response","177","208232","0.0-19.0-2.13","614fe09fec9ce4a2a415476d","bdp_trlrn","Tue Mar 14 2023 20:01:49 GMT-0500 (Central Daylight Time)","490327","Untrustworthy,Trustworthy","","null","","","","decisionFB","","<div class='trialDiv'><img src='trustrating_stim/white_mw053.bmp'><br><font class='baseline'><strong>Jason</strong><p>Choose number of points to send.</font><div class='respPicDiv'><img src='img/responseButtonOffersNo0L1.png' class='respPic'></div></div>","null","5","Jason","10","Shared","0.35,0.65","9","0.35","trustrating_stim/white_mw053.bmp","5.5","52","14"
"html-keyboard-response","178","209237","0.0-19.0-3.13","614fe09fec9ce4a2a415476d","bdp_trlrn","Tue Mar 14 2023 20:01:49 GMT-0500 (Central Daylight Time)","490327","Untrustworthy,Trustworthy","","null","","","","feedback","","<div class='trialDiv'><img src='trustrating_stim/white_mw053.bmp'><br><font class='baseline'><strong>Jason</strong><p>Received: <strong>4</strong></font> &nbsp; &nbsp; &nbsp; &nbsp; &nbsp; &nbsp;<font class='posOutcome'>Shared back: <strong>2</strong></font></font><div class='respPicDiv'><img src='img/responseButtonOffersNo0_wht.png' class='respPic'></div></div>","null","5","Jason","10","Shared","0.35,0.65","9","0.35","trustrating_stim/white_mw053.bmp","5.5","54","14"
"html-keyboard-response","179","211860","0.0-19.0-1.14","614fe09fec9ce4a2a415476d","bdp_trlrn","Tue Mar 14 2023 20:01:49 GMT-0500 (Central Daylight Time)","490327","Untrustworthy,Trustworthy","","2623","","","","decision","","<div class='trialDiv'><img src='trustrating_stim/white_mw048.bmp'><br><font class='baseline'><strong>Sebastian</strong><p>Choose number of points to send.</font><div class='respPicDiv'><img src='img/responseButtonOffersNo0L.png' class='respPic'></div></div>","5","5","Sebastian","1","Kept","0.65,0.2","11","0.65","trustrating_stim/white_mw048.bmp","2.5","59","15"
"html-keyboard-response","180","212121","0.0-19.0-2.14","614fe09fec9ce4a2a415476d","bdp_trlrn","Tue Mar 14 2023 20:01:49 GMT-0500 (Central Daylight Time)","490327","Untrustworthy,Trustworthy","","null","","","","decisionFB","","<div class='trialDiv'><img src='trustrating_stim/white_mw048.bmp'><br><font class='baseline'><strong>Sebastian</strong><p>Choose number of points to send.</font><div class='respPicDiv'><img src='img/responseButtonOffersNo0L5.png' class='respPic'></div></div>","null","5","Sebastian","1","Kept","0.65,0.2","11","0.65","trustrating_stim/white_mw048.bmp","2.5","54","15"
"html-keyboard-response","181","213125","0.0-19.0-3.14","614fe09fec9ce4a2a415476d","bdp_trlrn","Tue Mar 14 2023 20:01:49 GMT-0500 (Central Daylight Time)","490327","Untrustworthy,Trustworthy","","null","","","","feedback","","<div class='trialDiv'><img src='trustrating_stim/white_mw048.bmp'><br><font class='baseline'><strong>Sebastian</strong><p>Received: <strong>20</strong></font> &nbsp; &nbsp; &nbsp; &nbsp; &nbsp; &nbsp;<font class='negOutcome'>Shared back: <strong>0</strong></font></font><div class='respPicDiv'><img src='img/responseButtonOffersNo0_wht.png' class='respPic'></div></div>","null","5","Sebastian","1","Kept","0.65,0.2","11","0.65","trustrating_stim/white_mw048.bmp","2.5","54","15"
"html-keyboard-response","182","213830","0.0-19.0-1.15","614fe09fec9ce4a2a415476d","bdp_trlrn","Tue Mar 14 2023 20:01:49 GMT-0500 (Central Daylight Time)","490327","Untrustworthy,Trustworthy","","704","","","","decision","","<div class='trialDiv'><img src='trustrating_stim/white_mw053.bmp'><br><font class='baseline'><strong>Jason</strong><p>Choose number of points to send.</font><div class='respPicDiv'><img src='img/responseButtonOffersNo0L.png' class='respPic'></div></div>","5","6","Jason","10","Kept","0.35,0.65","9","0.35","trustrating_stim/white_mw053.bmp","5.5","59","16"
"html-keyboard-response","183","214100","0.0-19.0-2.15","614fe09fec9ce4a2a415476d","bdp_trlrn","Tue Mar 14 2023 20:01:49 GMT-0500 (Central Daylight Time)","490327","Untrustworthy,Trustworthy","","null","","","","decisionFB","","<div class='trialDiv'><img src='trustrating_stim/white_mw053.bmp'><br><font class='baseline'><strong>Jason</strong><p>Choose number of points to send.</font><div class='respPicDiv'><img src='img/responseButtonOffersNo0L5.png' class='respPic'></div></div>","null","6","Jason","10","Kept","0.35,0.65","9","0.35","trustrating_stim/white_mw053.bmp","5.5","54","16"
"html-keyboard-response","184","215111","0.0-19.0-3.15","614fe09fec9ce4a2a415476d","bdp_trlrn","Tue Mar 14 2023 20:01:49 GMT-0500 (Central Daylight Time)","490327","Untrustworthy,Trustworthy","","null","","","","feedback","","<div class='trialDiv'><img src='trustrating_stim/white_mw053.bmp'><br><font class='baseline'><strong>Jason</strong><p>Received: <strong>20</strong></font> &nbsp; &nbsp; &nbsp; &nbsp; &nbsp; &nbsp;<font class='negOutcome'>Shared back: <strong>0</strong></font></font><div class='respPicDiv'><img src='img/responseButtonOffersNo0_wht.png' class='respPic'></div></div>","null","6","Jason","10","Kept","0.35,0.65","9","0.35","trustrating_stim/white_mw053.bmp","5.5","54","16"
"html-keyboard-response","185","215585","0.0-19.0-1.16","614fe09fec9ce4a2a415476d","bdp_trlrn","Tue Mar 14 2023 20:01:49 GMT-0500 (Central Daylight Time)","490327","Untrustworthy,Trustworthy","","473","","","","decision","","<div class='trialDiv'><img src='trustrating_stim/white_mw048.bmp'><br><font class='baseline'><strong>Sebastian</strong><p>Choose number of points to send.</font><div class='respPicDiv'><img src='img/responseButtonOffersNo0L.png' class='respPic'></div></div>","3","6","Sebastian","1","Shared","0.65,0.2","11","0.65","trustrating_stim/white_mw048.bmp","2.5","59","17"
"html-keyboard-response","186","215837","0.0-19.0-2.16","614fe09fec9ce4a2a415476d","bdp_trlrn","Tue Mar 14 2023 20:01:49 GMT-0500 (Central Daylight Time)","490327","Untrustworthy,Trustworthy","","null","","","","decisionFB","","<div class='trialDiv'><img src='trustrating_stim/white_mw048.bmp'><br><font class='baseline'><strong>Sebastian</strong><p>Choose number of points to send.</font><div class='respPicDiv'><img src='img/responseButtonOffersNo0L3.png' class='respPic'></div></div>","null","6","Sebastian","1","Shared","0.65,0.2","11","0.65","trustrating_stim/white_mw048.bmp","2.5","56","17"
"html-keyboard-response","187","216847","0.0-19.0-3.16","614fe09fec9ce4a2a415476d","bdp_trlrn","Tue Mar 14 2023 20:01:49 GMT-0500 (Central Daylight Time)","490327","Untrustworthy,Trustworthy","","null","","","","feedback","","<div class='trialDiv'><img src='trustrating_stim/white_mw048.bmp'><br><font class='baseline'><strong>Sebastian</strong><p>Received: <strong>12</strong></font> &nbsp; &nbsp; &nbsp; &nbsp; &nbsp; &nbsp;<font class='posOutcome'>Shared back: <strong>6</strong></font></font><div class='respPicDiv'><img src='img/responseButtonOffersNo0_wht.png' class='respPic'></div></div>","null","6","Sebastian","1","Shared","0.65,0.2","11","0.65","trustrating_stim/white_mw048.bmp","2.5","62","17"
"html-keyboard-response","188","218272","0.0-19.0-1.17","614fe09fec9ce4a2a415476d","bdp_trlrn","Tue Mar 14 2023 20:01:49 GMT-0500 (Central Daylight Time)","490327","Untrustworthy,Trustworthy","","1424","","","","decision","","<div class='trialDiv'><img src='trustrating_stim/white_00299_940422_fa_edt.bmp'><br><font class='baseline'><strong>Benjamin</strong><p>Choose number of points to send.</font><div class='respPicDiv'><img src='img/responseButtonOffersNo0L.png' class='respPic'></div></div>","1","6","Benjamin","5","Kept","0.2,0.65","12","0.2","trustrating_stim/white_00299_940422_fa_edt.bmp","4","67","18"
"html-keyboard-response","189","218524","0.0-19.0-2.17","614fe09fec9ce4a2a415476d","bdp_trlrn","Tue Mar 14 2023 20:01:49 GMT-0500 (Central Daylight Time)","490327","Untrustworthy,Trustworthy","","null","","","","decisionFB","","<div class='trialDiv'><img src='trustrating_stim/white_00299_940422_fa_edt.bmp'><br><font class='baseline'><strong>Benjamin</strong><p>Choose number of points to send.</font><div class='respPicDiv'><img src='img/responseButtonOffersNo0L1.png' class='respPic'></div></div>","null","6","Benjamin","5","Kept","0.2,0.65","12","0.2","trustrating_stim/white_00299_940422_fa_edt.bmp","4","66","18"
"html-keyboard-response","190","219535","0.0-19.0-3.17","614fe09fec9ce4a2a415476d","bdp_trlrn","Tue Mar 14 2023 20:01:49 GMT-0500 (Central Daylight Time)","490327","Untrustworthy,Trustworthy","","null","","","","feedback","","<div class='trialDiv'><img src='trustrating_stim/white_00299_940422_fa_edt.bmp'><br><font class='baseline'><strong>Benjamin</strong><p>Received: <strong>4</strong></font> &nbsp; &nbsp; &nbsp; &nbsp; &nbsp; &nbsp;<font class='negOutcome'>Shared back: <strong>0</strong></font></font><div class='respPicDiv'><img src='img/responseButtonOffersNo0_wht.png' class='respPic'></div></div>","null","6","Benjamin","5","Kept","0.2,0.65","12","0.2","trustrating_stim/white_00299_940422_fa_edt.bmp","4","66","18"
"html-keyboard-response","191","220024","0.0-19.0-1.18","614fe09fec9ce4a2a415476d","bdp_trlrn","Tue Mar 14 2023 20:01:49 GMT-0500 (Central Daylight Time)","490327","Untrustworthy,Trustworthy","","489","","","","decision","","<div class='trialDiv'><img src='trustrating_stim/white_mw048.bmp'><br><font class='baseline'><strong>Sebastian</strong><p>Choose number of points to send.</font><div class='respPicDiv'><img src='img/responseButtonOffersNo0L.png' class='respPic'></div></div>","3","7","Sebastian","1","Kept","0.65,0.2","11","0.65","trustrating_stim/white_mw048.bmp","2.5","71","19"
"html-keyboard-response","192","220277","0.0-19.0-2.18","614fe09fec9ce4a2a415476d","bdp_trlrn","Tue Mar 14 2023 20:01:49 GMT-0500 (Central Daylight Time)","490327","Untrustworthy,Trustworthy","","null","","","","decisionFB","","<div class='trialDiv'><img src='trustrating_stim/white_mw048.bmp'><br><font class='baseline'><strong>Sebastian</strong><p>Choose number of points to send.</font><div class='respPicDiv'><img src='img/responseButtonOffersNo0L3.png' class='respPic'></div></div>","null","7","Sebastian","1","Kept","0.65,0.2","11","0.65","trustrating_stim/white_mw048.bmp","2.5","68","19"
"html-keyboard-response","193","221288","0.0-19.0-3.18","614fe09fec9ce4a2a415476d","bdp_trlrn","Tue Mar 14 2023 20:01:49 GMT-0500 (Central Daylight Time)","490327","Untrustworthy,Trustworthy","","null","","","","feedback","","<div class='trialDiv'><img src='trustrating_stim/white_mw048.bmp'><br><font class='baseline'><strong>Sebastian</strong><p>Received: <strong>12</strong></font> &nbsp; &nbsp; &nbsp; &nbsp; &nbsp; &nbsp;<font class='negOutcome'>Shared back: <strong>0</strong></font></font><div class='respPicDiv'><img src='img/responseButtonOffersNo0_wht.png' class='respPic'></div></div>","null","7","Sebastian","1","Kept","0.65,0.2","11","0.65","trustrating_stim/white_mw048.bmp","2.5","68","19"
"html-keyboard-response","194","222242","0.0-19.0-1.19","614fe09fec9ce4a2a415476d","bdp_trlrn","Tue Mar 14 2023 20:01:49 GMT-0500 (Central Daylight Time)","490327","Untrustworthy,Trustworthy","","954","","","","decision","","<div class='trialDiv'><img src='trustrating_stim/white_00299_940422_fa_edt.bmp'><br><font class='baseline'><strong>Benjamin</strong><p>Choose number of points to send.</font><div class='respPicDiv'><img src='img/responseButtonOffersNo0L.png' class='respPic'></div></div>","1","7","Benjamin","5","Kept","0.2,0.65","12","0.2","trustrating_stim/white_00299_940422_fa_edt.bmp","4","73","20"
"html-keyboard-response","195","222504","0.0-19.0-2.19","614fe09fec9ce4a2a415476d","bdp_trlrn","Tue Mar 14 2023 20:01:49 GMT-0500 (Central Daylight Time)","490327","Untrustworthy,Trustworthy","","null","","","","decisionFB","","<div class='trialDiv'><img src='trustrating_stim/white_00299_940422_fa_edt.bmp'><br><font class='baseline'><strong>Benjamin</strong><p>Choose number of points to send.</font><div class='respPicDiv'><img src='img/responseButtonOffersNo0L1.png' class='respPic'></div></div>","null","7","Benjamin","5","Kept","0.2,0.65","12","0.2","trustrating_stim/white_00299_940422_fa_edt.bmp","4","72","20"
"html-keyboard-response","196","223510","0.0-19.0-3.19","614fe09fec9ce4a2a415476d","bdp_trlrn","Tue Mar 14 2023 20:01:49 GMT-0500 (Central Daylight Time)","490327","Untrustworthy,Trustworthy","","null","","","","feedback","","<div class='trialDiv'><img src='trustrating_stim/white_00299_940422_fa_edt.bmp'><br><font class='baseline'><strong>Benjamin</strong><p>Received: <strong>4</strong></font> &nbsp; &nbsp; &nbsp; &nbsp; &nbsp; &nbsp;<font class='negOutcome'>Shared back: <strong>0</strong></font></font><div class='respPicDiv'><img src='img/responseButtonOffersNo0_wht.png' class='respPic'></div></div>","null","7","Benjamin","5","Kept","0.2,0.65","12","0.2","trustrating_stim/white_00299_940422_fa_edt.bmp","4","72","20"
"html-keyboard-response","197","223991","0.0-19.0-1.20","614fe09fec9ce4a2a415476d","bdp_trlrn","Tue Mar 14 2023 20:01:49 GMT-0500 (Central Daylight Time)","490327","Untrustworthy,Trustworthy","","480","","","","decision","","<div class='trialDiv'><img src='trustrating_stim/white_mw053.bmp'><br><font class='baseline'><strong>Jason</strong><p>Choose number of points to send.</font><div class='respPicDiv'><img src='img/responseButtonOffersNo0L.png' class='respPic'></div></div>","3","7","Jason","10","Shared","0.35,0.65","9","0.35","trustrating_stim/white_mw053.bmp","5.5","77","21"
"html-keyboard-response","198","224248","0.0-19.0-2.20","614fe09fec9ce4a2a415476d","bdp_trlrn","Tue Mar 14 2023 20:01:49 GMT-0500 (Central Daylight Time)","490327","Untrustworthy,Trustworthy","","null","","","","decisionFB","","<div class='trialDiv'><img src='trustrating_stim/white_mw053.bmp'><br><font class='baseline'><strong>Jason</strong><p>Choose number of points to send.</font><div class='respPicDiv'><img src='img/responseButtonOffersNo0L3.png' class='respPic'></div></div>","null","7","Jason","10","Shared","0.35,0.65","9","0.35","trustrating_stim/white_mw053.bmp","5.5","74","21"
"html-keyboard-response","199","225253","0.0-19.0-3.20","614fe09fec9ce4a2a415476d","bdp_trlrn","Tue Mar 14 2023 20:01:49 GMT-0500 (Central Daylight Time)","490327","Untrustworthy,Trustworthy","","null","","","","feedback","","<div class='trialDiv'><img src='trustrating_stim/white_mw053.bmp'><br><font class='baseline'><strong>Jason</strong><p>Received: <strong>12</strong></font> &nbsp; &nbsp; &nbsp; &nbsp; &nbsp; &nbsp;<font class='posOutcome'>Shared back: <strong>6</strong></font></font><div class='respPicDiv'><img src='img/responseButtonOffersNo0_wht.png' class='respPic'></div></div>","null","7","Jason","10","Shared","0.35,0.65","9","0.35","trustrating_stim/white_mw053.bmp","5.5","80","21"
"html-keyboard-response","200","226308","0.0-19.0-1.21","614fe09fec9ce4a2a415476d","bdp_trlrn","Tue Mar 14 2023 20:01:49 GMT-0500 (Central Daylight Time)","490327","Untrustworthy,Trustworthy","","1054","","","","decision","","<div class='trialDiv'><img src='trustrating_stim/white_00299_940422_fa_edt.bmp'><br><font class='baseline'><strong>Benjamin</strong><p>Choose number of points to send.</font><div class='respPicDiv'><img src='img/responseButtonOffersNo0L.png' class='respPic'></div></div>","1","8","Benjamin","5","Kept","0.2,0.65","12","0.2","trustrating_stim/white_00299_940422_fa_edt.bmp","4","85","22"
"html-keyboard-response","201","226568","0.0-19.0-2.21","614fe09fec9ce4a2a415476d","bdp_trlrn","Tue Mar 14 2023 20:01:49 GMT-0500 (Central Daylight Time)","490327","Untrustworthy,Trustworthy","","null","","","","decisionFB","","<div class='trialDiv'><img src='trustrating_stim/white_00299_940422_fa_edt.bmp'><br><font class='baseline'><strong>Benjamin</strong><p>Choose number of points to send.</font><div class='respPicDiv'><img src='img/responseButtonOffersNo0L1.png' class='respPic'></div></div>","null","8","Benjamin","5","Kept","0.2,0.65","12","0.2","trustrating_stim/white_00299_940422_fa_edt.bmp","4","84","22"
"html-keyboard-response","202","227574","0.0-19.0-3.21","614fe09fec9ce4a2a415476d","bdp_trlrn","Tue Mar 14 2023 20:01:49 GMT-0500 (Central Daylight Time)","490327","Untrustworthy,Trustworthy","","null","","","","feedback","","<div class='trialDiv'><img src='trustrating_stim/white_00299_940422_fa_edt.bmp'><br><font class='baseline'><strong>Benjamin</strong><p>Received: <strong>4</strong></font> &nbsp; &nbsp; &nbsp; &nbsp; &nbsp; &nbsp;<font class='negOutcome'>Shared back: <strong>0</strong></font></font><div class='respPicDiv'><img src='img/responseButtonOffersNo0_wht.png' class='respPic'></div></div>","null","8","Benjamin","5","Kept","0.2,0.65","12","0.2","trustrating_stim/white_00299_940422_fa_edt.bmp","4","84","22"
"html-keyboard-response","203","228280","0.0-19.0-1.22","614fe09fec9ce4a2a415476d","bdp_trlrn","Tue Mar 14 2023 20:01:49 GMT-0500 (Central Daylight Time)","490327","Untrustworthy,Trustworthy","","705","","","","decision","","<div class='trialDiv'><img src='trustrating_stim/white_mw048.bmp'><br><font class='baseline'><strong>Sebastian</strong><p>Choose number of points to send.</font><div class='respPicDiv'><img src='img/responseButtonOffersNo0L.png' class='respPic'></div></div>","2","8","Sebastian","1","Shared","0.65,0.2","11","0.65","trustrating_stim/white_mw048.bmp","2.5","89","23"
"html-keyboard-response","204","228532","0.0-19.0-2.22","614fe09fec9ce4a2a415476d","bdp_trlrn","Tue Mar 14 2023 20:01:49 GMT-0500 (Central Daylight Time)","490327","Untrustworthy,Trustworthy","","null","","","","decisionFB","","<div class='trialDiv'><img src='trustrating_stim/white_mw048.bmp'><br><font class='baseline'><strong>Sebastian</strong><p>Choose number of points to send.</font><div class='respPicDiv'><img src='img/responseButtonOffersNo0L2.png' class='respPic'></div></div>","null","8","Sebastian","1","Shared","0.65,0.2","11","0.65","trustrating_stim/white_mw048.bmp","2.5","87","23"
"html-keyboard-response","205","229541","0.0-19.0-3.22","614fe09fec9ce4a2a415476d","bdp_trlrn","Tue Mar 14 2023 20:01:49 GMT-0500 (Central Daylight Time)","490327","Untrustworthy,Trustworthy","","null","","","","feedback","","<div class='trialDiv'><img src='trustrating_stim/white_mw048.bmp'><br><font class='baseline'><strong>Sebastian</strong><p>Received: <strong>8</strong></font> &nbsp; &nbsp; &nbsp; &nbsp; &nbsp; &nbsp;<font class='posOutcome'>Shared back: <strong>4</strong></font></font><div class='respPicDiv'><img src='img/responseButtonOffersNo0_wht.png' class='respPic'></div></div>","null","8","Sebastian","1","Shared","0.65,0.2","11","0.65","trustrating_stim/white_mw048.bmp","2.5","91","23"
"html-keyboard-response","206","230955","0.0-19.0-1.23","614fe09fec9ce4a2a415476d","bdp_trlrn","Tue Mar 14 2023 20:01:49 GMT-0500 (Central Daylight Time)","490327","Untrustworthy,Trustworthy","","1413","","","","decision","","<div class='trialDiv'><img src='trustrating_stim/white_mw053.bmp'><br><font class='baseline'><strong>Jason</strong><p>Choose number of points to send.</font><div class='respPicDiv'><img src='img/responseButtonOffersNo0L.png' class='respPic'></div></div>","3","8","Jason","10","Kept","0.35,0.65","9","0.35","trustrating_stim/white_mw053.bmp","5.5","96","24"
"html-keyboard-response","207","231213","0.0-19.0-2.23","614fe09fec9ce4a2a415476d","bdp_trlrn","Tue Mar 14 2023 20:01:49 GMT-0500 (Central Daylight Time)","490327","Untrustworthy,Trustworthy","","null","","","","decisionFB","","<div class='trialDiv'><img src='trustrating_stim/white_mw053.bmp'><br><font class='baseline'><strong>Jason</strong><p>Choose number of points to send.</font><div class='respPicDiv'><img src='img/responseButtonOffersNo0L3.png' class='respPic'></div></div>","null","8","Jason","10","Kept","0.35,0.65","9","0.35","trustrating_stim/white_mw053.bmp","5.5","93","24"
"html-keyboard-response","208","232224","0.0-19.0-3.23","614fe09fec9ce4a2a415476d","bdp_trlrn","Tue Mar 14 2023 20:01:49 GMT-0500 (Central Daylight Time)","490327","Untrustworthy,Trustworthy","","null","","","","feedback","","<div class='trialDiv'><img src='trustrating_stim/white_mw053.bmp'><br><font class='baseline'><strong>Jason</strong><p>Received: <strong>12</strong></font> &nbsp; &nbsp; &nbsp; &nbsp; &nbsp; &nbsp;<font class='negOutcome'>Shared back: <strong>0</strong></font></font><div class='respPicDiv'><img src='img/responseButtonOffersNo0_wht.png' class='respPic'></div></div>","null","8","Jason","10","Kept","0.35,0.65","9","0.35","trustrating_stim/white_mw053.bmp","5.5","93","24"
"html-keyboard-response","209","232737","0.0-19.0-1.24","614fe09fec9ce4a2a415476d","bdp_trlrn","Tue Mar 14 2023 20:01:49 GMT-0500 (Central Daylight Time)","490327","Untrustworthy,Trustworthy","","512","","","","decision","","<div class='trialDiv'><img src='trustrating_stim/white_mw048.bmp'><br><font class='baseline'><strong>Sebastian</strong><p>Choose number of points to send.</font><div class='respPicDiv'><img src='img/responseButtonOffersNo0L.png' class='respPic'></div></div>","2","9","Sebastian","1","Shared","0.65,0.2","11","0.65","trustrating_stim/white_mw048.bmp","2.5","98","25"
"html-keyboard-response","210","232989","0.0-19.0-2.24","614fe09fec9ce4a2a415476d","bdp_trlrn","Tue Mar 14 2023 20:01:49 GMT-0500 (Central Daylight Time)","490327","Untrustworthy,Trustworthy","","null","","","","decisionFB","","<div class='trialDiv'><img src='trustrating_stim/white_mw048.bmp'><br><font class='baseline'><strong>Sebastian</strong><p>Choose number of points to send.</font><div class='respPicDiv'><img src='img/responseButtonOffersNo0L2.png' class='respPic'></div></div>","null","9","Sebastian","1","Shared","0.65,0.2","11","0.65","trustrating_stim/white_mw048.bmp","2.5","96","25"
"html-keyboard-response","211","234001","0.0-19.0-3.24","614fe09fec9ce4a2a415476d","bdp_trlrn","Tue Mar 14 2023 20:01:49 GMT-0500 (Central Daylight Time)","490327","Untrustworthy,Trustworthy","","null","","","","feedback","","<div class='trialDiv'><img src='trustrating_stim/white_mw048.bmp'><br><font class='baseline'><strong>Sebastian</strong><p>Received: <strong>8</strong></font> &nbsp; &nbsp; &nbsp; &nbsp; &nbsp; &nbsp;<font class='posOutcome'>Shared back: <strong>4</strong></font></font><div class='respPicDiv'><img src='img/responseButtonOffersNo0_wht.png' class='respPic'></div></div>","null","9","Sebastian","1","Shared","0.65,0.2","11","0.65","trustrating_stim/white_mw048.bmp","2.5","100","25"
"html-keyboard-response","212","235183","0.0-19.0-1.25","614fe09fec9ce4a2a415476d","bdp_trlrn","Tue Mar 14 2023 20:01:49 GMT-0500 (Central Daylight Time)","490327","Untrustworthy,Trustworthy","","1182","","","","decision","","<div class='trialDiv'><img src='trustrating_stim/white_mw053.bmp'><br><font class='baseline'><strong>Jason</strong><p>Choose number of points to send.</font><div class='respPicDiv'><img src='img/responseButtonOffersNo0L.png' class='respPic'></div></div>","3","9","Jason","10","Shared","0.35,0.65","9","0.35","trustrating_stim/white_mw053.bmp","5.5","105","26"
"html-keyboard-response","213","235440","0.0-19.0-2.25","614fe09fec9ce4a2a415476d","bdp_trlrn","Tue Mar 14 2023 20:01:49 GMT-0500 (Central Daylight Time)","490327","Untrustworthy,Trustworthy","","null","","","","decisionFB","","<div class='trialDiv'><img src='trustrating_stim/white_mw053.bmp'><br><font class='baseline'><strong>Jason</strong><p>Choose number of points to send.</font><div class='respPicDiv'><img src='img/responseButtonOffersNo0L3.png' class='respPic'></div></div>","null","9","Jason","10","Shared","0.35,0.65","9","0.35","trustrating_stim/white_mw053.bmp","5.5","102","26"
"html-keyboard-response","214","236444","0.0-19.0-3.25","614fe09fec9ce4a2a415476d","bdp_trlrn","Tue Mar 14 2023 20:01:49 GMT-0500 (Central Daylight Time)","490327","Untrustworthy,Trustworthy","","null","","","","feedback","","<div class='trialDiv'><img src='trustrating_stim/white_mw053.bmp'><br><font class='baseline'><strong>Jason</strong><p>Received: <strong>12</strong></font> &nbsp; &nbsp; &nbsp; &nbsp; &nbsp; &nbsp;<font class='posOutcome'>Shared back: <strong>6</strong></font></font><div class='respPicDiv'><img src='img/responseButtonOffersNo0_wht.png' class='respPic'></div></div>","null","9","Jason","10","Shared","0.35,0.65","9","0.35","trustrating_stim/white_mw053.bmp","5.5","108","26"
"html-keyboard-response","215","236980","0.0-19.0-1.26","614fe09fec9ce4a2a415476d","bdp_trlrn","Tue Mar 14 2023 20:01:49 GMT-0500 (Central Daylight Time)","490327","Untrustworthy,Trustworthy","","535","","","","decision","","<div class='trialDiv'><img src='trustrating_stim/white_00299_940422_fa_edt.bmp'><br><font class='baseline'><strong>Benjamin</strong><p>Choose number of points to send.</font><div class='respPicDiv'><img src='img/responseButtonOffersNo0L.png' class='respPic'></div></div>","1","9","Benjamin","5","Shared","0.2,0.65","12","0.2","trustrating_stim/white_00299_940422_fa_edt.bmp","4","113","27"
"html-keyboard-response","216","237240","0.0-19.0-2.26","614fe09fec9ce4a2a415476d","bdp_trlrn","Tue Mar 14 2023 20:01:49 GMT-0500 (Central Daylight Time)","490327","Untrustworthy,Trustworthy","","null","","","","decisionFB","","<div class='trialDiv'><img src='trustrating_stim/white_00299_940422_fa_edt.bmp'><br><font class='baseline'><strong>Benjamin</strong><p>Choose number of points to send.</font><div class='respPicDiv'><img src='img/responseButtonOffersNo0L1.png' class='respPic'></div></div>","null","9","Benjamin","5","Shared","0.2,0.65","12","0.2","trustrating_stim/white_00299_940422_fa_edt.bmp","4","112","27"
"html-keyboard-response","217","238245","0.0-19.0-3.26","614fe09fec9ce4a2a415476d","bdp_trlrn","Tue Mar 14 2023 20:01:49 GMT-0500 (Central Daylight Time)","490327","Untrustworthy,Trustworthy","","null","","","","feedback","","<div class='trialDiv'><img src='trustrating_stim/white_00299_940422_fa_edt.bmp'><br><font class='baseline'><strong>Benjamin</strong><p>Received: <strong>4</strong></font> &nbsp; &nbsp; &nbsp; &nbsp; &nbsp; &nbsp;<font class='posOutcome'>Shared back: <strong>2</strong></font></font><div class='respPicDiv'><img src='img/responseButtonOffersNo0_wht.png' class='respPic'></div></div>","null","9","Benjamin","5","Shared","0.2,0.65","12","0.2","trustrating_stim/white_00299_940422_fa_edt.bmp","4","114","27"
"html-keyboard-response","218","239841","0.0-19.0-1.27","614fe09fec9ce4a2a415476d","bdp_trlrn","Tue Mar 14 2023 20:01:49 GMT-0500 (Central Daylight Time)","490327","Untrustworthy,Trustworthy","","1596","","","","decision","","<div class='trialDiv'><img src='trustrating_stim/white_mw048.bmp'><br><font class='baseline'><strong>Sebastian</strong><p>Choose number of points to send.</font><div class='respPicDiv'><img src='img/responseButtonOffersNo0L.png' class='respPic'></div></div>","2","10","Sebastian","1","Shared","0.65,0.2","11","0.65","trustrating_stim/white_mw048.bmp","2.5","119","28"
"html-keyboard-response","219","240096","0.0-19.0-2.27","614fe09fec9ce4a2a415476d","bdp_trlrn","Tue Mar 14 2023 20:01:49 GMT-0500 (Central Daylight Time)","490327","Untrustworthy,Trustworthy","","null","","","","decisionFB","","<div class='trialDiv'><img src='trustrating_stim/white_mw048.bmp'><br><font class='baseline'><strong>Sebastian</strong><p>Choose number of points to send.</font><div class='respPicDiv'><img src='img/responseButtonOffersNo0L2.png' class='respPic'></div></div>","null","10","Sebastian","1","Shared","0.65,0.2","11","0.65","trustrating_stim/white_mw048.bmp","2.5","117","28"
"html-keyboard-response","220","241101","0.0-19.0-3.27","614fe09fec9ce4a2a415476d","bdp_trlrn","Tue Mar 14 2023 20:01:49 GMT-0500 (Central Daylight Time)","490327","Untrustworthy,Trustworthy","","null","","","","feedback","","<div class='trialDiv'><img src='trustrating_stim/white_mw048.bmp'><br><font class='baseline'><strong>Sebastian</strong><p>Received: <strong>8</strong></font> &nbsp; &nbsp; &nbsp; &nbsp; &nbsp; &nbsp;<font class='posOutcome'>Shared back: <strong>4</strong></font></font><div class='respPicDiv'><img src='img/responseButtonOffersNo0_wht.png' class='respPic'></div></div>","null","10","Sebastian","1","Shared","0.65,0.2","11","0.65","trustrating_stim/white_mw048.bmp","2.5","121","28"
