"trial_type","trial_index","time_elapsed","internal_node_id","subject_id","task","startTime","totalTime","labels","event","trial","time","trialtype","view_history","rt","success","stimulus","key_press","aground","name","faceID","outcome","agenttype","agentswpt","agentcurrpshare","face","avgRating","point_total","round"
"pavlovia","0","1","0.0-0.0","63ecff07b619306f41db42fa","bdp_trlrn","Wed Mar 15 2023 20:30:30 GMT-0700 (Pacific Daylight Time)","642286","Trustworthy,Untrustworthy","","","","","","","","","","","","","","","","","","","",""
"","","","","63ecff07b619306f41db42fa","bdp_trlrn","Wed Mar 15 2023 20:30:30 GMT-0700 (Pacific Daylight Time)","642286","Trustworthy,Untrustworthy","focus","1","7060","focusevent","","","","","","","","","","","","","","","",""
"instructions","1","9113","0.0-1.0","63ecff07b619306f41db42fa","bdp_trlrn","Wed Mar 15 2023 20:30:30 GMT-0700 (Pacific Daylight Time)","642286","Trustworthy,Untrustworthy","","","","","[{""page_index"":0,""viewing_time"":9111}]","9112","","","","","","","","","","","","","",""
"","","","","63ecff07b619306f41db42fa","bdp_trlrn","Wed Mar 15 2023 20:30:30 GMT-0700 (Pacific Daylight Time)","642286","Trustworthy,Untrustworthy","fullscreenenter","2","15448","fullscreenenter","","","","","","","","","","","","","","","",""
"fullscreen","2","16440","0.0-2.0","63ecff07b619306f41db42fa","bdp_trlrn","Wed Mar 15 2023 20:30:30 GMT-0700 (Pacific Daylight Time)","642286","Trustworthy,Untrustworthy","","","","","","","true","","","","","","","","","","","","",""
"instructions","3","46838","0.0-4.0","63ecff07b619306f41db42fa","bdp_trlrn","Wed Mar 15 2023 20:30:30 GMT-0700 (Pacific Daylight Time)","642286","Trustworthy,Untrustworthy","","","","","[{""page_index"":0,""viewing_time"":14119},{""page_index"":1,""viewing_time"":16279}]","30398","","","","","","","","","","","","","",""
"instructions","4","48219","0.0-5.0","63ecff07b619306f41db42fa","bdp_trlrn","Wed Mar 15 2023 20:30:30 GMT-0700 (Pacific Daylight Time)","642286","Trustworthy,Untrustworthy","","","","","[{""page_index"":0,""viewing_time"":1380}]","1380","","","","","","","","","","","","","",""
"image-keyboard-response","5","51094","0.0-6.0-1.0","63ecff07b619306f41db42fa","bdp_trlrn","Wed Mar 15 2023 20:30:30 GMT-0700 (Pacific Daylight Time)","642286","Trustworthy,Untrustworthy","","","","rating","","2766","","trustrating_stim/white_mw048.bmp","5","","","","","","","","","","",""
"image-keyboard-response","6","51299","0.0-6.0-2.0","63ecff07b619306f41db42fa","bdp_trlrn","Wed Mar 15 2023 20:30:30 GMT-0700 (Pacific Daylight Time)","642286","Trustworthy,Untrustworthy","","","","ratingFB","","null","","trustrating_stim/white_mw048.bmp","null","","","","","","","","","","",""
"image-keyboard-response","7","53105","0.0-6.0-1.1","63ecff07b619306f41db42fa","bdp_trlrn","Wed Mar 15 2023 20:30:30 GMT-0700 (Pacific Daylight Time)","642286","Trustworthy,Untrustworthy","","","","rating","","1702","","trustrating_stim/white_00807_941205_fb_edt.bmp","5","","","","","","","","","","",""
"image-keyboard-response","8","53317","0.0-6.0-2.1","63ecff07b619306f41db42fa","bdp_trlrn","Wed Mar 15 2023 20:30:30 GMT-0700 (Pacific Daylight Time)","642286","Trustworthy,Untrustworthy","","","","ratingFB","","null","","trustrating_stim/white_00807_941205_fb_edt.bmp","null","","","","","","","","","","",""
"image-keyboard-response","9","56842","0.0-6.0-1.2","63ecff07b619306f41db42fa","bdp_trlrn","Wed Mar 15 2023 20:30:30 GMT-0700 (Pacific Daylight Time)","642286","Trustworthy,Untrustworthy","","","","rating","","3416","","trustrating_stim/white_mw060.bmp","4","","","","","","","","","","",""
"image-keyboard-response","10","57058","0.0-6.0-2.2","63ecff07b619306f41db42fa","bdp_trlrn","Wed Mar 15 2023 20:30:30 GMT-0700 (Pacific Daylight Time)","642286","Trustworthy,Untrustworthy","","","","ratingFB","","null","","trustrating_stim/white_mw060.bmp","null","","","","","","","","","","",""
"image-keyboard-response","11","58729","0.0-6.0-1.3","63ecff07b619306f41db42fa","bdp_trlrn","Wed Mar 15 2023 20:30:30 GMT-0700 (Pacific Daylight Time)","642286","Trustworthy,Untrustworthy","","","","rating","","1569","","trustrating_stim/white_00785_941205_fb_edt.bmp","6","","","","","","","","","","",""
"image-keyboard-response","12","58941","0.0-6.0-2.3","63ecff07b619306f41db42fa","bdp_trlrn","Wed Mar 15 2023 20:30:30 GMT-0700 (Pacific Daylight Time)","642286","Trustworthy,Untrustworthy","","","","ratingFB","","null","","trustrating_stim/white_00785_941205_fb_edt.bmp","null","","","","","","","","","","",""
"image-keyboard-response","13","60489","0.0-6.0-1.4","63ecff07b619306f41db42fa","bdp_trlrn","Wed Mar 15 2023 20:30:30 GMT-0700 (Pacific Daylight Time)","642286","Trustworthy,Untrustworthy","","","","rating","","1446","","trustrating_stim/white_00602_940928_fb_edt.bmp","8","","","","","","","","","","",""
"image-keyboard-response","14","60692","0.0-6.0-2.4","63ecff07b619306f41db42fa","bdp_trlrn","Wed Mar 15 2023 20:30:30 GMT-0700 (Pacific Daylight Time)","642286","Trustworthy,Untrustworthy","","","","ratingFB","","null","","trustrating_stim/white_00602_940928_fb_edt.bmp","null","","","","","","","","","","",""
"image-keyboard-response","15","62658","0.0-6.0-1.5","63ecff07b619306f41db42fa","bdp_trlrn","Wed Mar 15 2023 20:30:30 GMT-0700 (Pacific Daylight Time)","642286","Trustworthy,Untrustworthy","","","","rating","","1865","","trustrating_stim/white_mw099.bmp","6","","","","","","","","","","",""
"image-keyboard-response","16","62874","0.0-6.0-2.5","63ecff07b619306f41db42fa","bdp_trlrn","Wed Mar 15 2023 20:30:30 GMT-0700 (Pacific Daylight Time)","642286","Trustworthy,Untrustworthy","","","","ratingFB","","null","","trustrating_stim/white_mw099.bmp","null","","","","","","","","","","",""
"image-keyboard-response","17","64385","0.0-6.0-1.6","63ecff07b619306f41db42fa","bdp_trlrn","Wed Mar 15 2023 20:30:30 GMT-0700 (Pacific Daylight Time)","642286","Trustworthy,Untrustworthy","","","","rating","","1410","","trustrating_stim/white_mw071.bmp","8","","","","","","","","","","",""
"image-keyboard-response","18","64600","0.0-6.0-2.6","63ecff07b619306f41db42fa","bdp_trlrn","Wed Mar 15 2023 20:30:30 GMT-0700 (Pacific Daylight Time)","642286","Trustworthy,Untrustworthy","","","","ratingFB","","null","","trustrating_stim/white_mw071.bmp","null","","","","","","","","","","",""
"image-keyboard-response","19","66169","0.0-6.0-1.7","63ecff07b619306f41db42fa","bdp_trlrn","Wed Mar 15 2023 20:30:30 GMT-0700 (Pacific Daylight Time)","642286","Trustworthy,Untrustworthy","","","","rating","","1458","","trustrating_stim/white_00898_960530_fa_edt.bmp","5","","","","","","","","","","",""
"image-keyboard-response","20","66383","0.0-6.0-2.7","63ecff07b619306f41db42fa","bdp_trlrn","Wed Mar 15 2023 20:30:30 GMT-0700 (Pacific Daylight Time)","642286","Trustworthy,Untrustworthy","","","","ratingFB","","null","","trustrating_stim/white_00898_960530_fa_edt.bmp","null","","","","","","","","","","",""
"image-keyboard-response","21","67979","0.0-6.0-1.8","63ecff07b619306f41db42fa","bdp_trlrn","Wed Mar 15 2023 20:30:30 GMT-0700 (Pacific Daylight Time)","642286","Trustworthy,Untrustworthy","","","","rating","","1487","","trustrating_stim/white_mw063.bmp","6","","","","","","","","","","",""
"image-keyboard-response","22","68191","0.0-6.0-2.8","63ecff07b619306f41db42fa","bdp_trlrn","Wed Mar 15 2023 20:30:30 GMT-0700 (Pacific Daylight Time)","642286","Trustworthy,Untrustworthy","","","","ratingFB","","null","","trustrating_stim/white_mw063.bmp","null","","","","","","","","","","",""
"image-keyboard-response","23","69533","0.0-6.0-1.9","63ecff07b619306f41db42fa","bdp_trlrn","Wed Mar 15 2023 20:30:30 GMT-0700 (Pacific Daylight Time)","642286","Trustworthy,Untrustworthy","","","","rating","","1241","","trustrating_stim/white_00577_940928_fa_edt.bmp","8","","","","","","","","","","",""
"image-keyboard-response","24","69735","0.0-6.0-2.9","63ecff07b619306f41db42fa","bdp_trlrn","Wed Mar 15 2023 20:30:30 GMT-0700 (Pacific Daylight Time)","642286","Trustworthy,Untrustworthy","","","","ratingFB","","null","","trustrating_stim/white_00577_940928_fa_edt.bmp","null","","","","","","","","","","",""
"image-keyboard-response","25","71282","0.0-6.0-1.10","63ecff07b619306f41db42fa","bdp_trlrn","Wed Mar 15 2023 20:30:30 GMT-0700 (Pacific Daylight Time)","642286","Trustworthy,Untrustworthy","","","","rating","","1437","","trustrating_stim/white_mw056.bmp","5","","","","","","","","","","",""
"image-keyboard-response","26","71499","0.0-6.0-2.10","63ecff07b619306f41db42fa","bdp_trlrn","Wed Mar 15 2023 20:30:30 GMT-0700 (Pacific Daylight Time)","642286","Trustworthy,Untrustworthy","","","","ratingFB","","null","","trustrating_stim/white_mw056.bmp","null","","","","","","","","","","",""
"image-keyboard-response","27","73186","0.0-6.0-1.11","63ecff07b619306f41db42fa","bdp_trlrn","Wed Mar 15 2023 20:30:30 GMT-0700 (Pacific Daylight Time)","642286","Trustworthy,Untrustworthy","","","","rating","","1586","","trustrating_stim/white_00223_940128_fb_edt.bmp","6","","","","","","","","","","",""
"image-keyboard-response","28","73397","0.0-6.0-2.11","63ecff07b619306f41db42fa","bdp_trlrn","Wed Mar 15 2023 20:30:30 GMT-0700 (Pacific Daylight Time)","642286","Trustworthy,Untrustworthy","","","","ratingFB","","null","","trustrating_stim/white_00223_940128_fb_edt.bmp","null","","","","","","","","","","",""
"image-keyboard-response","29","74717","0.0-6.0-1.12","63ecff07b619306f41db42fa","bdp_trlrn","Wed Mar 15 2023 20:30:30 GMT-0700 (Pacific Daylight Time)","642286","Trustworthy,Untrustworthy","","","","rating","","1219","","trustrating_stim/white_00129_931230_fb_edt.bmp","8","","","","","","","","","","",""
"image-keyboard-response","30","74920","0.0-6.0-2.12","63ecff07b619306f41db42fa","bdp_trlrn","Wed Mar 15 2023 20:30:30 GMT-0700 (Pacific Daylight Time)","642286","Trustworthy,Untrustworthy","","","","ratingFB","","null","","trustrating_stim/white_00129_931230_fb_edt.bmp","null","","","","","","","","","","",""
"image-keyboard-response","31","75965","0.0-6.0-1.13","63ecff07b619306f41db42fa","bdp_trlrn","Wed Mar 15 2023 20:30:30 GMT-0700 (Pacific Daylight Time)","642286","Trustworthy,Untrustworthy","","","","rating","","944","","trustrating_stim/white_mw066.bmp","8","","","","","","","","","","",""
"image-keyboard-response","32","76173","0.0-6.0-2.13","63ecff07b619306f41db42fa","bdp_trlrn","Wed Mar 15 2023 20:30:30 GMT-0700 (Pacific Daylight Time)","642286","Trustworthy,Untrustworthy","","","","ratingFB","","null","","trustrating_stim/white_mw066.bmp","null","","","","","","","","","","",""
"image-keyboard-response","33","77706","0.0-6.0-1.14","63ecff07b619306f41db42fa","bdp_trlrn","Wed Mar 15 2023 20:30:30 GMT-0700 (Pacific Daylight Time)","642286","Trustworthy,Untrustworthy","","","","rating","","1431","","trustrating_stim/white_00659_941121_fa_edt.bmp","4","","","","","","","","","","",""
"image-keyboard-response","34","77908","0.0-6.0-2.14","63ecff07b619306f41db42fa","bdp_trlrn","Wed Mar 15 2023 20:30:30 GMT-0700 (Pacific Daylight Time)","642286","Trustworthy,Untrustworthy","","","","ratingFB","","null","","trustrating_stim/white_00659_941121_fa_edt.bmp","null","","","","","","","","","","",""
"image-keyboard-response","35","79425","0.0-6.0-1.15","63ecff07b619306f41db42fa","bdp_trlrn","Wed Mar 15 2023 20:30:30 GMT-0700 (Pacific Daylight Time)","642286","Trustworthy,Untrustworthy","","","","rating","","1415","","trustrating_stim/white_00120_931230_fa_edt.bmp","7","","","","","","","","","","",""
"image-keyboard-response","36","79638","0.0-6.0-2.15","63ecff07b619306f41db42fa","bdp_trlrn","Wed Mar 15 2023 20:30:30 GMT-0700 (Pacific Daylight Time)","642286","Trustworthy,Untrustworthy","","","","ratingFB","","null","","trustrating_stim/white_00120_931230_fa_edt.bmp","null","","","","","","","","","","",""
"image-keyboard-response","37","80961","0.0-6.0-1.16","63ecff07b619306f41db42fa","bdp_trlrn","Wed Mar 15 2023 20:30:30 GMT-0700 (Pacific Daylight Time)","642286","Trustworthy,Untrustworthy","","","","rating","","1213","","trustrating_stim/white_mw049.bmp","8","","","","","","","","","","",""
"image-keyboard-response","38","81167","0.0-6.0-2.16","63ecff07b619306f41db42fa","bdp_trlrn","Wed Mar 15 2023 20:30:30 GMT-0700 (Pacific Daylight Time)","642286","Trustworthy,Untrustworthy","","","","ratingFB","","null","","trustrating_stim/white_mw049.bmp","null","","","","","","","","","","",""
"image-keyboard-response","39","82550","0.0-6.0-1.17","63ecff07b619306f41db42fa","bdp_trlrn","Wed Mar 15 2023 20:30:30 GMT-0700 (Pacific Daylight Time)","642286","Trustworthy,Untrustworthy","","","","rating","","1280","","trustrating_stim/white_00761_941201_fb_edt.bmp","7","","","","","","","","","","",""
"image-keyboard-response","40","82755","0.0-6.0-2.17","63ecff07b619306f41db42fa","bdp_trlrn","Wed Mar 15 2023 20:30:30 GMT-0700 (Pacific Daylight Time)","642286","Trustworthy,Untrustworthy","","","","ratingFB","","null","","trustrating_stim/white_00761_941201_fb_edt.bmp","null","","","","","","","","","","",""
"image-keyboard-response","41","84006","0.0-6.0-1.18","63ecff07b619306f41db42fa","bdp_trlrn","Wed Mar 15 2023 20:30:30 GMT-0700 (Pacific Daylight Time)","642286","Trustworthy,Untrustworthy","","","","rating","","1142","","trustrating_stim/white_00519_940519_fb_edt.bmp","8","","","","","","","","","","",""
"image-keyboard-response","42","84215","0.0-6.0-2.18","63ecff07b619306f41db42fa","bdp_trlrn","Wed Mar 15 2023 20:30:30 GMT-0700 (Pacific Daylight Time)","642286","Trustworthy,Untrustworthy","","","","ratingFB","","null","","trustrating_stim/white_00519_940519_fb_edt.bmp","null","","","","","","","","","","",""
"image-keyboard-response","43","85366","0.0-6.0-1.19","63ecff07b619306f41db42fa","bdp_trlrn","Wed Mar 15 2023 20:30:30 GMT-0700 (Pacific Daylight Time)","642286","Trustworthy,Untrustworthy","","","","rating","","1049","","trustrating_stim/white_mw053.bmp","7","","","","","","","","","","",""
"image-keyboard-response","44","85571","0.0-6.0-2.19","63ecff07b619306f41db42fa","bdp_trlrn","Wed Mar 15 2023 20:30:30 GMT-0700 (Pacific Daylight Time)","642286","Trustworthy,Untrustworthy","","","","ratingFB","","null","","trustrating_stim/white_mw053.bmp","null","","","","","","","","","","",""
"image-keyboard-response","45","87241","0.0-6.0-1.20","63ecff07b619306f41db42fa","bdp_trlrn","Wed Mar 15 2023 20:30:30 GMT-0700 (Pacific Daylight Time)","642286","Trustworthy,Untrustworthy","","","","rating","","1568","","trustrating_stim/white_mw097.bmp","7","","","","","","","","","","",""
"image-keyboard-response","46","87456","0.0-6.0-2.20","63ecff07b619306f41db42fa","bdp_trlrn","Wed Mar 15 2023 20:30:30 GMT-0700 (Pacific Daylight Time)","642286","Trustworthy,Untrustworthy","","","","ratingFB","","null","","trustrating_stim/white_mw097.bmp","null","","","","","","","","","","",""
"image-keyboard-response","47","88557","0.0-6.0-1.21","63ecff07b619306f41db42fa","bdp_trlrn","Wed Mar 15 2023 20:30:30 GMT-0700 (Pacific Daylight Time)","642286","Trustworthy,Untrustworthy","","","","rating","","985","","trustrating_stim/white_mw035.bmp","7","","","","","","","","","","",""
"image-keyboard-response","48","88759","0.0-6.0-2.21","63ecff07b619306f41db42fa","bdp_trlrn","Wed Mar 15 2023 20:30:30 GMT-0700 (Pacific Daylight Time)","642286","Trustworthy,Untrustworthy","","","","ratingFB","","null","","trustrating_stim/white_mw035.bmp","null","","","","","","","","","","",""
"image-keyboard-response","49","90509","0.0-6.0-1.22","63ecff07b619306f41db42fa","bdp_trlrn","Wed Mar 15 2023 20:30:30 GMT-0700 (Pacific Daylight Time)","642286","Trustworthy,Untrustworthy","","","","rating","","1648","","trustrating_stim/white_mw084.bmp","6","","","","","","","","","","",""
"image-keyboard-response","50","90722","0.0-6.0-2.22","63ecff07b619306f41db42fa","bdp_trlrn","Wed Mar 15 2023 20:30:30 GMT-0700 (Pacific Daylight Time)","642286","Trustworthy,Untrustworthy","","","","ratingFB","","null","","trustrating_stim/white_mw084.bmp","null","","","","","","","","","","",""
"image-keyboard-response","51","91707","0.0-6.0-1.23","63ecff07b619306f41db42fa","bdp_trlrn","Wed Mar 15 2023 20:30:30 GMT-0700 (Pacific Daylight Time)","642286","Trustworthy,Untrustworthy","","","","rating","","876","","trustrating_stim/white_mw046.bmp","8","","","","","","","","","","",""
"image-keyboard-response","52","91922","0.0-6.0-2.23","63ecff07b619306f41db42fa","bdp_trlrn","Wed Mar 15 2023 20:30:30 GMT-0700 (Pacific Daylight Time)","642286","Trustworthy,Untrustworthy","","","","ratingFB","","null","","trustrating_stim/white_mw046.bmp","null","","","","","","","","","","",""
"image-keyboard-response","53","93114","0.0-6.0-1.24","63ecff07b619306f41db42fa","bdp_trlrn","Wed Mar 15 2023 20:30:30 GMT-0700 (Pacific Daylight Time)","642286","Trustworthy,Untrustworthy","","","","rating","","1091","","trustrating_stim/white_mw089.bmp","7","","","","","","","","","","",""
"image-keyboard-response","54","93328","0.0-6.0-2.24","63ecff07b619306f41db42fa","bdp_trlrn","Wed Mar 15 2023 20:30:30 GMT-0700 (Pacific Daylight Time)","642286","Trustworthy,Untrustworthy","","","","ratingFB","","null","","trustrating_stim/white_mw089.bmp","null","","","","","","","","","","",""
"image-keyboard-response","55","95262","0.0-6.0-1.25","63ecff07b619306f41db42fa","bdp_trlrn","Wed Mar 15 2023 20:30:30 GMT-0700 (Pacific Daylight Time)","642286","Trustworthy,Untrustworthy","","","","rating","","1821","","trustrating_stim/white_00299_940422_fa_edt.bmp","7","","","","","","","","","","",""
"image-keyboard-response","56","95468","0.0-6.0-2.25","63ecff07b619306f41db42fa","bdp_trlrn","Wed Mar 15 2023 20:30:30 GMT-0700 (Pacific Daylight Time)","642286","Trustworthy,Untrustworthy","","","","ratingFB","","null","","trustrating_stim/white_00299_940422_fa_edt.bmp","null","","","","","","","","","","",""
"image-keyboard-response","57","96818","0.0-6.0-1.26","63ecff07b619306f41db42fa","bdp_trlrn","Wed Mar 15 2023 20:30:30 GMT-0700 (Pacific Daylight Time)","642286","Trustworthy,Untrustworthy","","","","rating","","1241","","trustrating_stim/white_00109_931230_fa_edt.bmp","6","","","","","","","","","","",""
"image-keyboard-response","58","97022","0.0-6.0-2.26","63ecff07b619306f41db42fa","bdp_trlrn","Wed Mar 15 2023 20:30:30 GMT-0700 (Pacific Daylight Time)","642286","Trustworthy,Untrustworthy","","","","ratingFB","","null","","trustrating_stim/white_00109_931230_fa_edt.bmp","null","","","","","","","","","","",""
"image-keyboard-response","59","99014","0.0-6.0-1.27","63ecff07b619306f41db42fa","bdp_trlrn","Wed Mar 15 2023 20:30:30 GMT-0700 (Pacific Daylight Time)","642286","Trustworthy,Untrustworthy","","","","rating","","1883","","trustrating_stim/white_00757_941201_fa_edt.bmp","6","","","","","","","","","","",""
"image-keyboard-response","60","99217","0.0-6.0-2.27","63ecff07b619306f41db42fa","bdp_trlrn","Wed Mar 15 2023 20:30:30 GMT-0700 (Pacific Daylight Time)","642286","Trustworthy,Untrustworthy","","","","ratingFB","","null","","trustrating_stim/white_00757_941201_fa_edt.bmp","null","","","","","","","","","","",""
"image-keyboard-response","61","100438","0.0-6.0-1.28","63ecff07b619306f41db42fa","bdp_trlrn","Wed Mar 15 2023 20:30:30 GMT-0700 (Pacific Daylight Time)","642286","Trustworthy,Untrustworthy","","","","rating","","1112","","trustrating_stim/white_00340_940422_fa_edt.bmp","6","","","","","","","","","","",""
"image-keyboard-response","62","100644","0.0-6.0-2.28","63ecff07b619306f41db42fa","bdp_trlrn","Wed Mar 15 2023 20:30:30 GMT-0700 (Pacific Daylight Time)","642286","Trustworthy,Untrustworthy","","","","ratingFB","","null","","trustrating_stim/white_00340_940422_fa_edt.bmp","null","","","","","","","","","","",""
"image-keyboard-response","63","101789","0.0-6.0-1.29","63ecff07b619306f41db42fa","bdp_trlrn","Wed Mar 15 2023 20:30:30 GMT-0700 (Pacific Daylight Time)","642286","Trustworthy,Untrustworthy","","","","rating","","1042","","trustrating_stim/white_mw033.bmp","8","","","","","","","","","","",""
"image-keyboard-response","64","101992","0.0-6.0-2.29","63ecff07b619306f41db42fa","bdp_trlrn","Wed Mar 15 2023 20:30:30 GMT-0700 (Pacific Daylight Time)","642286","Trustworthy,Untrustworthy","","","","ratingFB","","null","","trustrating_stim/white_mw033.bmp","null","","","","","","","","","","",""
"image-keyboard-response","65","103341","0.0-6.0-1.30","63ecff07b619306f41db42fa","bdp_trlrn","Wed Mar 15 2023 20:30:30 GMT-0700 (Pacific Daylight Time)","642286","Trustworthy,Untrustworthy","","","","rating","","1234","","trustrating_stim/white_00602_940928_fb_edt.bmp","7","","","","","","","","","","",""
"image-keyboard-response","66","103556","0.0-6.0-2.30","63ecff07b619306f41db42fa","bdp_trlrn","Wed Mar 15 2023 20:30:30 GMT-0700 (Pacific Daylight Time)","642286","Trustworthy,Untrustworthy","","","","ratingFB","","null","","trustrating_stim/white_00602_940928_fb_edt.bmp","null","","","","","","","","","","",""
"image-keyboard-response","67","105545","0.0-6.0-1.31","63ecff07b619306f41db42fa","bdp_trlrn","Wed Mar 15 2023 20:30:30 GMT-0700 (Pacific Daylight Time)","642286","Trustworthy,Untrustworthy","","","","rating","","1888","","trustrating_stim/white_00340_940422_fa_edt.bmp","6","","","","","","","","","","",""
"image-keyboard-response","68","105758","0.0-6.0-2.31","63ecff07b619306f41db42fa","bdp_trlrn","Wed Mar 15 2023 20:30:30 GMT-0700 (Pacific Daylight Time)","642286","Trustworthy,Untrustworthy","","","","ratingFB","","null","","trustrating_stim/white_00340_940422_fa_edt.bmp","null","","","","","","","","","","",""
"image-keyboard-response","69","107725","0.0-6.0-1.32","63ecff07b619306f41db42fa","bdp_trlrn","Wed Mar 15 2023 20:30:30 GMT-0700 (Pacific Daylight Time)","642286","Trustworthy,Untrustworthy","","","","rating","","1867","","trustrating_stim/white_00109_931230_fa_edt.bmp","6","","","","","","","","","","",""
"image-keyboard-response","70","107940","0.0-6.0-2.32","63ecff07b619306f41db42fa","bdp_trlrn","Wed Mar 15 2023 20:30:30 GMT-0700 (Pacific Daylight Time)","642286","Trustworthy,Untrustworthy","","","","ratingFB","","null","","trustrating_stim/white_00109_931230_fa_edt.bmp","null","","","","","","","","","","",""
"image-keyboard-response","71","109581","0.0-6.0-1.33","63ecff07b619306f41db42fa","bdp_trlrn","Wed Mar 15 2023 20:30:30 GMT-0700 (Pacific Daylight Time)","642286","Trustworthy,Untrustworthy","","","","rating","","1524","","trustrating_stim/white_00785_941205_fb_edt.bmp","5","","","","","","","","","","",""
"image-keyboard-response","72","109782","0.0-6.0-2.33","63ecff07b619306f41db42fa","bdp_trlrn","Wed Mar 15 2023 20:30:30 GMT-0700 (Pacific Daylight Time)","642286","Trustworthy,Untrustworthy","","","","ratingFB","","null","","trustrating_stim/white_00785_941205_fb_edt.bmp","null","","","","","","","","","","",""
"image-keyboard-response","73","111142","0.0-6.0-1.34","63ecff07b619306f41db42fa","bdp_trlrn","Wed Mar 15 2023 20:30:30 GMT-0700 (Pacific Daylight Time)","642286","Trustworthy,Untrustworthy","","","","rating","","1258","","trustrating_stim/white_00807_941205_fb_edt.bmp","5","","","","","","","","","","",""
"image-keyboard-response","74","111357","0.0-6.0-2.34","63ecff07b619306f41db42fa","bdp_trlrn","Wed Mar 15 2023 20:30:30 GMT-0700 (Pacific Daylight Time)","642286","Trustworthy,Untrustworthy","","","","ratingFB","","null","","trustrating_stim/white_00807_941205_fb_edt.bmp","null","","","","","","","","","","",""
"image-keyboard-response","75","112732","0.0-6.0-1.35","63ecff07b619306f41db42fa","bdp_trlrn","Wed Mar 15 2023 20:30:30 GMT-0700 (Pacific Daylight Time)","642286","Trustworthy,Untrustworthy","","","","rating","","1274","","trustrating_stim/white_00299_940422_fa_edt.bmp","7","","","","","","","","","","",""
"image-keyboard-response","76","112936","0.0-6.0-2.35","63ecff07b619306f41db42fa","bdp_trlrn","Wed Mar 15 2023 20:30:30 GMT-0700 (Pacific Daylight Time)","642286","Trustworthy,Untrustworthy","","","","ratingFB","","null","","trustrating_stim/white_00299_940422_fa_edt.bmp","null","","","","","","","","","","",""
"image-keyboard-response","77","114856","0.0-6.0-1.36","63ecff07b619306f41db42fa","bdp_trlrn","Wed Mar 15 2023 20:30:30 GMT-0700 (Pacific Daylight Time)","642286","Trustworthy,Untrustworthy","","","","rating","","1817","","trustrating_stim/white_mw053.bmp","7","","","","","","","","","","",""
"image-keyboard-response","78","115058","0.0-6.0-2.36","63ecff07b619306f41db42fa","bdp_trlrn","Wed Mar 15 2023 20:30:30 GMT-0700 (Pacific Daylight Time)","642286","Trustworthy,Untrustworthy","","","","ratingFB","","null","","trustrating_stim/white_mw053.bmp","null","","","","","","","","","","",""
"image-keyboard-response","79","117181","0.0-6.0-1.37","63ecff07b619306f41db42fa","bdp_trlrn","Wed Mar 15 2023 20:30:30 GMT-0700 (Pacific Daylight Time)","642286","Trustworthy,Untrustworthy","","","","rating","","2014","","trustrating_stim/white_mw089.bmp","8","","","","","","","","","","",""
"image-keyboard-response","80","117396","0.0-6.0-2.37","63ecff07b619306f41db42fa","bdp_trlrn","Wed Mar 15 2023 20:30:30 GMT-0700 (Pacific Daylight Time)","642286","Trustworthy,Untrustworthy","","","","ratingFB","","null","","trustrating_stim/white_mw089.bmp","null","","","","","","","","","","",""
"image-keyboard-response","81","119045","0.0-6.0-1.38","63ecff07b619306f41db42fa","bdp_trlrn","Wed Mar 15 2023 20:30:30 GMT-0700 (Pacific Daylight Time)","642286","Trustworthy,Untrustworthy","","","","rating","","1547","","trustrating_stim/white_00519_940519_fb_edt.bmp","7","","","","","","","","","","",""
"image-keyboard-response","82","119249","0.0-6.0-2.38","63ecff07b619306f41db42fa","bdp_trlrn","Wed Mar 15 2023 20:30:30 GMT-0700 (Pacific Daylight Time)","642286","Trustworthy,Untrustworthy","","","","ratingFB","","null","","trustrating_stim/white_00519_940519_fb_edt.bmp","null","","","","","","","","","","",""
"image-keyboard-response","83","121129","0.0-6.0-1.39","63ecff07b619306f41db42fa","bdp_trlrn","Wed Mar 15 2023 20:30:30 GMT-0700 (Pacific Daylight Time)","642286","Trustworthy,Untrustworthy","","","","rating","","1777","","trustrating_stim/white_mw060.bmp","7","","","","","","","","","","",""
"image-keyboard-response","84","121334","0.0-6.0-2.39","63ecff07b619306f41db42fa","bdp_trlrn","Wed Mar 15 2023 20:30:30 GMT-0700 (Pacific Daylight Time)","642286","Trustworthy,Untrustworthy","","","","ratingFB","","null","","trustrating_stim/white_mw060.bmp","null","","","","","","","","","","",""
"image-keyboard-response","85","122509","0.0-6.0-1.40","63ecff07b619306f41db42fa","bdp_trlrn","Wed Mar 15 2023 20:30:30 GMT-0700 (Pacific Daylight Time)","642286","Trustworthy,Untrustworthy","","","","rating","","1073","","trustrating_stim/white_00761_941201_fb_edt.bmp","6","","","","","","","","","","",""
"image-keyboard-response","86","122720","0.0-6.0-2.40","63ecff07b619306f41db42fa","bdp_trlrn","Wed Mar 15 2023 20:30:30 GMT-0700 (Pacific Daylight Time)","642286","Trustworthy,Untrustworthy","","","","ratingFB","","null","","trustrating_stim/white_00761_941201_fb_edt.bmp","null","","","","","","","","","","",""
"image-keyboard-response","87","124148","0.0-6.0-1.41","63ecff07b619306f41db42fa","bdp_trlrn","Wed Mar 15 2023 20:30:30 GMT-0700 (Pacific Daylight Time)","642286","Trustworthy,Untrustworthy","","","","rating","","1326","","trustrating_stim/white_00659_941121_fa_edt.bmp","5","","","","","","","","","","",""
"image-keyboard-response","88","124351","0.0-6.0-2.41","63ecff07b619306f41db42fa","bdp_trlrn","Wed Mar 15 2023 20:30:30 GMT-0700 (Pacific Daylight Time)","642286","Trustworthy,Untrustworthy","","","","ratingFB","","null","","trustrating_stim/white_00659_941121_fa_edt.bmp","null","","","","","","","","","","",""
"image-keyboard-response","89","125613","0.0-6.0-1.42","63ecff07b619306f41db42fa","bdp_trlrn","Wed Mar 15 2023 20:30:30 GMT-0700 (Pacific Daylight Time)","642286","Trustworthy,Untrustworthy","","","","rating","","1154","","trustrating_stim/white_mw033.bmp","6","","","","","","","","","","",""
"image-keyboard-response","90","125828","0.0-6.0-2.42","63ecff07b619306f41db42fa","bdp_trlrn","Wed Mar 15 2023 20:30:30 GMT-0700 (Pacific Daylight Time)","642286","Trustworthy,Untrustworthy","","","","ratingFB","","null","","trustrating_stim/white_mw033.bmp","null","","","","","","","","","","",""
"image-keyboard-response","91","128184","0.0-6.0-1.43","63ecff07b619306f41db42fa","bdp_trlrn","Wed Mar 15 2023 20:30:30 GMT-0700 (Pacific Daylight Time)","642286","Trustworthy,Untrustworthy","","","","rating","","2253","","trustrating_stim/white_mw056.bmp","5","","","","","","","","","","",""
"image-keyboard-response","92","128399","0.0-6.0-2.43","63ecff07b619306f41db42fa","bdp_trlrn","Wed Mar 15 2023 20:30:30 GMT-0700 (Pacific Daylight Time)","642286","Trustworthy,Untrustworthy","","","","ratingFB","","null","","trustrating_stim/white_mw056.bmp","null","","","","","","","","","","",""
"image-keyboard-response","93","130600","0.0-6.0-1.44","63ecff07b619306f41db42fa","bdp_trlrn","Wed Mar 15 2023 20:30:30 GMT-0700 (Pacific Daylight Time)","642286","Trustworthy,Untrustworthy","","","","rating","","2091","","trustrating_stim/white_mw046.bmp","5","","","","","","","","","","",""
"image-keyboard-response","94","130811","0.0-6.0-2.44","63ecff07b619306f41db42fa","bdp_trlrn","Wed Mar 15 2023 20:30:30 GMT-0700 (Pacific Daylight Time)","642286","Trustworthy,Untrustworthy","","","","ratingFB","","null","","trustrating_stim/white_mw046.bmp","null","","","","","","","","","","",""
"image-keyboard-response","95","132192","0.0-6.0-1.45","63ecff07b619306f41db42fa","bdp_trlrn","Wed Mar 15 2023 20:30:30 GMT-0700 (Pacific Daylight Time)","642286","Trustworthy,Untrustworthy","","","","rating","","1271","","trustrating_stim/white_mw071.bmp","7","","","","","","","","","","",""
"image-keyboard-response","96","132401","0.0-6.0-2.45","63ecff07b619306f41db42fa","bdp_trlrn","Wed Mar 15 2023 20:30:30 GMT-0700 (Pacific Daylight Time)","642286","Trustworthy,Untrustworthy","","","","ratingFB","","null","","trustrating_stim/white_mw071.bmp","null","","","","","","","","","","",""
"image-keyboard-response","97","133668","0.0-6.0-1.46","63ecff07b619306f41db42fa","bdp_trlrn","Wed Mar 15 2023 20:30:30 GMT-0700 (Pacific Daylight Time)","642286","Trustworthy,Untrustworthy","","","","rating","","1158","","trustrating_stim/white_00898_960530_fa_edt.bmp","7","","","","","","","","","","",""
"image-keyboard-response","98","133875","0.0-6.0-2.46","63ecff07b619306f41db42fa","bdp_trlrn","Wed Mar 15 2023 20:30:30 GMT-0700 (Pacific Daylight Time)","642286","Trustworthy,Untrustworthy","","","","ratingFB","","null","","trustrating_stim/white_00898_960530_fa_edt.bmp","null","","","","","","","","","","",""
"image-keyboard-response","99","135460","0.0-6.0-1.47","63ecff07b619306f41db42fa","bdp_trlrn","Wed Mar 15 2023 20:30:30 GMT-0700 (Pacific Daylight Time)","642286","Trustworthy,Untrustworthy","","","","rating","","1476","","trustrating_stim/white_00129_931230_fb_edt.bmp","6","","","","","","","","","","",""
"image-keyboard-response","100","135672","0.0-6.0-2.47","63ecff07b619306f41db42fa","bdp_trlrn","Wed Mar 15 2023 20:30:30 GMT-0700 (Pacific Daylight Time)","642286","Trustworthy,Untrustworthy","","","","ratingFB","","null","","trustrating_stim/white_00129_931230_fb_edt.bmp","null","","","","","","","","","","",""
"image-keyboard-response","101","137372","0.0-6.0-1.48","63ecff07b619306f41db42fa","bdp_trlrn","Wed Mar 15 2023 20:30:30 GMT-0700 (Pacific Daylight Time)","642286","Trustworthy,Untrustworthy","","","","rating","","1590","","trustrating_stim/white_00120_931230_fa_edt.bmp","6","","","","","","","","","","",""
"image-keyboard-response","102","137588","0.0-6.0-2.48","63ecff07b619306f41db42fa","bdp_trlrn","Wed Mar 15 2023 20:30:30 GMT-0700 (Pacific Daylight Time)","642286","Trustworthy,Untrustworthy","","","","ratingFB","","null","","trustrating_stim/white_00120_931230_fa_edt.bmp","null","","","","","","","","","","",""
"image-keyboard-response","103","138772","0.0-6.0-1.49","63ecff07b619306f41db42fa","bdp_trlrn","Wed Mar 15 2023 20:30:30 GMT-0700 (Pacific Daylight Time)","642286","Trustworthy,Untrustworthy","","","","rating","","1082","","trustrating_stim/white_00223_940128_fb_edt.bmp","7","","","","","","","","","","",""
"image-keyboard-response","104","138973","0.0-6.0-2.49","63ecff07b619306f41db42fa","bdp_trlrn","Wed Mar 15 2023 20:30:30 GMT-0700 (Pacific Daylight Time)","642286","Trustworthy,Untrustworthy","","","","ratingFB","","null","","trustrating_stim/white_00223_940128_fb_edt.bmp","null","","","","","","","","","","",""
"image-keyboard-response","105","140308","0.0-6.0-1.50","63ecff07b619306f41db42fa","bdp_trlrn","Wed Mar 15 2023 20:30:30 GMT-0700 (Pacific Daylight Time)","642286","Trustworthy,Untrustworthy","","","","rating","","1225","","trustrating_stim/white_mw084.bmp","7","","","","","","","","","","",""
"image-keyboard-response","106","140523","0.0-6.0-2.50","63ecff07b619306f41db42fa","bdp_trlrn","Wed Mar 15 2023 20:30:30 GMT-0700 (Pacific Daylight Time)","642286","Trustworthy,Untrustworthy","","","","ratingFB","","null","","trustrating_stim/white_mw084.bmp","null","","","","","","","","","","",""
"image-keyboard-response","107","141681","0.0-6.0-1.51","63ecff07b619306f41db42fa","bdp_trlrn","Wed Mar 15 2023 20:30:30 GMT-0700 (Pacific Daylight Time)","642286","Trustworthy,Untrustworthy","","","","rating","","1048","","trustrating_stim/white_mw066.bmp","6","","","","","","","","","","",""
"image-keyboard-response","108","141890","0.0-6.0-2.51","63ecff07b619306f41db42fa","bdp_trlrn","Wed Mar 15 2023 20:30:30 GMT-0700 (Pacific Daylight Time)","642286","Trustworthy,Untrustworthy","","","","ratingFB","","null","","trustrating_stim/white_mw066.bmp","null","","","","","","","","","","",""
"image-keyboard-response","109","143221","0.0-6.0-1.52","63ecff07b619306f41db42fa","bdp_trlrn","Wed Mar 15 2023 20:30:30 GMT-0700 (Pacific Daylight Time)","642286","Trustworthy,Untrustworthy","","","","rating","","1228","","trustrating_stim/white_00757_941201_fa_edt.bmp","6","","","","","","","","","","",""
"image-keyboard-response","110","143434","0.0-6.0-2.52","63ecff07b619306f41db42fa","bdp_trlrn","Wed Mar 15 2023 20:30:30 GMT-0700 (Pacific Daylight Time)","642286","Trustworthy,Untrustworthy","","","","ratingFB","","null","","trustrating_stim/white_00757_941201_fa_edt.bmp","null","","","","","","","","","","",""
"image-keyboard-response","111","144433","0.0-6.0-1.53","63ecff07b619306f41db42fa","bdp_trlrn","Wed Mar 15 2023 20:30:30 GMT-0700 (Pacific Daylight Time)","642286","Trustworthy,Untrustworthy","","","","rating","","891","","trustrating_stim/white_mw035.bmp","7","","","","","","","","","","",""
"image-keyboard-response","112","144649","0.0-6.0-2.53","63ecff07b619306f41db42fa","bdp_trlrn","Wed Mar 15 2023 20:30:30 GMT-0700 (Pacific Daylight Time)","642286","Trustworthy,Untrustworthy","","","","ratingFB","","null","","trustrating_stim/white_mw035.bmp","null","","","","","","","","","","",""
"image-keyboard-response","113","146054","0.0-6.0-1.54","63ecff07b619306f41db42fa","bdp_trlrn","Wed Mar 15 2023 20:30:30 GMT-0700 (Pacific Daylight Time)","642286","Trustworthy,Untrustworthy","","","","rating","","1303","","trustrating_stim/white_mw099.bmp","7","","","","","","","","","","",""
"image-keyboard-response","114","146260","0.0-6.0-2.54","63ecff07b619306f41db42fa","bdp_trlrn","Wed Mar 15 2023 20:30:30 GMT-0700 (Pacific Daylight Time)","642286","Trustworthy,Untrustworthy","","","","ratingFB","","null","","trustrating_stim/white_mw099.bmp","null","","","","","","","","","","",""
"image-keyboard-response","115","147741","0.0-6.0-1.55","63ecff07b619306f41db42fa","bdp_trlrn","Wed Mar 15 2023 20:30:30 GMT-0700 (Pacific Daylight Time)","642286","Trustworthy,Untrustworthy","","","","rating","","1373","","trustrating_stim/white_00577_940928_fa_edt.bmp","6","","","","","","","","","","",""
"image-keyboard-response","116","147945","0.0-6.0-2.55","63ecff07b619306f41db42fa","bdp_trlrn","Wed Mar 15 2023 20:30:30 GMT-0700 (Pacific Daylight Time)","642286","Trustworthy,Untrustworthy","","","","ratingFB","","null","","trustrating_stim/white_00577_940928_fa_edt.bmp","null","","","","","","","","","","",""
"image-keyboard-response","117","148961","0.0-6.0-1.56","63ecff07b619306f41db42fa","bdp_trlrn","Wed Mar 15 2023 20:30:30 GMT-0700 (Pacific Daylight Time)","642286","Trustworthy,Untrustworthy","","","","rating","","913","","trustrating_stim/white_mw049.bmp","7","","","","","","","","","","",""
"image-keyboard-response","118","149175","0.0-6.0-2.56","63ecff07b619306f41db42fa","bdp_trlrn","Wed Mar 15 2023 20:30:30 GMT-0700 (Pacific Daylight Time)","642286","Trustworthy,Untrustworthy","","","","ratingFB","","null","","trustrating_stim/white_mw049.bmp","null","","","","","","","","","","",""
"image-keyboard-response","119","151029","0.0-6.0-1.57","63ecff07b619306f41db42fa","bdp_trlrn","Wed Mar 15 2023 20:30:30 GMT-0700 (Pacific Daylight Time)","642286","Trustworthy,Untrustworthy","","","","rating","","1744","","trustrating_stim/white_mw097.bmp","5","","","","","","","","","","",""
"image-keyboard-response","120","151233","0.0-6.0-2.57","63ecff07b619306f41db42fa","bdp_trlrn","Wed Mar 15 2023 20:30:30 GMT-0700 (Pacific Daylight Time)","642286","Trustworthy,Untrustworthy","","","","ratingFB","","null","","trustrating_stim/white_mw097.bmp","null","","","","","","","","","","",""
"image-keyboard-response","121","152380","0.0-6.0-1.58","63ecff07b619306f41db42fa","bdp_trlrn","Wed Mar 15 2023 20:30:30 GMT-0700 (Pacific Daylight Time)","642286","Trustworthy,Untrustworthy","","","","rating","","1043","","trustrating_stim/white_mw063.bmp","7","","","","","","","","","","",""
"image-keyboard-response","122","152586","0.0-6.0-2.58","63ecff07b619306f41db42fa","bdp_trlrn","Wed Mar 15 2023 20:30:30 GMT-0700 (Pacific Daylight Time)","642286","Trustworthy,Untrustworthy","","","","ratingFB","","null","","trustrating_stim/white_mw063.bmp","null","","","","","","","","","","",""
"image-keyboard-response","123","153816","0.0-6.0-1.59","63ecff07b619306f41db42fa","bdp_trlrn","Wed Mar 15 2023 20:30:30 GMT-0700 (Pacific Daylight Time)","642286","Trustworthy,Untrustworthy","","","","rating","","1128","","trustrating_stim/white_mw048.bmp","6","","","","","","","","","","",""
"image-keyboard-response","124","154018","0.0-6.0-2.59","63ecff07b619306f41db42fa","bdp_trlrn","Wed Mar 15 2023 20:30:30 GMT-0700 (Pacific Daylight Time)","642286","Trustworthy,Untrustworthy","","","","ratingFB","","null","","trustrating_stim/white_mw048.bmp","null","","","","","","","","","","",""
"instructions","125","157588","0.0-7.0","63ecff07b619306f41db42fa","bdp_trlrn","Wed Mar 15 2023 20:30:30 GMT-0700 (Pacific Daylight Time)","642286","Trustworthy,Untrustworthy","","","","","[{""page_index"":0,""viewing_time"":3460}]","3460","","","","","","","","","","","","","",""
"instructions","126","273846","0.0-8.0","63ecff07b619306f41db42fa","bdp_trlrn","Wed Mar 15 2023 20:30:30 GMT-0700 (Pacific Daylight Time)","642286","Trustworthy,Untrustworthy","","","","","[{""page_index"":0,""viewing_time"":35506},{""page_index"":1,""viewing_time"":12222},{""page_index"":2,""viewing_time"":8677},{""page_index"":3,""viewing_time"":11019},{""page_index"":4,""viewing_time"":15347},{""page_index"":5,""viewing_time"":9761},{""page_index"":6,""viewing_time"":18500},{""page_index"":7,""viewing_time"":5110}]","116142","","","","","","","","","","","","","",""
"html-keyboard-response","127","288602","0.0-9.0","63ecff07b619306f41db42fa","bdp_trlrn","Wed Mar 15 2023 20:30:30 GMT-0700 (Pacific Daylight Time)","642286","Trustworthy,Untrustworthy","","","","","","14755","","<div class='header' style='text-align:left; position: absolute; top: 5%; left: 5%;'><small>Task 2 of 5</small></div><div class='instruxDiv'><p><strong>1) What is the minimum number of points you can choose to send to your partner?</strong></p><p>a) 0</p><p>b) 1</p><p>c) 5</p>","A","","","","","","","","","","",""
"html-keyboard-response","128","292590","0.0-10.0","63ecff07b619306f41db42fa","bdp_trlrn","Wed Mar 15 2023 20:30:30 GMT-0700 (Pacific Daylight Time)","642286","Trustworthy,Untrustworthy","","","","","","3887","","<div class='header' style='text-align:left; position: absolute; top: 5%; left: 5%;'><small>Task 2 of 5</small></div><div class='instruxDiv'><p><strong>1) What is the minimum number of points you can choose to send to your partner?</strong></p><p style='color:#FF0000'>a) 0</p><p>b) 1</p><p>c) 5</p><h3 style='color:#FF0000'>Incorrect!</h3><h3 class='center-content'>The correct response is b).</h3><h3 class='center-content'>The minimum number of points you can choose to send to your partner is 1 point.</h3><p><em>Press SPACEBAR to continue</em></p></div>"," ","","","","","","","","","","",""
"html-keyboard-response","129","297875","0.0-11.0","63ecff07b619306f41db42fa","bdp_trlrn","Wed Mar 15 2023 20:30:30 GMT-0700 (Pacific Daylight Time)","642286","Trustworthy,Untrustworthy","","","","","","5177","","<div class='header' style='text-align:left; position: absolute; top: 5%; left: 5%;'><small>Task 2 of 5</small></div><div class='instruxDiv'><p><strong>2) What is the maximum number of points you can choose to send to your partner?</strong></p><p>a) 8</p><p>b) 5</p><p>c) 3</p>","B","","","","","","","","","","",""
"html-keyboard-response","130","299134","0.0-12.0","63ecff07b619306f41db42fa","bdp_trlrn","Wed Mar 15 2023 20:30:30 GMT-0700 (Pacific Daylight Time)","642286","Trustworthy,Untrustworthy","","","","","","1150","","<div class='header' style='text-align:left; position: absolute; top: 5%; left: 5%;'><small>Task 2 of 5</small></div><div class='instruxDiv'><p><strong>2) What is the maximum number of points you can choose to send to your partner?</strong></p><p>a) 8</p><p style='color:#00FF00'>b) 5</p><p>c) 3</p><h3 style='color:#00FF00'>Correct!</h3><h3 class='center-content'>The correct response is b).</h3><h3 class='center-content'>The maximum number of points you can choose to send to your partner is 5 points.</h3><p><em>Press SPACEBAR to continue</em></p></div>"," ","","","","","","","","","","",""
"html-keyboard-response","131","303073","0.0-13.0","63ecff07b619306f41db42fa","bdp_trlrn","Wed Mar 15 2023 20:30:30 GMT-0700 (Pacific Daylight Time)","642286","Trustworthy,Untrustworthy","","","","","","3837","","<div class='header' style='text-align:left; position: absolute; top: 5%; left: 5%;'><small>Task 2 of 5</small></div><div class='instruxDiv'><p><strong>3) What happens to the amount of points you send to your partner?</strong></p><p>a) Nothing</p><p>b) It doubles</p><p>c) It quadruples</p>","C","","","","","","","","","","",""
"html-keyboard-response","132","304473","0.0-14.0","63ecff07b619306f41db42fa","bdp_trlrn","Wed Mar 15 2023 20:30:30 GMT-0700 (Pacific Daylight Time)","642286","Trustworthy,Untrustworthy","","","","","","1283","","<div class='header' style='text-align:left; position: absolute; top: 5%; left: 5%;'><small>Task 2 of 5</small></div><div class='instruxDiv'><p><strong>3) What happens to the amount of points you send to your partner?</strong></p><p>a) Nothing</p><p>b) It doubles</p><p style='color:#00FF00'>c) It quadruples</p><h3 style='color:#00FF00'>Correct!</h3><h3 class='center-content'>The correct response is c).</h3><h3 class='center-content'>The amount of points you send to your partner quadruples.</h3><p><em>Press SPACEBAR to continue</em></p></div>"," ","","","","","","","","","","",""
"html-keyboard-response","133","317368","0.0-15.0","63ecff07b619306f41db42fa","bdp_trlrn","Wed Mar 15 2023 20:30:30 GMT-0700 (Pacific Daylight Time)","642286","Trustworthy,Untrustworthy","","","","","","12793","","<div class='header' style='text-align:left; position: absolute; top: 5%; left: 5%;'><small>Task 2 of 5</small></div><div class='instruxDiv'><p><strong>4) If you decided to share 4 out of 5 points with your partner, and they decided to share half of the amount they received with you, how many points would you receive back from them on this round?</strong></p><p>a) 16</p><p>b) 0</p><p>c) 8</p>","C","","","","","","","","","","",""
"html-keyboard-response","134","318441","0.0-16.0","63ecff07b619306f41db42fa","bdp_trlrn","Wed Mar 15 2023 20:30:30 GMT-0700 (Pacific Daylight Time)","642286","Trustworthy,Untrustworthy","","","","","","960","","<div class='header' style='text-align:left; position: absolute; top: 5%; left: 5%;'><small>Task 2 of 5</small></div><div class='instruxDiv'><p><strong>4) If you decided to share 4 out of 5 points with your partner, and they decided to share half of the amount they received with you, how many points would you receive back from them on this round?</strong></p><p>a) 16</p><p>b) 0</p><p style='color:#00FF00'>c) 8</p><h3 style='color:#00FF00'>Correct!</h3><h3 class='center-content'>The correct response is c).</h3><h3 class='center-content'>If you shared 4 out of 5 points with your partner and they decided to share half of the amount they received with you, you would receive 8 points back (i.e. (4 x 4)/2 = 8).</h3><p><em>Press SPACEBAR to continue</em></p></div>"," ","","","","","","","","","","",""
"html-keyboard-response","135","323567","0.0-17.0","63ecff07b619306f41db42fa","bdp_trlrn","Wed Mar 15 2023 20:30:30 GMT-0700 (Pacific Daylight Time)","642286","Trustworthy,Untrustworthy","","","","","","null","","<div class='header' style='text-align:left; position: absolute; top: 5%; left: 5%;'><small>Task 2 of 5</small></div><div class='instruxDiv'><p>Thank you for completing the quiz<p>These are the actual partners you will be interacting with in the next block:<p><div class='tc' align='center'><img class='introPic' src='trustrating_stim/white_mw056.bmp'><br><strong>Daniel</strong></div><div class='bl' align='center'><img class='introPic' src='trustrating_stim/white_00761_941201_fb_edt.bmp'><br><strong>James</strong></div><div class='br' align='center'><img class='introPic' src='trustrating_stim/white_00602_940928_fb_edt.bmp'><br><strong>David</strong></div></div><p>Across <strong>66 rounds</strong> you will interact with each partner <strong>22 times</strong> (in random order).<p style='align:center; color:white'><font <em>Press SPACEBAR to continue</em></p>","null","","","","","","","","","","",""
"instructions","136","330756","0.0-18.0","63ecff07b619306f41db42fa","bdp_trlrn","Wed Mar 15 2023 20:30:30 GMT-0700 (Pacific Daylight Time)","642286","Trustworthy,Untrustworthy","","","","","[{""page_index"":0,""viewing_time"":3503},{""page_index"":1,""viewing_time"":3686}]","7189","","","","","","","","","","","","","",""
"html-keyboard-response","137","337043","0.0-19.0-1.0","63ecff07b619306f41db42fa","bdp_trlrn","Wed Mar 15 2023 20:30:30 GMT-0700 (Pacific Daylight Time)","642286","Trustworthy,Untrustworthy","","","","decision","","6180","","<div class='trialDiv'><img src='trustrating_stim/white_00602_940928_fb_edt.bmp'><br><font class='baseline'><strong>David</strong><p>Choose number of points to send.</font><div class='respPicDiv'><img src='img/responseButtonOffersNo0L.png' class='respPic'></div></div>","3","1","David","10","Kept","0.35,0.65","8","0.35","trustrating_stim/white_00602_940928_fb_edt.bmp","7.5","5","1"
"html-keyboard-response","138","337305","0.0-19.0-2.0","63ecff07b619306f41db42fa","bdp_trlrn","Wed Mar 15 2023 20:30:30 GMT-0700 (Pacific Daylight Time)","642286","Trustworthy,Untrustworthy","","","","decisionFB","","null","","<div class='trialDiv'><img src='trustrating_stim/white_00602_940928_fb_edt.bmp'><br><font class='baseline'><strong>David</strong><p>Choose number of points to send.</font><div class='respPicDiv'><img src='img/responseButtonOffersNo0L3.png' class='respPic'></div></div>","null","1","David","10","Kept","0.35,0.65","8","0.35","trustrating_stim/white_00602_940928_fb_edt.bmp","7.5","2","1"
"html-keyboard-response","139","338319","0.0-19.0-3.0","63ecff07b619306f41db42fa","bdp_trlrn","Wed Mar 15 2023 20:30:30 GMT-0700 (Pacific Daylight Time)","642286","Trustworthy,Untrustworthy","","","","feedback","","null","","<div class='trialDiv'><img src='trustrating_stim/white_00602_940928_fb_edt.bmp'><br><font class='baseline'><strong>David</strong><p>Received: <strong>12</strong></font> &nbsp; &nbsp; &nbsp; &nbsp; &nbsp; &nbsp;<font class='negOutcome'>Shared back: <strong>0</strong></font></font><div class='respPicDiv'><img src='img/responseButtonOffersNo0_wht.png' class='respPic'></div></div>","null","1","David","10","Kept","0.35,0.65","8","0.35","trustrating_stim/white_00602_940928_fb_edt.bmp","7.5","2","1"
"html-keyboard-response","140","340694","0.0-19.0-1.1","63ecff07b619306f41db42fa","bdp_trlrn","Wed Mar 15 2023 20:30:30 GMT-0700 (Pacific Daylight Time)","642286","Trustworthy,Untrustworthy","","","","decision","","2374","","<div class='trialDiv'><img src='trustrating_stim/white_mw056.bmp'><br><font class='baseline'><strong>Daniel</strong><p>Choose number of points to send.</font><div class='respPicDiv'><img src='img/responseButtonOffersNo0L.png' class='respPic'></div></div>","2","1","Daniel","2","Kept","0.35,0.8","11","0.35","trustrating_stim/white_mw056.bmp","5","7","2"
"html-keyboard-response","141","340946","0.0-19.0-2.1","63ecff07b619306f41db42fa","bdp_trlrn","Wed Mar 15 2023 20:30:30 GMT-0700 (Pacific Daylight Time)","642286","Trustworthy,Untrustworthy","","","","decisionFB","","null","","<div class='trialDiv'><img src='trustrating_stim/white_mw056.bmp'><br><font class='baseline'><strong>Daniel</strong><p>Choose number of points to send.</font><div class='respPicDiv'><img src='img/responseButtonOffersNo0L2.png' class='respPic'></div></div>","null","1","Daniel","2","Kept","0.35,0.8","11","0.35","trustrating_stim/white_mw056.bmp","5","5","2"
"html-keyboard-response","142","341961","0.0-19.0-3.1","63ecff07b619306f41db42fa","bdp_trlrn","Wed Mar 15 2023 20:30:30 GMT-0700 (Pacific Daylight Time)","642286","Trustworthy,Untrustworthy","","","","feedback","","null","","<div class='trialDiv'><img src='trustrating_stim/white_mw056.bmp'><br><font class='baseline'><strong>Daniel</strong><p>Received: <strong>8</strong></font> &nbsp; &nbsp; &nbsp; &nbsp; &nbsp; &nbsp;<font class='negOutcome'>Shared back: <strong>0</strong></font></font><div class='respPicDiv'><img src='img/responseButtonOffersNo0_wht.png' class='respPic'></div></div>","null","1","Daniel","2","Kept","0.35,0.8","11","0.35","trustrating_stim/white_mw056.bmp","5","5","2"
"html-keyboard-response","143","345931","0.0-19.0-1.2","63ecff07b619306f41db42fa","bdp_trlrn","Wed Mar 15 2023 20:30:30 GMT-0700 (Pacific Daylight Time)","642286","Trustworthy,Untrustworthy","","","","decision","","3970","","<div class='trialDiv'><img src='trustrating_stim/white_00761_941201_fb_edt.bmp'><br><font class='baseline'><strong>James</strong><p>Choose number of points to send.</font><div class='respPicDiv'><img src='img/responseButtonOffersNo0L.png' class='respPic'></div></div>","3","1","James","6","Kept","0.65,0.2","9","0.65","trustrating_stim/white_00761_941201_fb_edt.bmp","6.5","10","3"
"html-keyboard-response","144","346185","0.0-19.0-2.2","63ecff07b619306f41db42fa","bdp_trlrn","Wed Mar 15 2023 20:30:30 GMT-0700 (Pacific Daylight Time)","642286","Trustworthy,Untrustworthy","","","","decisionFB","","null","","<div class='trialDiv'><img src='trustrating_stim/white_00761_941201_fb_edt.bmp'><br><font class='baseline'><strong>James</strong><p>Choose number of points to send.</font><div class='respPicDiv'><img src='img/responseButtonOffersNo0L3.png' class='respPic'></div></div>","null","1","James","6","Kept","0.65,0.2","9","0.65","trustrating_stim/white_00761_941201_fb_edt.bmp","6.5","7","3"
"html-keyboard-response","145","347195","0.0-19.0-3.2","63ecff07b619306f41db42fa","bdp_trlrn","Wed Mar 15 2023 20:30:30 GMT-0700 (Pacific Daylight Time)","642286","Trustworthy,Untrustworthy","","","","feedback","","null","","<div class='trialDiv'><img src='trustrating_stim/white_00761_941201_fb_edt.bmp'><br><font class='baseline'><strong>James</strong><p>Received: <strong>12</strong></font> &nbsp; &nbsp; &nbsp; &nbsp; &nbsp; &nbsp;<font class='negOutcome'>Shared back: <strong>0</strong></font></font><div class='respPicDiv'><img src='img/responseButtonOffersNo0_wht.png' class='respPic'></div></div>","null","1","James","6","Kept","0.65,0.2","9","0.65","trustrating_stim/white_00761_941201_fb_edt.bmp","6.5","7","3"
"html-keyboard-response","146","349450","0.0-19.0-1.3","63ecff07b619306f41db42fa","bdp_trlrn","Wed Mar 15 2023 20:30:30 GMT-0700 (Pacific Daylight Time)","642286","Trustworthy,Untrustworthy","","","","decision","","2253","","<div class='trialDiv'><img src='trustrating_stim/white_00602_940928_fb_edt.bmp'><br><font class='baseline'><strong>David</strong><p>Choose number of points to send.</font><div class='respPicDiv'><img src='img/responseButtonOffersNo0L.png' class='respPic'></div></div>","1","2","David","10","Kept","0.35,0.65","8","0.35","trustrating_stim/white_00602_940928_fb_edt.bmp","7.5","12","4"
"html-keyboard-response","147","349715","0.0-19.0-2.3","63ecff07b619306f41db42fa","bdp_trlrn","Wed Mar 15 2023 20:30:30 GMT-0700 (Pacific Daylight Time)","642286","Trustworthy,Untrustworthy","","","","decisionFB","","null","","<div class='trialDiv'><img src='trustrating_stim/white_00602_940928_fb_edt.bmp'><br><font class='baseline'><strong>David</strong><p>Choose number of points to send.</font><div class='respPicDiv'><img src='img/responseButtonOffersNo0L1.png' class='respPic'></div></div>","null","2","David","10","Kept","0.35,0.65","8","0.35","trustrating_stim/white_00602_940928_fb_edt.bmp","7.5","11","4"
"html-keyboard-response","148","350728","0.0-19.0-3.3","63ecff07b619306f41db42fa","bdp_trlrn","Wed Mar 15 2023 20:30:30 GMT-0700 (Pacific Daylight Time)","642286","Trustworthy,Untrustworthy","","","","feedback","","null","","<div class='trialDiv'><img src='trustrating_stim/white_00602_940928_fb_edt.bmp'><br><font class='baseline'><strong>David</strong><p>Received: <strong>4</strong></font> &nbsp; &nbsp; &nbsp; &nbsp; &nbsp; &nbsp;<font class='negOutcome'>Shared back: <strong>0</strong></font></font><div class='respPicDiv'><img src='img/responseButtonOffersNo0_wht.png' class='respPic'></div></div>","null","2","David","10","Kept","0.35,0.65","8","0.35","trustrating_stim/white_00602_940928_fb_edt.bmp","7.5","11","4"
"html-keyboard-response","149","353189","0.0-19.0-1.4","63ecff07b619306f41db42fa","bdp_trlrn","Wed Mar 15 2023 20:30:30 GMT-0700 (Pacific Daylight Time)","642286","Trustworthy,Untrustworthy","","","","decision","","2460","","<div class='trialDiv'><img src='trustrating_stim/white_00761_941201_fb_edt.bmp'><br><font class='baseline'><strong>James</strong><p>Choose number of points to send.</font><div class='respPicDiv'><img src='img/responseButtonOffersNo0L.png' class='respPic'></div></div>","1","2","James","6","Shared","0.65,0.2","9","0.65","trustrating_stim/white_00761_941201_fb_edt.bmp","6.5","16","5"
"html-keyboard-response","150","353453","0.0-19.0-2.4","63ecff07b619306f41db42fa","bdp_trlrn","Wed Mar 15 2023 20:30:30 GMT-0700 (Pacific Daylight Time)","642286","Trustworthy,Untrustworthy","","","","decisionFB","","null","","<div class='trialDiv'><img src='trustrating_stim/white_00761_941201_fb_edt.bmp'><br><font class='baseline'><strong>James</strong><p>Choose number of points to send.</font><div class='respPicDiv'><img src='img/responseButtonOffersNo0L1.png' class='respPic'></div></div>","null","2","James","6","Shared","0.65,0.2","9","0.65","trustrating_stim/white_00761_941201_fb_edt.bmp","6.5","15","5"
"html-keyboard-response","151","354465","0.0-19.0-3.4","63ecff07b619306f41db42fa","bdp_trlrn","Wed Mar 15 2023 20:30:30 GMT-0700 (Pacific Daylight Time)","642286","Trustworthy,Untrustworthy","","","","feedback","","null","","<div class='trialDiv'><img src='trustrating_stim/white_00761_941201_fb_edt.bmp'><br><font class='baseline'><strong>James</strong><p>Received: <strong>4</strong></font> &nbsp; &nbsp; &nbsp; &nbsp; &nbsp; &nbsp;<font class='posOutcome'>Shared back: <strong>2</strong></font></font><div class='respPicDiv'><img src='img/responseButtonOffersNo0_wht.png' class='respPic'></div></div>","null","2","James","6","Shared","0.65,0.2","9","0.65","trustrating_stim/white_00761_941201_fb_edt.bmp","6.5","17","5"
"html-keyboard-response","152","356153","0.0-19.0-1.5","63ecff07b619306f41db42fa","bdp_trlrn","Wed Mar 15 2023 20:30:30 GMT-0700 (Pacific Daylight Time)","642286","Trustworthy,Untrustworthy","","","","decision","","1688","","<div class='trialDiv'><img src='trustrating_stim/white_mw056.bmp'><br><font class='baseline'><strong>Daniel</strong><p>Choose number of points to send.</font><div class='respPicDiv'><img src='img/responseButtonOffersNo0L.png' class='respPic'></div></div>","3","2","Daniel","2","Shared","0.35,0.8","11","0.35","trustrating_stim/white_mw056.bmp","5","22","6"
"html-keyboard-response","153","356408","0.0-19.0-2.5","63ecff07b619306f41db42fa","bdp_trlrn","Wed Mar 15 2023 20:30:30 GMT-0700 (Pacific Daylight Time)","642286","Trustworthy,Untrustworthy","","","","decisionFB","","null","","<div class='trialDiv'><img src='trustrating_stim/white_mw056.bmp'><br><font class='baseline'><strong>Daniel</strong><p>Choose number of points to send.</font><div class='respPicDiv'><img src='img/responseButtonOffersNo0L3.png' class='respPic'></div></div>","null","2","Daniel","2","Shared","0.35,0.8","11","0.35","trustrating_stim/white_mw056.bmp","5","19","6"
"html-keyboard-response","154","357419","0.0-19.0-3.5","63ecff07b619306f41db42fa","bdp_trlrn","Wed Mar 15 2023 20:30:30 GMT-0700 (Pacific Daylight Time)","642286","Trustworthy,Untrustworthy","","","","feedback","","null","","<div class='trialDiv'><img src='trustrating_stim/white_mw056.bmp'><br><font class='baseline'><strong>Daniel</strong><p>Received: <strong>12</strong></font> &nbsp; &nbsp; &nbsp; &nbsp; &nbsp; &nbsp;<font class='posOutcome'>Shared back: <strong>6</strong></font></font><div class='respPicDiv'><img src='img/responseButtonOffersNo0_wht.png' class='respPic'></div></div>","null","2","Daniel","2","Shared","0.35,0.8","11","0.35","trustrating_stim/white_mw056.bmp","5","25","6"
"html-keyboard-response","155","359694","0.0-19.0-1.6","63ecff07b619306f41db42fa","bdp_trlrn","Wed Mar 15 2023 20:30:30 GMT-0700 (Pacific Daylight Time)","642286","Trustworthy,Untrustworthy","","","","decision","","2274","","<div class='trialDiv'><img src='trustrating_stim/white_00602_940928_fb_edt.bmp'><br><font class='baseline'><strong>David</strong><p>Choose number of points to send.</font><div class='respPicDiv'><img src='img/responseButtonOffersNo0L.png' class='respPic'></div></div>","4","3","David","10","Kept","0.35,0.65","8","0.35","trustrating_stim/white_00602_940928_fb_edt.bmp","7.5","30","7"
"html-keyboard-response","156","359959","0.0-19.0-2.6","63ecff07b619306f41db42fa","bdp_trlrn","Wed Mar 15 2023 20:30:30 GMT-0700 (Pacific Daylight Time)","642286","Trustworthy,Untrustworthy","","","","decisionFB","","null","","<div class='trialDiv'><img src='trustrating_stim/white_00602_940928_fb_edt.bmp'><br><font class='baseline'><strong>David</strong><p>Choose number of points to send.</font><div class='respPicDiv'><img src='img/responseButtonOffersNo0L4.png' class='respPic'></div></div>","null","3","David","10","Kept","0.35,0.65","8","0.35","trustrating_stim/white_00602_940928_fb_edt.bmp","7.5","26","7"
"html-keyboard-response","157","360971","0.0-19.0-3.6","63ecff07b619306f41db42fa","bdp_trlrn","Wed Mar 15 2023 20:30:30 GMT-0700 (Pacific Daylight Time)","642286","Trustworthy,Untrustworthy","","","","feedback","","null","","<div class='trialDiv'><img src='trustrating_stim/white_00602_940928_fb_edt.bmp'><br><font class='baseline'><strong>David</strong><p>Received: <strong>16</strong></font> &nbsp; &nbsp; &nbsp; &nbsp; &nbsp; &nbsp;<font class='negOutcome'>Shared back: <strong>0</strong></font></font><div class='respPicDiv'><img src='img/responseButtonOffersNo0_wht.png' class='respPic'></div></div>","null","3","David","10","Kept","0.35,0.65","8","0.35","trustrating_stim/white_00602_940928_fb_edt.bmp","7.5","26","7"
"html-keyboard-response","158","362441","0.0-19.0-1.7","63ecff07b619306f41db42fa","bdp_trlrn","Wed Mar 15 2023 20:30:30 GMT-0700 (Pacific Daylight Time)","642286","Trustworthy,Untrustworthy","","","","decision","","1470","","<div class='trialDiv'><img src='trustrating_stim/white_00761_941201_fb_edt.bmp'><br><font class='baseline'><strong>James</strong><p>Choose number of points to send.</font><div class='respPicDiv'><img src='img/responseButtonOffersNo0L.png' class='respPic'></div></div>","2","3","James","6","Kept","0.65,0.2","9","0.65","trustrating_stim/white_00761_941201_fb_edt.bmp","6.5","31","8"
"html-keyboard-response","159","362702","0.0-19.0-2.7","63ecff07b619306f41db42fa","bdp_trlrn","Wed Mar 15 2023 20:30:30 GMT-0700 (Pacific Daylight Time)","642286","Trustworthy,Untrustworthy","","","","decisionFB","","null","","<div class='trialDiv'><img src='trustrating_stim/white_00761_941201_fb_edt.bmp'><br><font class='baseline'><strong>James</strong><p>Choose number of points to send.</font><div class='respPicDiv'><img src='img/responseButtonOffersNo0L2.png' class='respPic'></div></div>","null","3","James","6","Kept","0.65,0.2","9","0.65","trustrating_stim/white_00761_941201_fb_edt.bmp","6.5","29","8"
"html-keyboard-response","160","363715","0.0-19.0-3.7","63ecff07b619306f41db42fa","bdp_trlrn","Wed Mar 15 2023 20:30:30 GMT-0700 (Pacific Daylight Time)","642286","Trustworthy,Untrustworthy","","","","feedback","","null","","<div class='trialDiv'><img src='trustrating_stim/white_00761_941201_fb_edt.bmp'><br><font class='baseline'><strong>James</strong><p>Received: <strong>8</strong></font> &nbsp; &nbsp; &nbsp; &nbsp; &nbsp; &nbsp;<font class='negOutcome'>Shared back: <strong>0</strong></font></font><div class='respPicDiv'><img src='img/responseButtonOffersNo0_wht.png' class='respPic'></div></div>","null","3","James","6","Kept","0.65,0.2","9","0.65","trustrating_stim/white_00761_941201_fb_edt.bmp","6.5","29","8"
"html-keyboard-response","161","364942","0.0-19.0-1.8","63ecff07b619306f41db42fa","bdp_trlrn","Wed Mar 15 2023 20:30:30 GMT-0700 (Pacific Daylight Time)","642286","Trustworthy,Untrustworthy","","","","decision","","1227","","<div class='trialDiv'><img src='trustrating_stim/white_mw056.bmp'><br><font class='baseline'><strong>Daniel</strong><p>Choose number of points to send.</font><div class='respPicDiv'><img src='img/responseButtonOffersNo0L.png' class='respPic'></div></div>","1","3","Daniel","2","Kept","0.35,0.8","11","0.35","trustrating_stim/white_mw056.bmp","5","34","9"
"html-keyboard-response","162","365206","0.0-19.0-2.8","63ecff07b619306f41db42fa","bdp_trlrn","Wed Mar 15 2023 20:30:30 GMT-0700 (Pacific Daylight Time)","642286","Trustworthy,Untrustworthy","","","","decisionFB","","null","","<div class='trialDiv'><img src='trustrating_stim/white_mw056.bmp'><br><font class='baseline'><strong>Daniel</strong><p>Choose number of points to send.</font><div class='respPicDiv'><img src='img/responseButtonOffersNo0L1.png' class='respPic'></div></div>","null","3","Daniel","2","Kept","0.35,0.8","11","0.35","trustrating_stim/white_mw056.bmp","5","33","9"
"html-keyboard-response","163","366220","0.0-19.0-3.8","63ecff07b619306f41db42fa","bdp_trlrn","Wed Mar 15 2023 20:30:30 GMT-0700 (Pacific Daylight Time)","642286","Trustworthy,Untrustworthy","","","","feedback","","null","","<div class='trialDiv'><img src='trustrating_stim/white_mw056.bmp'><br><font class='baseline'><strong>Daniel</strong><p>Received: <strong>4</strong></font> &nbsp; &nbsp; &nbsp; &nbsp; &nbsp; &nbsp;<font class='negOutcome'>Shared back: <strong>0</strong></font></font><div class='respPicDiv'><img src='img/responseButtonOffersNo0_wht.png' class='respPic'></div></div>","null","3","Daniel","2","Kept","0.35,0.8","11","0.35","trustrating_stim/white_mw056.bmp","5","33","9"
"html-keyboard-response","164","366765","0.0-19.0-1.9","63ecff07b619306f41db42fa","bdp_trlrn","Wed Mar 15 2023 20:30:30 GMT-0700 (Pacific Daylight Time)","642286","Trustworthy,Untrustworthy","","","","decision","","544","","<div class='trialDiv'><img src='trustrating_stim/white_00602_940928_fb_edt.bmp'><br><font class='baseline'><strong>David</strong><p>Choose number of points to send.</font><div class='respPicDiv'><img src='img/responseButtonOffersNo0L.png' class='respPic'></div></div>","1","4","David","10","Shared","0.35,0.65","8","0.35","trustrating_stim/white_00602_940928_fb_edt.bmp","7.5","38","10"
"html-keyboard-response","165","367017","0.0-19.0-2.9","63ecff07b619306f41db42fa","bdp_trlrn","Wed Mar 15 2023 20:30:30 GMT-0700 (Pacific Daylight Time)","642286","Trustworthy,Untrustworthy","","","","decisionFB","","null","","<div class='trialDiv'><img src='trustrating_stim/white_00602_940928_fb_edt.bmp'><br><font class='baseline'><strong>David</strong><p>Choose number of points to send.</font><div class='respPicDiv'><img src='img/responseButtonOffersNo0L1.png' class='respPic'></div></div>","null","4","David","10","Shared","0.35,0.65","8","0.35","trustrating_stim/white_00602_940928_fb_edt.bmp","7.5","37","10"
"html-keyboard-response","166","368028","0.0-19.0-3.9","63ecff07b619306f41db42fa","bdp_trlrn","Wed Mar 15 2023 20:30:30 GMT-0700 (Pacific Daylight Time)","642286","Trustworthy,Untrustworthy","","","","feedback","","null","","<div class='trialDiv'><img src='trustrating_stim/white_00602_940928_fb_edt.bmp'><br><font class='baseline'><strong>David</strong><p>Received: <strong>4</strong></font> &nbsp; &nbsp; &nbsp; &nbsp; &nbsp; &nbsp;<font class='posOutcome'>Shared back: <strong>2</strong></font></font><div class='respPicDiv'><img src='img/responseButtonOffersNo0_wht.png' class='respPic'></div></div>","null","4","David","10","Shared","0.35,0.65","8","0.35","trustrating_stim/white_00602_940928_fb_edt.bmp","7.5","39","10"
"html-keyboard-response","167","368957","0.0-19.0-1.10","63ecff07b619306f41db42fa","bdp_trlrn","Wed Mar 15 2023 20:30:30 GMT-0700 (Pacific Daylight Time)","642286","Trustworthy,Untrustworthy","","","","decision","","928","","<div class='trialDiv'><img src='trustrating_stim/white_00761_941201_fb_edt.bmp'><br><font class='baseline'><strong>James</strong><p>Choose number of points to send.</font><div class='respPicDiv'><img src='img/responseButtonOffersNo0L.png' class='respPic'></div></div>","1","4","James","6","Shared","0.65,0.2","9","0.65","trustrating_stim/white_00761_941201_fb_edt.bmp","6.5","44","11"
"html-keyboard-response","168","369211","0.0-19.0-2.10","63ecff07b619306f41db42fa","bdp_trlrn","Wed Mar 15 2023 20:30:30 GMT-0700 (Pacific Daylight Time)","642286","Trustworthy,Untrustworthy","","","","decisionFB","","null","","<div class='trialDiv'><img src='trustrating_stim/white_00761_941201_fb_edt.bmp'><br><font class='baseline'><strong>James</strong><p>Choose number of points to send.</font><div class='respPicDiv'><img src='img/responseButtonOffersNo0L1.png' class='respPic'></div></div>","null","4","James","6","Shared","0.65,0.2","9","0.65","trustrating_stim/white_00761_941201_fb_edt.bmp","6.5","43","11"
"html-keyboard-response","169","370223","0.0-19.0-3.10","63ecff07b619306f41db42fa","bdp_trlrn","Wed Mar 15 2023 20:30:30 GMT-0700 (Pacific Daylight Time)","642286","Trustworthy,Untrustworthy","","","","feedback","","null","","<div class='trialDiv'><img src='trustrating_stim/white_00761_941201_fb_edt.bmp'><br><font class='baseline'><strong>James</strong><p>Received: <strong>4</strong></font> &nbsp; &nbsp; &nbsp; &nbsp; &nbsp; &nbsp;<font class='posOutcome'>Shared back: <strong>2</strong></font></font><div class='respPicDiv'><img src='img/responseButtonOffersNo0_wht.png' class='respPic'></div></div>","null","4","James","6","Shared","0.65,0.2","9","0.65","trustrating_stim/white_00761_941201_fb_edt.bmp","6.5","45","11"
"html-keyboard-response","170","371509","0.0-19.0-1.11","63ecff07b619306f41db42fa","bdp_trlrn","Wed Mar 15 2023 20:30:30 GMT-0700 (Pacific Daylight Time)","642286","Trustworthy,Untrustworthy","","","","decision","","1285","","<div class='trialDiv'><img src='trustrating_stim/white_mw056.bmp'><br><font class='baseline'><strong>Daniel</strong><p>Choose number of points to send.</font><div class='respPicDiv'><img src='img/responseButtonOffersNo0L.png' class='respPic'></div></div>","3","4","Daniel","2","Shared","0.35,0.8","11","0.35","trustrating_stim/white_mw056.bmp","5","50","12"
"html-keyboard-response","171","371764","0.0-19.0-2.11","63ecff07b619306f41db42fa","bdp_trlrn","Wed Mar 15 2023 20:30:30 GMT-0700 (Pacific Daylight Time)","642286","Trustworthy,Untrustworthy","","","","decisionFB","","null","","<div class='trialDiv'><img src='trustrating_stim/white_mw056.bmp'><br><font class='baseline'><strong>Daniel</strong><p>Choose number of points to send.</font><div class='respPicDiv'><img src='img/responseButtonOffersNo0L3.png' class='respPic'></div></div>","null","4","Daniel","2","Shared","0.35,0.8","11","0.35","trustrating_stim/white_mw056.bmp","5","47","12"
"html-keyboard-response","172","372775","0.0-19.0-3.11","63ecff07b619306f41db42fa","bdp_trlrn","Wed Mar 15 2023 20:30:30 GMT-0700 (Pacific Daylight Time)","642286","Trustworthy,Untrustworthy","","","","feedback","","null","","<div class='trialDiv'><img src='trustrating_stim/white_mw056.bmp'><br><font class='baseline'><strong>Daniel</strong><p>Received: <strong>12</strong></font> &nbsp; &nbsp; &nbsp; &nbsp; &nbsp; &nbsp;<font class='posOutcome'>Shared back: <strong>6</strong></font></font><div class='respPicDiv'><img src='img/responseButtonOffersNo0_wht.png' class='respPic'></div></div>","null","4","Daniel","2","Shared","0.35,0.8","11","0.35","trustrating_stim/white_mw056.bmp","5","53","12"
"html-keyboard-response","173","374113","0.0-19.0-1.12","63ecff07b619306f41db42fa","bdp_trlrn","Wed Mar 15 2023 20:30:30 GMT-0700 (Pacific Daylight Time)","642286","Trustworthy,Untrustworthy","","","","decision","","1338","","<div class='trialDiv'><img src='trustrating_stim/white_00602_940928_fb_edt.bmp'><br><font class='baseline'><strong>David</strong><p>Choose number of points to send.</font><div class='respPicDiv'><img src='img/responseButtonOffersNo0L.png' class='respPic'></div></div>","4","5","David","10","Shared","0.35,0.65","8","0.35","trustrating_stim/white_00602_940928_fb_edt.bmp","7.5","58","13"
"html-keyboard-response","174","374365","0.0-19.0-2.12","63ecff07b619306f41db42fa","bdp_trlrn","Wed Mar 15 2023 20:30:30 GMT-0700 (Pacific Daylight Time)","642286","Trustworthy,Untrustworthy","","","","decisionFB","","null","","<div class='trialDiv'><img src='trustrating_stim/white_00602_940928_fb_edt.bmp'><br><font class='baseline'><strong>David</strong><p>Choose number of points to send.</font><div class='respPicDiv'><img src='img/responseButtonOffersNo0L4.png' class='respPic'></div></div>","null","5","David","10","Shared","0.35,0.65","8","0.35","trustrating_stim/white_00602_940928_fb_edt.bmp","7.5","54","13"
"html-keyboard-response","175","375378","0.0-19.0-3.12","63ecff07b619306f41db42fa","bdp_trlrn","Wed Mar 15 2023 20:30:30 GMT-0700 (Pacific Daylight Time)","642286","Trustworthy,Untrustworthy","","","","feedback","","null","","<div class='trialDiv'><img src='trustrating_stim/white_00602_940928_fb_edt.bmp'><br><font class='baseline'><strong>David</strong><p>Received: <strong>16</strong></font> &nbsp; &nbsp; &nbsp; &nbsp; &nbsp; &nbsp;<font class='posOutcome'>Shared back: <strong>8</strong></font></font><div class='respPicDiv'><img src='img/responseButtonOffersNo0_wht.png' class='respPic'></div></div>","null","5","David","10","Shared","0.35,0.65","8","0.35","trustrating_stim/white_00602_940928_fb_edt.bmp","7.5","62","13"
"html-keyboard-response","176","376774","0.0-19.0-1.13","63ecff07b619306f41db42fa","bdp_trlrn","Wed Mar 15 2023 20:30:30 GMT-0700 (Pacific Daylight Time)","642286","Trustworthy,Untrustworthy","","","","decision","","1394","","<div class='trialDiv'><img src='trustrating_stim/white_00761_941201_fb_edt.bmp'><br><font class='baseline'><strong>James</strong><p>Choose number of points to send.</font><div class='respPicDiv'><img src='img/responseButtonOffersNo0L.png' class='respPic'></div></div>","4","5","James","6","Shared","0.65,0.2","9","0.65","trustrating_stim/white_00761_941201_fb_edt.bmp","6.5","67","14"
"html-keyboard-response","177","377029","0.0-19.0-2.13","63ecff07b619306f41db42fa","bdp_trlrn","Wed Mar 15 2023 20:30:30 GMT-0700 (Pacific Daylight Time)","642286","Trustworthy,Untrustworthy","","","","decisionFB","","null","","<div class='trialDiv'><img src='trustrating_stim/white_00761_941201_fb_edt.bmp'><br><font class='baseline'><strong>James</strong><p>Choose number of points to send.</font><div class='respPicDiv'><img src='img/responseButtonOffersNo0L4.png' class='respPic'></div></div>","null","5","James","6","Shared","0.65,0.2","9","0.65","trustrating_stim/white_00761_941201_fb_edt.bmp","6.5","63","14"
"html-keyboard-response","178","378042","0.0-19.0-3.13","63ecff07b619306f41db42fa","bdp_trlrn","Wed Mar 15 2023 20:30:30 GMT-0700 (Pacific Daylight Time)","642286","Trustworthy,Untrustworthy","","","","feedback","","null","","<div class='trialDiv'><img src='trustrating_stim/white_00761_941201_fb_edt.bmp'><br><font class='baseline'><strong>James</strong><p>Received: <strong>16</strong></font> &nbsp; &nbsp; &nbsp; &nbsp; &nbsp; &nbsp;<font class='posOutcome'>Shared back: <strong>8</strong></font></font><div class='respPicDiv'><img src='img/responseButtonOffersNo0_wht.png' class='respPic'></div></div>","null","5","James","6","Shared","0.65,0.2","9","0.65","trustrating_stim/white_00761_941201_fb_edt.bmp","6.5","71","14"
"html-keyboard-response","179","378729","0.0-19.0-1.14","63ecff07b619306f41db42fa","bdp_trlrn","Wed Mar 15 2023 20:30:30 GMT-0700 (Pacific Daylight Time)","642286","Trustworthy,Untrustworthy","","","","decision","","687","","<div class='trialDiv'><img src='trustrating_stim/white_mw056.bmp'><br><font class='baseline'><strong>Daniel</strong><p>Choose number of points to send.</font><div class='respPicDiv'><img src='img/responseButtonOffersNo0L.png' class='respPic'></div></div>","2","5","Daniel","2","Shared","0.35,0.8","11","0.35","trustrating_stim/white_mw056.bmp","5","76","15"
"html-keyboard-response","180","378993","0.0-19.0-2.14","63ecff07b619306f41db42fa","bdp_trlrn","Wed Mar 15 2023 20:30:30 GMT-0700 (Pacific Daylight Time)","642286","Trustworthy,Untrustworthy","","","","decisionFB","","null","","<div class='trialDiv'><img src='trustrating_stim/white_mw056.bmp'><br><font class='baseline'><strong>Daniel</strong><p>Choose number of points to send.</font><div class='respPicDiv'><img src='img/responseButtonOffersNo0L2.png' class='respPic'></div></div>","null","5","Daniel","2","Shared","0.35,0.8","11","0.35","trustrating_stim/white_mw056.bmp","5","74","15"
"html-keyboard-response","181","380000","0.0-19.0-3.14","63ecff07b619306f41db42fa","bdp_trlrn","Wed Mar 15 2023 20:30:30 GMT-0700 (Pacific Daylight Time)","642286","Trustworthy,Untrustworthy","","","","feedback","","null","","<div class='trialDiv'><img src='trustrating_stim/white_mw056.bmp'><br><font class='baseline'><strong>Daniel</strong><p>Received: <strong>8</strong></font> &nbsp; &nbsp; &nbsp; &nbsp; &nbsp; &nbsp;<font class='posOutcome'>Shared back: <strong>4</strong></font></font><div class='respPicDiv'><img src='img/responseButtonOffersNo0_wht.png' class='respPic'></div></div>","null","5","Daniel","2","Shared","0.35,0.8","11","0.35","trustrating_stim/white_mw056.bmp","5","78","15"
"html-keyboard-response","182","381646","0.0-19.0-1.15","63ecff07b619306f41db42fa","bdp_trlrn","Wed Mar 15 2023 20:30:30 GMT-0700 (Pacific Daylight Time)","642286","Trustworthy,Untrustworthy","","","","decision","","1644","","<div class='trialDiv'><img src='trustrating_stim/white_00602_940928_fb_edt.bmp'><br><font class='baseline'><strong>David</strong><p>Choose number of points to send.</font><div class='respPicDiv'><img src='img/responseButtonOffersNo0L.png' class='respPic'></div></div>","4","6","David","10","Shared","0.35,0.65","8","0.35","trustrating_stim/white_00602_940928_fb_edt.bmp","7.5","83","16"
"html-keyboard-response","183","381911","0.0-19.0-2.15","63ecff07b619306f41db42fa","bdp_trlrn","Wed Mar 15 2023 20:30:30 GMT-0700 (Pacific Daylight Time)","642286","Trustworthy,Untrustworthy","","","","decisionFB","","null","","<div class='trialDiv'><img src='trustrating_stim/white_00602_940928_fb_edt.bmp'><br><font class='baseline'><strong>David</strong><p>Choose number of points to send.</font><div class='respPicDiv'><img src='img/responseButtonOffersNo0L4.png' class='respPic'></div></div>","null","6","David","10","Shared","0.35,0.65","8","0.35","trustrating_stim/white_00602_940928_fb_edt.bmp","7.5","79","16"
"html-keyboard-response","184","382922","0.0-19.0-3.15","63ecff07b619306f41db42fa","bdp_trlrn","Wed Mar 15 2023 20:30:30 GMT-0700 (Pacific Daylight Time)","642286","Trustworthy,Untrustworthy","","","","feedback","","null","","<div class='trialDiv'><img src='trustrating_stim/white_00602_940928_fb_edt.bmp'><br><font class='baseline'><strong>David</strong><p>Received: <strong>16</strong></font> &nbsp; &nbsp; &nbsp; &nbsp; &nbsp; &nbsp;<font class='posOutcome'>Shared back: <strong>8</strong></font></font><div class='respPicDiv'><img src='img/responseButtonOffersNo0_wht.png' class='respPic'></div></div>","null","6","David","10","Shared","0.35,0.65","8","0.35","trustrating_stim/white_00602_940928_fb_edt.bmp","7.5","87","16"
"html-keyboard-response","185","385838","0.0-19.0-1.16","63ecff07b619306f41db42fa","bdp_trlrn","Wed Mar 15 2023 20:30:30 GMT-0700 (Pacific Daylight Time)","642286","Trustworthy,Untrustworthy","","","","decision","","2916","","<div class='trialDiv'><img src='trustrating_stim/white_mw056.bmp'><br><font class='baseline'><strong>Daniel</strong><p>Choose number of points to send.</font><div class='respPicDiv'><img src='img/responseButtonOffersNo0L.png' class='respPic'></div></div>","5","6","Daniel","2","Kept","0.35,0.8","11","0.35","trustrating_stim/white_mw056.bmp","5","92","17"
"html-keyboard-response","186","386101","0.0-19.0-2.16","63ecff07b619306f41db42fa","bdp_trlrn","Wed Mar 15 2023 20:30:30 GMT-0700 (Pacific Daylight Time)","642286","Trustworthy,Untrustworthy","","","","decisionFB","","null","","<div class='trialDiv'><img src='trustrating_stim/white_mw056.bmp'><br><font class='baseline'><strong>Daniel</strong><p>Choose number of points to send.</font><div class='respPicDiv'><img src='img/responseButtonOffersNo0L5.png' class='respPic'></div></div>","null","6","Daniel","2","Kept","0.35,0.8","11","0.35","trustrating_stim/white_mw056.bmp","5","87","17"
"html-keyboard-response","187","387115","0.0-19.0-3.16","63ecff07b619306f41db42fa","bdp_trlrn","Wed Mar 15 2023 20:30:30 GMT-0700 (Pacific Daylight Time)","642286","Trustworthy,Untrustworthy","","","","feedback","","null","","<div class='trialDiv'><img src='trustrating_stim/white_mw056.bmp'><br><font class='baseline'><strong>Daniel</strong><p>Received: <strong>20</strong></font> &nbsp; &nbsp; &nbsp; &nbsp; &nbsp; &nbsp;<font class='negOutcome'>Shared back: <strong>0</strong></font></font><div class='respPicDiv'><img src='img/responseButtonOffersNo0_wht.png' class='respPic'></div></div>","null","6","Daniel","2","Kept","0.35,0.8","11","0.35","trustrating_stim/white_mw056.bmp","5","87","17"
"html-keyboard-response","188","388309","0.0-19.0-1.17","63ecff07b619306f41db42fa","bdp_trlrn","Wed Mar 15 2023 20:30:30 GMT-0700 (Pacific Daylight Time)","642286","Trustworthy,Untrustworthy","","","","decision","","1193","","<div class='trialDiv'><img src='trustrating_stim/white_00761_941201_fb_edt.bmp'><br><font class='baseline'><strong>James</strong><p>Choose number of points to send.</font><div class='respPicDiv'><img src='img/responseButtonOffersNo0L.png' class='respPic'></div></div>","5","6","James","6","Kept","0.65,0.2","9","0.65","trustrating_stim/white_00761_941201_fb_edt.bmp","6.5","92","18"
"html-keyboard-response","189","388564","0.0-19.0-2.17","63ecff07b619306f41db42fa","bdp_trlrn","Wed Mar 15 2023 20:30:30 GMT-0700 (Pacific Daylight Time)","642286","Trustworthy,Untrustworthy","","","","decisionFB","","null","","<div class='trialDiv'><img src='trustrating_stim/white_00761_941201_fb_edt.bmp'><br><font class='baseline'><strong>James</strong><p>Choose number of points to send.</font><div class='respPicDiv'><img src='img/responseButtonOffersNo0L5.png' class='respPic'></div></div>","null","6","James","6","Kept","0.65,0.2","9","0.65","trustrating_stim/white_00761_941201_fb_edt.bmp","6.5","87","18"
"html-keyboard-response","190","389579","0.0-19.0-3.17","63ecff07b619306f41db42fa","bdp_trlrn","Wed Mar 15 2023 20:30:30 GMT-0700 (Pacific Daylight Time)","642286","Trustworthy,Untrustworthy","","","","feedback","","null","","<div class='trialDiv'><img src='trustrating_stim/white_00761_941201_fb_edt.bmp'><br><font class='baseline'><strong>James</strong><p>Received: <strong>20</strong></font> &nbsp; &nbsp; &nbsp; &nbsp; &nbsp; &nbsp;<font class='negOutcome'>Shared back: <strong>0</strong></font></font><div class='respPicDiv'><img src='img/responseButtonOffersNo0_wht.png' class='respPic'></div></div>","null","6","James","6","Kept","0.65,0.2","9","0.65","trustrating_stim/white_00761_941201_fb_edt.bmp","6.5","87","18"
"html-keyboard-response","191","390645","0.0-19.0-1.18","63ecff07b619306f41db42fa","bdp_trlrn","Wed Mar 15 2023 20:30:30 GMT-0700 (Pacific Daylight Time)","642286","Trustworthy,Untrustworthy","","","","decision","","1064","","<div class='trialDiv'><img src='trustrating_stim/white_00602_940928_fb_edt.bmp'><br><font class='baseline'><strong>David</strong><p>Choose number of points to send.</font><div class='respPicDiv'><img src='img/responseButtonOffersNo0L.png' class='respPic'></div></div>","1","7","David","10","Shared","0.35,0.65","8","0.35","trustrating_stim/white_00602_940928_fb_edt.bmp","7.5","92","19"
"html-keyboard-response","192","390903","0.0-19.0-2.18","63ecff07b619306f41db42fa","bdp_trlrn","Wed Mar 15 2023 20:30:30 GMT-0700 (Pacific Daylight Time)","642286","Trustworthy,Untrustworthy","","","","decisionFB","","null","","<div class='trialDiv'><img src='trustrating_stim/white_00602_940928_fb_edt.bmp'><br><font class='baseline'><strong>David</strong><p>Choose number of points to send.</font><div class='respPicDiv'><img src='img/responseButtonOffersNo0L1.png' class='respPic'></div></div>","null","7","David","10","Shared","0.35,0.65","8","0.35","trustrating_stim/white_00602_940928_fb_edt.bmp","7.5","91","19"
"html-keyboard-response","193","391919","0.0-19.0-3.18","63ecff07b619306f41db42fa","bdp_trlrn","Wed Mar 15 2023 20:30:30 GMT-0700 (Pacific Daylight Time)","642286","Trustworthy,Untrustworthy","","","","feedback","","null","","<div class='trialDiv'><img src='trustrating_stim/white_00602_940928_fb_edt.bmp'><br><font class='baseline'><strong>David</strong><p>Received: <strong>4</strong></font> &nbsp; &nbsp; &nbsp; &nbsp; &nbsp; &nbsp;<font class='posOutcome'>Shared back: <strong>2</strong></font></font><div class='respPicDiv'><img src='img/responseButtonOffersNo0_wht.png' class='respPic'></div></div>","null","7","David","10","Shared","0.35,0.65","8","0.35","trustrating_stim/white_00602_940928_fb_edt.bmp","7.5","93","19"
"html-keyboard-response","194","392837","0.0-19.0-1.19","63ecff07b619306f41db42fa","bdp_trlrn","Wed Mar 15 2023 20:30:30 GMT-0700 (Pacific Daylight Time)","642286","Trustworthy,Untrustworthy","","","","decision","","916","","<div class='trialDiv'><img src='trustrating_stim/white_mw056.bmp'><br><font class='baseline'><strong>Daniel</strong><p>Choose number of points to send.</font><div class='respPicDiv'><img src='img/responseButtonOffersNo0L.png' class='respPic'></div></div>","5","7","Daniel","2","Kept","0.35,0.8","11","0.35","trustrating_stim/white_mw056.bmp","5","98","20"
"html-keyboard-response","195","393098","0.0-19.0-2.19","63ecff07b619306f41db42fa","bdp_trlrn","Wed Mar 15 2023 20:30:30 GMT-0700 (Pacific Daylight Time)","642286","Trustworthy,Untrustworthy","","","","decisionFB","","null","","<div class='trialDiv'><img src='trustrating_stim/white_mw056.bmp'><br><font class='baseline'><strong>Daniel</strong><p>Choose number of points to send.</font><div class='respPicDiv'><img src='img/responseButtonOffersNo0L5.png' class='respPic'></div></div>","null","7","Daniel","2","Kept","0.35,0.8","11","0.35","trustrating_stim/white_mw056.bmp","5","93","20"
"html-keyboard-response","196","394114","0.0-19.0-3.19","63ecff07b619306f41db42fa","bdp_trlrn","Wed Mar 15 2023 20:30:30 GMT-0700 (Pacific Daylight Time)","642286","Trustworthy,Untrustworthy","","","","feedback","","null","","<div class='trialDiv'><img src='trustrating_stim/white_mw056.bmp'><br><font class='baseline'><strong>Daniel</strong><p>Received: <strong>20</strong></font> &nbsp; &nbsp; &nbsp; &nbsp; &nbsp; &nbsp;<font class='negOutcome'>Shared back: <strong>0</strong></font></font><div class='respPicDiv'><img src='img/responseButtonOffersNo0_wht.png' class='respPic'></div></div>","null","7","Daniel","2","Kept","0.35,0.8","11","0.35","trustrating_stim/white_mw056.bmp","5","93","20"
"html-keyboard-response","197","395445","0.0-19.0-1.20","63ecff07b619306f41db42fa","bdp_trlrn","Wed Mar 15 2023 20:30:30 GMT-0700 (Pacific Daylight Time)","642286","Trustworthy,Untrustworthy","","","","decision","","1329","","<div class='trialDiv'><img src='trustrating_stim/white_00761_941201_fb_edt.bmp'><br><font class='baseline'><strong>James</strong><p>Choose number of points to send.</font><div class='respPicDiv'><img src='img/responseButtonOffersNo0L.png' class='respPic'></div></div>","4","7","James","6","Kept","0.65,0.2","9","0.65","trustrating_stim/white_00761_941201_fb_edt.bmp","6.5","98","21"
"html-keyboard-response","198","395705","0.0-19.0-2.20","63ecff07b619306f41db42fa","bdp_trlrn","Wed Mar 15 2023 20:30:30 GMT-0700 (Pacific Daylight Time)","642286","Trustworthy,Untrustworthy","","","","decisionFB","","null","","<div class='trialDiv'><img src='trustrating_stim/white_00761_941201_fb_edt.bmp'><br><font class='baseline'><strong>James</strong><p>Choose number of points to send.</font><div class='respPicDiv'><img src='img/responseButtonOffersNo0L4.png' class='respPic'></div></div>","null","7","James","6","Kept","0.65,0.2","9","0.65","trustrating_stim/white_00761_941201_fb_edt.bmp","6.5","94","21"
"html-keyboard-response","199","396722","0.0-19.0-3.20","63ecff07b619306f41db42fa","bdp_trlrn","Wed Mar 15 2023 20:30:30 GMT-0700 (Pacific Daylight Time)","642286","Trustworthy,Untrustworthy","","","","feedback","","null","","<div class='trialDiv'><img src='trustrating_stim/white_00761_941201_fb_edt.bmp'><br><font class='baseline'><strong>James</strong><p>Received: <strong>16</strong></font> &nbsp; &nbsp; &nbsp; &nbsp; &nbsp; &nbsp;<font class='negOutcome'>Shared back: <strong>0</strong></font></font><div class='respPicDiv'><img src='img/responseButtonOffersNo0_wht.png' class='respPic'></div></div>","null","7","James","6","Kept","0.65,0.2","9","0.65","trustrating_stim/white_00761_941201_fb_edt.bmp","6.5","94","21"
"html-keyboard-response","200","397334","0.0-19.0-1.21","63ecff07b619306f41db42fa","bdp_trlrn","Wed Mar 15 2023 20:30:30 GMT-0700 (Pacific Daylight Time)","642286","Trustworthy,Untrustworthy","","","","decision","","611","","<div class='trialDiv'><img src='trustrating_stim/white_mw056.bmp'><br><font class='baseline'><strong>Daniel</strong><p>Choose number of points to send.</font><div class='respPicDiv'><img src='img/responseButtonOffersNo0L.png' class='respPic'></div></div>","1","8","Daniel","2","Kept","0.35,0.8","11","0.35","trustrating_stim/white_mw056.bmp","5","99","22"
"html-keyboard-response","201","397600","0.0-19.0-2.21","63ecff07b619306f41db42fa","bdp_trlrn","Wed Mar 15 2023 20:30:30 GMT-0700 (Pacific Daylight Time)","642286","Trustworthy,Untrustworthy","","","","decisionFB","","null","","<div class='trialDiv'><img src='trustrating_stim/white_mw056.bmp'><br><font class='baseline'><strong>Daniel</strong><p>Choose number of points to send.</font><div class='respPicDiv'><img src='img/responseButtonOffersNo0L1.png' class='respPic'></div></div>","null","8","Daniel","2","Kept","0.35,0.8","11","0.35","trustrating_stim/white_mw056.bmp","5","98","22"
"html-keyboard-response","202","398612","0.0-19.0-3.21","63ecff07b619306f41db42fa","bdp_trlrn","Wed Mar 15 2023 20:30:30 GMT-0700 (Pacific Daylight Time)","642286","Trustworthy,Untrustworthy","","","","feedback","","null","","<div class='trialDiv'><img src='trustrating_stim/white_mw056.bmp'><br><font class='baseline'><strong>Daniel</strong><p>Received: <strong>4</strong></font> &nbsp; &nbsp; &nbsp; &nbsp; &nbsp; &nbsp;<font class='negOutcome'>Shared back: <strong>0</strong></font></font><div class='respPicDiv'><img src='img/responseButtonOffersNo0_wht.png' class='respPic'></div></div>","null","8","Daniel","2","Kept","0.35,0.8","11","0.35","trustrating_stim/white_mw056.bmp","5","98","22"
"html-keyboard-response","203","399172","0.0-19.0-1.22","63ecff07b619306f41db42fa","bdp_trlrn","Wed Mar 15 2023 20:30:30 GMT-0700 (Pacific Daylight Time)","642286","Trustworthy,Untrustworthy","","","","decision","","559","","<div class='trialDiv'><img src='trustrating_stim/white_00602_940928_fb_edt.bmp'><br><font class='baseline'><strong>David</strong><p>Choose number of points to send.</font><div class='respPicDiv'><img src='img/responseButtonOffersNo0L.png' class='respPic'></div></div>","1","8","David","10","Kept","0.35,0.65","8","0.35","trustrating_stim/white_00602_940928_fb_edt.bmp","7.5","103","23"
"html-keyboard-response","204","399433","0.0-19.0-2.22","63ecff07b619306f41db42fa","bdp_trlrn","Wed Mar 15 2023 20:30:30 GMT-0700 (Pacific Daylight Time)","642286","Trustworthy,Untrustworthy","","","","decisionFB","","null","","<div class='trialDiv'><img src='trustrating_stim/white_00602_940928_fb_edt.bmp'><br><font class='baseline'><strong>David</strong><p>Choose number of points to send.</font><div class='respPicDiv'><img src='img/responseButtonOffersNo0L1.png' class='respPic'></div></div>","null","8","David","10","Kept","0.35,0.65","8","0.35","trustrating_stim/white_00602_940928_fb_edt.bmp","7.5","102","23"
"html-keyboard-response","205","400445","0.0-19.0-3.22","63ecff07b619306f41db42fa","bdp_trlrn","Wed Mar 15 2023 20:30:30 GMT-0700 (Pacific Daylight Time)","642286","Trustworthy,Untrustworthy","","","","feedback","","null","","<div class='trialDiv'><img src='trustrating_stim/white_00602_940928_fb_edt.bmp'><br><font class='baseline'><strong>David</strong><p>Received: <strong>4</strong></font> &nbsp; &nbsp; &nbsp; &nbsp; &nbsp; &nbsp;<font class='negOutcome'>Shared back: <strong>0</strong></font></font><div class='respPicDiv'><img src='img/responseButtonOffersNo0_wht.png' class='respPic'></div></div>","null","8","David","10","Kept","0.35,0.65","8","0.35","trustrating_stim/white_00602_940928_fb_edt.bmp","7.5","102","23"
"html-keyboard-response","206","400944","0.0-19.0-1.23","63ecff07b619306f41db42fa","bdp_trlrn","Wed Mar 15 2023 20:30:30 GMT-0700 (Pacific Daylight Time)","642286","Trustworthy,Untrustworthy","","","","decision","","497","","<div class='trialDiv'><img src='trustrating_stim/white_00761_941201_fb_edt.bmp'><br><font class='baseline'><strong>James</strong><p>Choose number of points to send.</font><div class='respPicDiv'><img src='img/responseButtonOffersNo0L.png' class='respPic'></div></div>","1","8","James","6","Kept","0.65,0.2","9","0.65","trustrating_stim/white_00761_941201_fb_edt.bmp","6.5","107","24"
"html-keyboard-response","207","401198","0.0-19.0-2.23","63ecff07b619306f41db42fa","bdp_trlrn","Wed Mar 15 2023 20:30:30 GMT-0700 (Pacific Daylight Time)","642286","Trustworthy,Untrustworthy","","","","decisionFB","","null","","<div class='trialDiv'><img src='trustrating_stim/white_00761_941201_fb_edt.bmp'><br><font class='baseline'><strong>James</strong><p>Choose number of points to send.</font><div class='respPicDiv'><img src='img/responseButtonOffersNo0L1.png' class='respPic'></div></div>","null","8","James","6","Kept","0.65,0.2","9","0.65","trustrating_stim/white_00761_941201_fb_edt.bmp","6.5","106","24"
"html-keyboard-response","208","402212","0.0-19.0-3.23","63ecff07b619306f41db42fa","bdp_trlrn","Wed Mar 15 2023 20:30:30 GMT-0700 (Pacific Daylight Time)","642286","Trustworthy,Untrustworthy","","","","feedback","","null","","<div class='trialDiv'><img src='trustrating_stim/white_00761_941201_fb_edt.bmp'><br><font class='baseline'><strong>James</strong><p>Received: <strong>4</strong></font> &nbsp; &nbsp; &nbsp; &nbsp; &nbsp; &nbsp;<font class='negOutcome'>Shared back: <strong>0</strong></font></font><div class='respPicDiv'><img src='img/responseButtonOffersNo0_wht.png' class='respPic'></div></div>","null","8","James","6","Kept","0.65,0.2","9","0.65","trustrating_stim/white_00761_941201_fb_edt.bmp","6.5","106","24"
"html-keyboard-response","209","402561","0.0-19.0-1.24","63ecff07b619306f41db42fa","bdp_trlrn","Wed Mar 15 2023 20:30:30 GMT-0700 (Pacific Daylight Time)","642286","Trustworthy,Untrustworthy","","","","decision","","348","","<div class='trialDiv'><img src='trustrating_stim/white_00602_940928_fb_edt.bmp'><br><font class='baseline'><strong>David</strong><p>Choose number of points to send.</font><div class='respPicDiv'><img src='img/responseButtonOffersNo0L.png' class='respPic'></div></div>","1","9","David","10","Kept","0.35,0.65","8","0.35","trustrating_stim/white_00602_940928_fb_edt.bmp","7.5","111","25"
"html-keyboard-response","210","402820","0.0-19.0-2.24","63ecff07b619306f41db42fa","bdp_trlrn","Wed Mar 15 2023 20:30:30 GMT-0700 (Pacific Daylight Time)","642286","Trustworthy,Untrustworthy","","","","decisionFB","","null","","<div class='trialDiv'><img src='trustrating_stim/white_00602_940928_fb_edt.bmp'><br><font class='baseline'><strong>David</strong><p>Choose number of points to send.</font><div class='respPicDiv'><img src='img/responseButtonOffersNo0L1.png' class='respPic'></div></div>","null","9","David","10","Kept","0.35,0.65","8","0.35","trustrating_stim/white_00602_940928_fb_edt.bmp","7.5","110","25"
"html-keyboard-response","211","403834","0.0-19.0-3.24","63ecff07b619306f41db42fa","bdp_trlrn","Wed Mar 15 2023 20:30:30 GMT-0700 (Pacific Daylight Time)","642286","Trustworthy,Untrustworthy","","","","feedback","","null","","<div class='trialDiv'><img src='trustrating_stim/white_00602_940928_fb_edt.bmp'><br><font class='baseline'><strong>David</strong><p>Received: <strong>4</strong></font> &nbsp; &nbsp; &nbsp; &nbsp; &nbsp; &nbsp;<font class='negOutcome'>Shared back: <strong>0</strong></font></font><div class='respPicDiv'><img src='img/responseButtonOffersNo0_wht.png' class='respPic'></div></div>","null","9","David","10","Kept","0.35,0.65","8","0.35","trustrating_stim/white_00602_940928_fb_edt.bmp","7.5","110","25"
"html-keyboard-response","212","404589","0.0-19.0-1.25","63ecff07b619306f41db42fa","bdp_trlrn","Wed Mar 15 2023 20:30:30 GMT-0700 (Pacific Daylight Time)","642286","Trustworthy,Untrustworthy","","","","decision","","754","","<div class='trialDiv'><img src='trustrating_stim/white_00761_941201_fb_edt.bmp'><br><font class='baseline'><strong>James</strong><p>Choose number of points to send.</font><div class='respPicDiv'><img src='img/responseButtonOffersNo0L.png' class='respPic'></div></div>","1","9","James","6","Kept","0.65,0.2","9","0.65","trustrating_stim/white_00761_941201_fb_edt.bmp","6.5","115","26"
"html-keyboard-response","213","404845","0.0-19.0-2.25","63ecff07b619306f41db42fa","bdp_trlrn","Wed Mar 15 2023 20:30:30 GMT-0700 (Pacific Daylight Time)","642286","Trustworthy,Untrustworthy","","","","decisionFB","","null","","<div class='trialDiv'><img src='trustrating_stim/white_00761_941201_fb_edt.bmp'><br><font class='baseline'><strong>James</strong><p>Choose number of points to send.</font><div class='respPicDiv'><img src='img/responseButtonOffersNo0L1.png' class='respPic'></div></div>","null","9","James","6","Kept","0.65,0.2","9","0.65","trustrating_stim/white_00761_941201_fb_edt.bmp","6.5","114","26"
"html-keyboard-response","214","405847","0.0-19.0-3.25","63ecff07b619306f41db42fa","bdp_trlrn","Wed Mar 15 2023 20:30:30 GMT-0700 (Pacific Daylight Time)","642286","Trustworthy,Untrustworthy","","","","feedback","","null","","<div class='trialDiv'><img src='trustrating_stim/white_00761_941201_fb_edt.bmp'><br><font class='baseline'><strong>James</strong><p>Received: <strong>4</strong></font> &nbsp; &nbsp; &nbsp; &nbsp; &nbsp; &nbsp;<font class='negOutcome'>Shared back: <strong>0</strong></font></font><div class='respPicDiv'><img src='img/responseButtonOffersNo0_wht.png' class='respPic'></div></div>","null","9","James","6","Kept","0.65,0.2","9","0.65","trustrating_stim/white_00761_941201_fb_edt.bmp","6.5","114","26"
"html-keyboard-response","215","406469","0.0-19.0-1.26","63ecff07b619306f41db42fa","bdp_trlrn","Wed Mar 15 2023 20:30:30 GMT-0700 (Pacific Daylight Time)","642286","Trustworthy,Untrustworthy","","","","decision","","621","","<div class='trialDiv'><img src='trustrating_stim/white_mw056.bmp'><br><font class='baseline'><strong>Daniel</strong><p>Choose number of points to send.</font><div class='respPicDiv'><img src='img/responseButtonOffersNo0L.png' class='respPic'></div></div>","1","9","Daniel","2","Kept","0.35,0.8","11","0.35","trustrating_stim/white_mw056.bmp","5","119","27"
"html-keyboard-response","216","406736","0.0-19.0-2.26","63ecff07b619306f41db42fa","bdp_trlrn","Wed Mar 15 2023 20:30:30 GMT-0700 (Pacific Daylight Time)","642286","Trustworthy,Untrustworthy","","","","decisionFB","","null","","<div class='trialDiv'><img src='trustrating_stim/white_mw056.bmp'><br><font class='baseline'><strong>Daniel</strong><p>Choose number of points to send.</font><div class='respPicDiv'><img src='img/responseButtonOffersNo0L1.png' class='respPic'></div></div>","null","9","Daniel","2","Kept","0.35,0.8","11","0.35","trustrating_stim/white_mw056.bmp","5","118","27"
"html-keyboard-response","217","407748","0.0-19.0-3.26","63ecff07b619306f41db42fa","bdp_trlrn","Wed Mar 15 2023 20:30:30 GMT-0700 (Pacific Daylight Time)","642286","Trustworthy,Untrustworthy","","","","feedback","","null","","<div class='trialDiv'><img src='trustrating_stim/white_mw056.bmp'><br><font class='baseline'><strong>Daniel</strong><p>Received: <strong>4</strong></font> &nbsp; &nbsp; &nbsp; &nbsp; &nbsp; &nbsp;<font class='negOutcome'>Shared back: <strong>0</strong></font></font><div class='respPicDiv'><img src='img/responseButtonOffersNo0_wht.png' class='respPic'></div></div>","null","9","Daniel","2","Kept","0.35,0.8","11","0.35","trustrating_stim/white_mw056.bmp","5","118","27"
"html-keyboard-response","218","408144","0.0-19.0-1.27","63ecff07b619306f41db42fa","bdp_trlrn","Wed Mar 15 2023 20:30:30 GMT-0700 (Pacific Daylight Time)","642286","Trustworthy,Untrustworthy","","","","decision","","396","","<div class='trialDiv'><img src='trustrating_stim/white_00761_941201_fb_edt.bmp'><br><font class='baseline'><strong>James</strong><p>Choose number of points to send.</font><div class='respPicDiv'><img src='img/responseButtonOffersNo0L.png' class='respPic'></div></div>","2","10","James","6","Kept","0.65,0.2","9","0.65","trustrating_stim/white_00761_941201_fb_edt.bmp","6.5","123","28"
"html-keyboard-response","219","408401","0.0-19.0-2.27","63ecff07b619306f41db42fa","bdp_trlrn","Wed Mar 15 2023 20:30:30 GMT-0700 (Pacific Daylight Time)","642286","Trustworthy,Untrustworthy","","","","decisionFB","","null","","<div class='trialDiv'><img src='trustrating_stim/white_00761_941201_fb_edt.bmp'><br><font class='baseline'><strong>James</strong><p>Choose number of points to send.</font><div class='respPicDiv'><img src='img/responseButtonOffersNo0L2.png' class='respPic'></div></div>","null","10","James","6","Kept","0.65,0.2","9","0.65","trustrating_stim/white_00761_941201_fb_edt.bmp","6.5","121","28"
