"trial_type","trial_index","time_elapsed","internal_node_id","subject_id","task","startTime","totalTime","labels","view_history","rt","event","trial","time","trialtype","success","stimulus","key_press","aground","name","faceID","outcome","agenttype","agentswpt","agentcurrpshare","face","avgRating","point_total","round"
"pavlovia","0","11","0.0-0.0","615e68b3f55d1cf5f6defc2a","bdp_trlrn","Tue Mar 14 2023 18:16:27 GMT-0700 (Pacific Daylight Time)","665127","Untrustworthy,Trustworthy","","","","","","","","","","","","","","","","","","","",""
"instructions","1","8333","0.0-1.0","615e68b3f55d1cf5f6defc2a","bdp_trlrn","Tue Mar 14 2023 18:16:27 GMT-0700 (Pacific Daylight Time)","665127","Untrustworthy,Trustworthy","[{""page_index"":0,""viewing_time"":8319}]","8320","","","","","","","","","","","","","","","","","",""
"","","","","615e68b3f55d1cf5f6defc2a","bdp_trlrn","Tue Mar 14 2023 18:16:27 GMT-0700 (Pacific Daylight Time)","665127","Untrustworthy,Trustworthy","","","fullscreenenter","2","16550","fullscreenenter","","","","","","","","","","","","","",""
"fullscreen","2","17542","0.0-2.0","615e68b3f55d1cf5f6defc2a","bdp_trlrn","Tue Mar 14 2023 18:16:27 GMT-0700 (Pacific Daylight Time)","665127","Untrustworthy,Trustworthy","","","","","","","true","","","","","","","","","","","","",""
"instructions","3","27329","0.0-4.0","615e68b3f55d1cf5f6defc2a","bdp_trlrn","Tue Mar 14 2023 18:16:27 GMT-0700 (Pacific Daylight Time)","665127","Untrustworthy,Trustworthy","[{""page_index"":0,""viewing_time"":8545},{""page_index"":1,""viewing_time"":1240}]","9785","","","","","","","","","","","","","","","","","",""
"instructions","4","29142","0.0-5.0","615e68b3f55d1cf5f6defc2a","bdp_trlrn","Tue Mar 14 2023 18:16:27 GMT-0700 (Pacific Daylight Time)","665127","Untrustworthy,Trustworthy","[{""page_index"":0,""viewing_time"":1812}]","1812","","","","","","","","","","","","","","","","","",""
"image-keyboard-response","5","33793","0.0-6.0-1.0","615e68b3f55d1cf5f6defc2a","bdp_trlrn","Tue Mar 14 2023 18:16:27 GMT-0700 (Pacific Daylight Time)","665127","Untrustworthy,Trustworthy","","4542","","","","rating","","trustrating_stim/white_00898_960530_fa_edt.bmp","5","","","","","","","","","","",""
"image-keyboard-response","6","33998","0.0-6.0-2.0","615e68b3f55d1cf5f6defc2a","bdp_trlrn","Tue Mar 14 2023 18:16:27 GMT-0700 (Pacific Daylight Time)","665127","Untrustworthy,Trustworthy","","null","","","","ratingFB","","trustrating_stim/white_00898_960530_fa_edt.bmp","null","","","","","","","","","","",""
"image-keyboard-response","7","38022","0.0-6.0-1.1","615e68b3f55d1cf5f6defc2a","bdp_trlrn","Tue Mar 14 2023 18:16:27 GMT-0700 (Pacific Daylight Time)","665127","Untrustworthy,Trustworthy","","3919","","","","rating","","trustrating_stim/white_00223_940128_fb_edt.bmp","5","","","","","","","","","","",""
"image-keyboard-response","8","38230","0.0-6.0-2.1","615e68b3f55d1cf5f6defc2a","bdp_trlrn","Tue Mar 14 2023 18:16:27 GMT-0700 (Pacific Daylight Time)","665127","Untrustworthy,Trustworthy","","null","","","","ratingFB","","trustrating_stim/white_00223_940128_fb_edt.bmp","null","","","","","","","","","","",""
"image-keyboard-response","9","40424","0.0-6.0-1.2","615e68b3f55d1cf5f6defc2a","bdp_trlrn","Tue Mar 14 2023 18:16:27 GMT-0700 (Pacific Daylight Time)","665127","Untrustworthy,Trustworthy","","2088","","","","rating","","trustrating_stim/white_mw060.bmp","4","","","","","","","","","","",""
"image-keyboard-response","10","40630","0.0-6.0-2.2","615e68b3f55d1cf5f6defc2a","bdp_trlrn","Tue Mar 14 2023 18:16:27 GMT-0700 (Pacific Daylight Time)","665127","Untrustworthy,Trustworthy","","null","","","","ratingFB","","trustrating_stim/white_mw060.bmp","null","","","","","","","","","","",""
"image-keyboard-response","11","43184","0.0-6.0-1.3","615e68b3f55d1cf5f6defc2a","bdp_trlrn","Tue Mar 14 2023 18:16:27 GMT-0700 (Pacific Daylight Time)","665127","Untrustworthy,Trustworthy","","2448","","","","rating","","trustrating_stim/white_00785_941205_fb_edt.bmp","2","","","","","","","","","","",""
"image-keyboard-response","12","43390","0.0-6.0-2.3","615e68b3f55d1cf5f6defc2a","bdp_trlrn","Tue Mar 14 2023 18:16:27 GMT-0700 (Pacific Daylight Time)","665127","Untrustworthy,Trustworthy","","null","","","","ratingFB","","trustrating_stim/white_00785_941205_fb_edt.bmp","null","","","","","","","","","","",""
"image-keyboard-response","13","45794","0.0-6.0-1.4","615e68b3f55d1cf5f6defc2a","bdp_trlrn","Tue Mar 14 2023 18:16:27 GMT-0700 (Pacific Daylight Time)","665127","Untrustworthy,Trustworthy","","2298","","","","rating","","trustrating_stim/white_00129_931230_fb_edt.bmp","4","","","","","","","","","","",""
"image-keyboard-response","14","45998","0.0-6.0-2.4","615e68b3f55d1cf5f6defc2a","bdp_trlrn","Tue Mar 14 2023 18:16:27 GMT-0700 (Pacific Daylight Time)","665127","Untrustworthy,Trustworthy","","null","","","","ratingFB","","trustrating_stim/white_00129_931230_fb_edt.bmp","null","","","","","","","","","","",""
"image-keyboard-response","15","47571","0.0-6.0-1.5","615e68b3f55d1cf5f6defc2a","bdp_trlrn","Tue Mar 14 2023 18:16:27 GMT-0700 (Pacific Daylight Time)","665127","Untrustworthy,Trustworthy","","1467","","","","rating","","trustrating_stim/white_00659_941121_fa_edt.bmp","4","","","","","","","","","","",""
"image-keyboard-response","16","47774","0.0-6.0-2.5","615e68b3f55d1cf5f6defc2a","bdp_trlrn","Tue Mar 14 2023 18:16:27 GMT-0700 (Pacific Daylight Time)","665127","Untrustworthy,Trustworthy","","null","","","","ratingFB","","trustrating_stim/white_00659_941121_fa_edt.bmp","null","","","","","","","","","","",""
"image-keyboard-response","17","49604","0.0-6.0-1.6","615e68b3f55d1cf5f6defc2a","bdp_trlrn","Tue Mar 14 2023 18:16:27 GMT-0700 (Pacific Daylight Time)","665127","Untrustworthy,Trustworthy","","1725","","","","rating","","trustrating_stim/white_mw053.bmp","6","","","","","","","","","","",""
"image-keyboard-response","18","49814","0.0-6.0-2.6","615e68b3f55d1cf5f6defc2a","bdp_trlrn","Tue Mar 14 2023 18:16:27 GMT-0700 (Pacific Daylight Time)","665127","Untrustworthy,Trustworthy","","null","","","","ratingFB","","trustrating_stim/white_mw053.bmp","null","","","","","","","","","","",""
"image-keyboard-response","19","51744","0.0-6.0-1.7","615e68b3f55d1cf5f6defc2a","bdp_trlrn","Tue Mar 14 2023 18:16:27 GMT-0700 (Pacific Daylight Time)","665127","Untrustworthy,Trustworthy","","1824","","","","rating","","trustrating_stim/white_00519_940519_fb_edt.bmp","6","","","","","","","","","","",""
"image-keyboard-response","20","51950","0.0-6.0-2.7","615e68b3f55d1cf5f6defc2a","bdp_trlrn","Tue Mar 14 2023 18:16:27 GMT-0700 (Pacific Daylight Time)","665127","Untrustworthy,Trustworthy","","null","","","","ratingFB","","trustrating_stim/white_00519_940519_fb_edt.bmp","null","","","","","","","","","","",""
"image-keyboard-response","21","54033","0.0-6.0-1.8","615e68b3f55d1cf5f6defc2a","bdp_trlrn","Tue Mar 14 2023 18:16:27 GMT-0700 (Pacific Daylight Time)","665127","Untrustworthy,Trustworthy","","1979","","","","rating","","trustrating_stim/white_00577_940928_fa_edt.bmp","3","","","","","","","","","","",""
"image-keyboard-response","22","54238","0.0-6.0-2.8","615e68b3f55d1cf5f6defc2a","bdp_trlrn","Tue Mar 14 2023 18:16:27 GMT-0700 (Pacific Daylight Time)","665127","Untrustworthy,Trustworthy","","null","","","","ratingFB","","trustrating_stim/white_00577_940928_fa_edt.bmp","null","","","","","","","","","","",""
"image-keyboard-response","23","55546","0.0-6.0-1.9","615e68b3f55d1cf5f6defc2a","bdp_trlrn","Tue Mar 14 2023 18:16:27 GMT-0700 (Pacific Daylight Time)","665127","Untrustworthy,Trustworthy","","1202","","","","rating","","trustrating_stim/white_mw056.bmp","3","","","","","","","","","","",""
"image-keyboard-response","24","55750","0.0-6.0-2.9","615e68b3f55d1cf5f6defc2a","bdp_trlrn","Tue Mar 14 2023 18:16:27 GMT-0700 (Pacific Daylight Time)","665127","Untrustworthy,Trustworthy","","null","","","","ratingFB","","trustrating_stim/white_mw056.bmp","null","","","","","","","","","","",""
"image-keyboard-response","25","58382","0.0-6.0-1.10","615e68b3f55d1cf5f6defc2a","bdp_trlrn","Tue Mar 14 2023 18:16:27 GMT-0700 (Pacific Daylight Time)","665127","Untrustworthy,Trustworthy","","2528","","","","rating","","trustrating_stim/white_mw046.bmp","2","","","","","","","","","","",""
"image-keyboard-response","26","58590","0.0-6.0-2.10","615e68b3f55d1cf5f6defc2a","bdp_trlrn","Tue Mar 14 2023 18:16:27 GMT-0700 (Pacific Daylight Time)","665127","Untrustworthy,Trustworthy","","null","","","","ratingFB","","trustrating_stim/white_mw046.bmp","null","","","","","","","","","","",""
"image-keyboard-response","27","59909","0.0-6.0-1.11","615e68b3f55d1cf5f6defc2a","bdp_trlrn","Tue Mar 14 2023 18:16:27 GMT-0700 (Pacific Daylight Time)","665127","Untrustworthy,Trustworthy","","1214","","","","rating","","trustrating_stim/white_00757_941201_fa_edt.bmp","1","","","","","","","","","","",""
"image-keyboard-response","28","60118","0.0-6.0-2.11","615e68b3f55d1cf5f6defc2a","bdp_trlrn","Tue Mar 14 2023 18:16:27 GMT-0700 (Pacific Daylight Time)","665127","Untrustworthy,Trustworthy","","null","","","","ratingFB","","trustrating_stim/white_00757_941201_fa_edt.bmp","null","","","","","","","","","","",""
"image-keyboard-response","29","62150","0.0-6.0-1.12","615e68b3f55d1cf5f6defc2a","bdp_trlrn","Tue Mar 14 2023 18:16:27 GMT-0700 (Pacific Daylight Time)","665127","Untrustworthy,Trustworthy","","1926","","","","rating","","trustrating_stim/white_00299_940422_fa_edt.bmp","7","","","","","","","","","","",""
"image-keyboard-response","30","62358","0.0-6.0-2.12","615e68b3f55d1cf5f6defc2a","bdp_trlrn","Tue Mar 14 2023 18:16:27 GMT-0700 (Pacific Daylight Time)","665127","Untrustworthy,Trustworthy","","null","","","","ratingFB","","trustrating_stim/white_00299_940422_fa_edt.bmp","null","","","","","","","","","","",""
"image-keyboard-response","31","64690","0.0-6.0-1.13","615e68b3f55d1cf5f6defc2a","bdp_trlrn","Tue Mar 14 2023 18:16:27 GMT-0700 (Pacific Daylight Time)","665127","Untrustworthy,Trustworthy","","2227","","","","rating","","trustrating_stim/white_mw063.bmp","4","","","","","","","","","","",""
"image-keyboard-response","32","64894","0.0-6.0-2.13","615e68b3f55d1cf5f6defc2a","bdp_trlrn","Tue Mar 14 2023 18:16:27 GMT-0700 (Pacific Daylight Time)","665127","Untrustworthy,Trustworthy","","null","","","","ratingFB","","trustrating_stim/white_mw063.bmp","null","","","","","","","","","","",""
"image-keyboard-response","33","66409","0.0-6.0-1.14","615e68b3f55d1cf5f6defc2a","bdp_trlrn","Tue Mar 14 2023 18:16:27 GMT-0700 (Pacific Daylight Time)","665127","Untrustworthy,Trustworthy","","1410","","","","rating","","trustrating_stim/white_00340_940422_fa_edt.bmp","1","","","","","","","","","","",""
"image-keyboard-response","34","66614","0.0-6.0-2.14","615e68b3f55d1cf5f6defc2a","bdp_trlrn","Tue Mar 14 2023 18:16:27 GMT-0700 (Pacific Daylight Time)","665127","Untrustworthy,Trustworthy","","null","","","","ratingFB","","trustrating_stim/white_00340_940422_fa_edt.bmp","null","","","","","","","","","","",""
"image-keyboard-response","35","68994","0.0-6.0-1.15","615e68b3f55d1cf5f6defc2a","bdp_trlrn","Tue Mar 14 2023 18:16:27 GMT-0700 (Pacific Daylight Time)","665127","Untrustworthy,Trustworthy","","2275","","","","rating","","trustrating_stim/white_mw089.bmp","7","","","","","","","","","","",""
"image-keyboard-response","36","69198","0.0-6.0-2.15","615e68b3f55d1cf5f6defc2a","bdp_trlrn","Tue Mar 14 2023 18:16:27 GMT-0700 (Pacific Daylight Time)","665127","Untrustworthy,Trustworthy","","null","","","","ratingFB","","trustrating_stim/white_mw089.bmp","null","","","","","","","","","","",""
"image-keyboard-response","37","70567","0.0-6.0-1.16","615e68b3f55d1cf5f6defc2a","bdp_trlrn","Tue Mar 14 2023 18:16:27 GMT-0700 (Pacific Daylight Time)","665127","Untrustworthy,Trustworthy","","1264","","","","rating","","trustrating_stim/white_mw035.bmp","7","","","","","","","","","","",""
"image-keyboard-response","38","70774","0.0-6.0-2.16","615e68b3f55d1cf5f6defc2a","bdp_trlrn","Tue Mar 14 2023 18:16:27 GMT-0700 (Pacific Daylight Time)","665127","Untrustworthy,Trustworthy","","null","","","","ratingFB","","trustrating_stim/white_mw035.bmp","null","","","","","","","","","","",""
"image-keyboard-response","39","72605","0.0-6.0-1.17","615e68b3f55d1cf5f6defc2a","bdp_trlrn","Tue Mar 14 2023 18:16:27 GMT-0700 (Pacific Daylight Time)","665127","Untrustworthy,Trustworthy","","1727","","","","rating","","trustrating_stim/white_00120_931230_fa_edt.bmp","7","","","","","","","","","","",""
"image-keyboard-response","40","72814","0.0-6.0-2.17","615e68b3f55d1cf5f6defc2a","bdp_trlrn","Tue Mar 14 2023 18:16:27 GMT-0700 (Pacific Daylight Time)","665127","Untrustworthy,Trustworthy","","null","","","","ratingFB","","trustrating_stim/white_00120_931230_fa_edt.bmp","null","","","","","","","","","","",""
"image-keyboard-response","41","74280","0.0-6.0-1.18","615e68b3f55d1cf5f6defc2a","bdp_trlrn","Tue Mar 14 2023 18:16:27 GMT-0700 (Pacific Daylight Time)","665127","Untrustworthy,Trustworthy","","1362","","","","rating","","trustrating_stim/white_mw066.bmp","8","","","","","","","","","","",""
"image-keyboard-response","42","74486","0.0-6.0-2.18","615e68b3f55d1cf5f6defc2a","bdp_trlrn","Tue Mar 14 2023 18:16:27 GMT-0700 (Pacific Daylight Time)","665127","Untrustworthy,Trustworthy","","null","","","","ratingFB","","trustrating_stim/white_mw066.bmp","null","","","","","","","","","","",""
"image-keyboard-response","43","76517","0.0-6.0-1.19","615e68b3f55d1cf5f6defc2a","bdp_trlrn","Tue Mar 14 2023 18:16:27 GMT-0700 (Pacific Daylight Time)","665127","Untrustworthy,Trustworthy","","1925","","","","rating","","trustrating_stim/white_00761_941201_fb_edt.bmp","8","","","","","","","","","","",""
"image-keyboard-response","44","76726","0.0-6.0-2.19","615e68b3f55d1cf5f6defc2a","bdp_trlrn","Tue Mar 14 2023 18:16:27 GMT-0700 (Pacific Daylight Time)","665127","Untrustworthy,Trustworthy","","null","","","","ratingFB","","trustrating_stim/white_00761_941201_fb_edt.bmp","null","","","","","","","","","","",""
"image-keyboard-response","45","78604","0.0-6.0-1.20","615e68b3f55d1cf5f6defc2a","bdp_trlrn","Tue Mar 14 2023 18:16:27 GMT-0700 (Pacific Daylight Time)","665127","Untrustworthy,Trustworthy","","1773","","","","rating","","trustrating_stim/white_mw033.bmp","7","","","","","","","","","","",""
"image-keyboard-response","46","78814","0.0-6.0-2.20","615e68b3f55d1cf5f6defc2a","bdp_trlrn","Tue Mar 14 2023 18:16:27 GMT-0700 (Pacific Daylight Time)","665127","Untrustworthy,Trustworthy","","null","","","","ratingFB","","trustrating_stim/white_mw033.bmp","null","","","","","","","","","","",""
"image-keyboard-response","47","80548","0.0-6.0-1.21","615e68b3f55d1cf5f6defc2a","bdp_trlrn","Tue Mar 14 2023 18:16:27 GMT-0700 (Pacific Daylight Time)","665127","Untrustworthy,Trustworthy","","1629","","","","rating","","trustrating_stim/white_mw049.bmp","6","","","","","","","","","","",""
"image-keyboard-response","48","80750","0.0-6.0-2.21","615e68b3f55d1cf5f6defc2a","bdp_trlrn","Tue Mar 14 2023 18:16:27 GMT-0700 (Pacific Daylight Time)","665127","Untrustworthy,Trustworthy","","null","","","","ratingFB","","trustrating_stim/white_mw049.bmp","null","","","","","","","","","","",""
"image-keyboard-response","49","82586","0.0-6.0-1.22","615e68b3f55d1cf5f6defc2a","bdp_trlrn","Tue Mar 14 2023 18:16:27 GMT-0700 (Pacific Daylight Time)","665127","Untrustworthy,Trustworthy","","1731","","","","rating","","trustrating_stim/white_mw048.bmp","6","","","","","","","","","","",""
"image-keyboard-response","50","82790","0.0-6.0-2.22","615e68b3f55d1cf5f6defc2a","bdp_trlrn","Tue Mar 14 2023 18:16:27 GMT-0700 (Pacific Daylight Time)","665127","Untrustworthy,Trustworthy","","null","","","","ratingFB","","trustrating_stim/white_mw048.bmp","null","","","","","","","","","","",""
"image-keyboard-response","51","85733","0.0-6.0-1.23","615e68b3f55d1cf5f6defc2a","bdp_trlrn","Tue Mar 14 2023 18:16:27 GMT-0700 (Pacific Daylight Time)","665127","Untrustworthy,Trustworthy","","2838","","","","rating","","trustrating_stim/white_00807_941205_fb_edt.bmp","2","","","","","","","","","","",""
"image-keyboard-response","52","85942","0.0-6.0-2.23","615e68b3f55d1cf5f6defc2a","bdp_trlrn","Tue Mar 14 2023 18:16:27 GMT-0700 (Pacific Daylight Time)","665127","Untrustworthy,Trustworthy","","null","","","","ratingFB","","trustrating_stim/white_00807_941205_fb_edt.bmp","null","","","","","","","","","","",""
"image-keyboard-response","53","87684","0.0-6.0-1.24","615e68b3f55d1cf5f6defc2a","bdp_trlrn","Tue Mar 14 2023 18:16:27 GMT-0700 (Pacific Daylight Time)","665127","Untrustworthy,Trustworthy","","1637","","","","rating","","trustrating_stim/white_00602_940928_fb_edt.bmp","8","","","","","","","","","","",""
"image-keyboard-response","54","87894","0.0-6.0-2.24","615e68b3f55d1cf5f6defc2a","bdp_trlrn","Tue Mar 14 2023 18:16:27 GMT-0700 (Pacific Daylight Time)","665127","Untrustworthy,Trustworthy","","null","","","","ratingFB","","trustrating_stim/white_00602_940928_fb_edt.bmp","null","","","","","","","","","","",""
"image-keyboard-response","55","89824","0.0-6.0-1.25","615e68b3f55d1cf5f6defc2a","bdp_trlrn","Tue Mar 14 2023 18:16:27 GMT-0700 (Pacific Daylight Time)","665127","Untrustworthy,Trustworthy","","1825","","","","rating","","trustrating_stim/white_mw097.bmp","5","","","","","","","","","","",""
"image-keyboard-response","56","90030","0.0-6.0-2.25","615e68b3f55d1cf5f6defc2a","bdp_trlrn","Tue Mar 14 2023 18:16:27 GMT-0700 (Pacific Daylight Time)","665127","Untrustworthy,Trustworthy","","null","","","","ratingFB","","trustrating_stim/white_mw097.bmp","null","","","","","","","","","","",""
"image-keyboard-response","57","91935","0.0-6.0-1.26","615e68b3f55d1cf5f6defc2a","bdp_trlrn","Tue Mar 14 2023 18:16:27 GMT-0700 (Pacific Daylight Time)","665127","Untrustworthy,Trustworthy","","1800","","","","rating","","trustrating_stim/white_mw099.bmp","8","","","","","","","","","","",""
"image-keyboard-response","58","92142","0.0-6.0-2.26","615e68b3f55d1cf5f6defc2a","bdp_trlrn","Tue Mar 14 2023 18:16:27 GMT-0700 (Pacific Daylight Time)","665127","Untrustworthy,Trustworthy","","null","","","","ratingFB","","trustrating_stim/white_mw099.bmp","null","","","","","","","","","","",""
"image-keyboard-response","59","94432","0.0-6.0-1.27","615e68b3f55d1cf5f6defc2a","bdp_trlrn","Tue Mar 14 2023 18:16:27 GMT-0700 (Pacific Daylight Time)","665127","Untrustworthy,Trustworthy","","2185","","","","rating","","trustrating_stim/white_mw084.bmp","4","","","","","","","","","","",""
"image-keyboard-response","60","94638","0.0-6.0-2.27","615e68b3f55d1cf5f6defc2a","bdp_trlrn","Tue Mar 14 2023 18:16:27 GMT-0700 (Pacific Daylight Time)","665127","Untrustworthy,Trustworthy","","null","","","","ratingFB","","trustrating_stim/white_mw084.bmp","null","","","","","","","","","","",""
"image-keyboard-response","61","97545","0.0-6.0-1.28","615e68b3f55d1cf5f6defc2a","bdp_trlrn","Tue Mar 14 2023 18:16:27 GMT-0700 (Pacific Daylight Time)","665127","Untrustworthy,Trustworthy","","2802","","","","rating","","trustrating_stim/white_mw071.bmp","3","","","","","","","","","","",""
"image-keyboard-response","62","97750","0.0-6.0-2.28","615e68b3f55d1cf5f6defc2a","bdp_trlrn","Tue Mar 14 2023 18:16:27 GMT-0700 (Pacific Daylight Time)","665127","Untrustworthy,Trustworthy","","null","","","","ratingFB","","trustrating_stim/white_mw071.bmp","null","","","","","","","","","","",""
"image-keyboard-response","63","100282","0.0-6.0-1.29","615e68b3f55d1cf5f6defc2a","bdp_trlrn","Tue Mar 14 2023 18:16:27 GMT-0700 (Pacific Daylight Time)","665127","Untrustworthy,Trustworthy","","2427","","","","rating","","trustrating_stim/white_00109_931230_fa_edt.bmp","5","","","","","","","","","","",""
"image-keyboard-response","64","100486","0.0-6.0-2.29","615e68b3f55d1cf5f6defc2a","bdp_trlrn","Tue Mar 14 2023 18:16:27 GMT-0700 (Pacific Daylight Time)","665127","Untrustworthy,Trustworthy","","null","","","","ratingFB","","trustrating_stim/white_00109_931230_fa_edt.bmp","null","","","","","","","","","","",""
"image-keyboard-response","65","103460","0.0-6.0-1.30","615e68b3f55d1cf5f6defc2a","bdp_trlrn","Tue Mar 14 2023 18:16:27 GMT-0700 (Pacific Daylight Time)","665127","Untrustworthy,Trustworthy","","2869","","","","rating","","trustrating_stim/white_mw046.bmp","2","","","","","","","","","","",""
"image-keyboard-response","66","103670","0.0-6.0-2.30","615e68b3f55d1cf5f6defc2a","bdp_trlrn","Tue Mar 14 2023 18:16:27 GMT-0700 (Pacific Daylight Time)","665127","Untrustworthy,Trustworthy","","null","","","","ratingFB","","trustrating_stim/white_mw046.bmp","null","","","","","","","","","","",""
"image-keyboard-response","67","106444","0.0-6.0-1.31","615e68b3f55d1cf5f6defc2a","bdp_trlrn","Tue Mar 14 2023 18:16:27 GMT-0700 (Pacific Daylight Time)","665127","Untrustworthy,Trustworthy","","2668","","","","rating","","trustrating_stim/white_mw099.bmp","3","","","","","","","","","","",""
"image-keyboard-response","68","106646","0.0-6.0-2.31","615e68b3f55d1cf5f6defc2a","bdp_trlrn","Tue Mar 14 2023 18:16:27 GMT-0700 (Pacific Daylight Time)","665127","Untrustworthy,Trustworthy","","null","","","","ratingFB","","trustrating_stim/white_mw099.bmp","null","","","","","","","","","","",""
"image-keyboard-response","69","110314","0.0-6.0-1.32","615e68b3f55d1cf5f6defc2a","bdp_trlrn","Tue Mar 14 2023 18:16:27 GMT-0700 (Pacific Daylight Time)","665127","Untrustworthy,Trustworthy","","3563","","","","rating","","trustrating_stim/white_mw033.bmp","4","","","","","","","","","","",""
"image-keyboard-response","70","110518","0.0-6.0-2.32","615e68b3f55d1cf5f6defc2a","bdp_trlrn","Tue Mar 14 2023 18:16:27 GMT-0700 (Pacific Daylight Time)","665127","Untrustworthy,Trustworthy","","null","","","","ratingFB","","trustrating_stim/white_mw033.bmp","null","","","","","","","","","","",""
"image-keyboard-response","71","112672","0.0-6.0-1.33","615e68b3f55d1cf5f6defc2a","bdp_trlrn","Tue Mar 14 2023 18:16:27 GMT-0700 (Pacific Daylight Time)","665127","Untrustworthy,Trustworthy","","2050","","","","rating","","trustrating_stim/white_mw056.bmp","2","","","","","","","","","","",""
"image-keyboard-response","72","112878","0.0-6.0-2.33","615e68b3f55d1cf5f6defc2a","bdp_trlrn","Tue Mar 14 2023 18:16:27 GMT-0700 (Pacific Daylight Time)","665127","Untrustworthy,Trustworthy","","null","","","","ratingFB","","trustrating_stim/white_mw056.bmp","null","","","","","","","","","","",""
"image-keyboard-response","73","114733","0.0-6.0-1.34","615e68b3f55d1cf5f6defc2a","bdp_trlrn","Tue Mar 14 2023 18:16:27 GMT-0700 (Pacific Daylight Time)","665127","Untrustworthy,Trustworthy","","1749","","","","rating","","trustrating_stim/white_mw053.bmp","6","","","","","","","","","","",""
"image-keyboard-response","74","114942","0.0-6.0-2.34","615e68b3f55d1cf5f6defc2a","bdp_trlrn","Tue Mar 14 2023 18:16:27 GMT-0700 (Pacific Daylight Time)","665127","Untrustworthy,Trustworthy","","null","","","","ratingFB","","trustrating_stim/white_mw053.bmp","null","","","","","","","","","","",""
"image-keyboard-response","75","117852","0.0-6.0-1.35","615e68b3f55d1cf5f6defc2a","bdp_trlrn","Tue Mar 14 2023 18:16:27 GMT-0700 (Pacific Daylight Time)","665127","Untrustworthy,Trustworthy","","2804","","","","rating","","trustrating_stim/white_mw049.bmp","6","","","","","","","","","","",""
"image-keyboard-response","76","118062","0.0-6.0-2.35","615e68b3f55d1cf5f6defc2a","bdp_trlrn","Tue Mar 14 2023 18:16:27 GMT-0700 (Pacific Daylight Time)","665127","Untrustworthy,Trustworthy","","null","","","","ratingFB","","trustrating_stim/white_mw049.bmp","null","","","","","","","","","","",""
"image-keyboard-response","77","122000","0.0-6.0-1.36","615e68b3f55d1cf5f6defc2a","bdp_trlrn","Tue Mar 14 2023 18:16:27 GMT-0700 (Pacific Daylight Time)","665127","Untrustworthy,Trustworthy","","3832","","","","rating","","trustrating_stim/white_00898_960530_fa_edt.bmp","5","","","","","","","","","","",""
"image-keyboard-response","78","122206","0.0-6.0-2.36","615e68b3f55d1cf5f6defc2a","bdp_trlrn","Tue Mar 14 2023 18:16:27 GMT-0700 (Pacific Daylight Time)","665127","Untrustworthy,Trustworthy","","null","","","","ratingFB","","trustrating_stim/white_00898_960530_fa_edt.bmp","null","","","","","","","","","","",""
"image-keyboard-response","79","124570","0.0-6.0-1.37","615e68b3f55d1cf5f6defc2a","bdp_trlrn","Tue Mar 14 2023 18:16:27 GMT-0700 (Pacific Daylight Time)","665127","Untrustworthy,Trustworthy","","2258","","","","rating","","trustrating_stim/white_00659_941121_fa_edt.bmp","3","","","","","","","","","","",""
"image-keyboard-response","80","124774","0.0-6.0-2.37","615e68b3f55d1cf5f6defc2a","bdp_trlrn","Tue Mar 14 2023 18:16:27 GMT-0700 (Pacific Daylight Time)","665127","Untrustworthy,Trustworthy","","null","","","","ratingFB","","trustrating_stim/white_00659_941121_fa_edt.bmp","null","","","","","","","","","","",""
"image-keyboard-response","81","127912","0.0-6.0-1.38","615e68b3f55d1cf5f6defc2a","bdp_trlrn","Tue Mar 14 2023 18:16:27 GMT-0700 (Pacific Daylight Time)","665127","Untrustworthy,Trustworthy","","3033","","","","rating","","trustrating_stim/white_00223_940128_fb_edt.bmp","4","","","","","","","","","","",""
"image-keyboard-response","82","128118","0.0-6.0-2.38","615e68b3f55d1cf5f6defc2a","bdp_trlrn","Tue Mar 14 2023 18:16:27 GMT-0700 (Pacific Daylight Time)","665127","Untrustworthy,Trustworthy","","null","","","","ratingFB","","trustrating_stim/white_00223_940128_fb_edt.bmp","null","","","","","","","","","","",""
"image-keyboard-response","83","130062","0.0-6.0-1.39","615e68b3f55d1cf5f6defc2a","bdp_trlrn","Tue Mar 14 2023 18:16:27 GMT-0700 (Pacific Daylight Time)","665127","Untrustworthy,Trustworthy","","1839","","","","rating","","trustrating_stim/white_00109_931230_fa_edt.bmp","6","","","","","","","","","","",""
"image-keyboard-response","84","130270","0.0-6.0-2.39","615e68b3f55d1cf5f6defc2a","bdp_trlrn","Tue Mar 14 2023 18:16:27 GMT-0700 (Pacific Daylight Time)","665127","Untrustworthy,Trustworthy","","null","","","","ratingFB","","trustrating_stim/white_00109_931230_fa_edt.bmp","null","","","","","","","","","","",""
"image-keyboard-response","85","133502","0.0-6.0-1.40","615e68b3f55d1cf5f6defc2a","bdp_trlrn","Tue Mar 14 2023 18:16:27 GMT-0700 (Pacific Daylight Time)","665127","Untrustworthy,Trustworthy","","3126","","","","rating","","trustrating_stim/white_mw089.bmp","5","","","","","","","","","","",""
"image-keyboard-response","86","133710","0.0-6.0-2.40","615e68b3f55d1cf5f6defc2a","bdp_trlrn","Tue Mar 14 2023 18:16:27 GMT-0700 (Pacific Daylight Time)","665127","Untrustworthy,Trustworthy","","null","","","","ratingFB","","trustrating_stim/white_mw089.bmp","null","","","","","","","","","","",""
"image-keyboard-response","87","136011","0.0-6.0-1.41","615e68b3f55d1cf5f6defc2a","bdp_trlrn","Tue Mar 14 2023 18:16:27 GMT-0700 (Pacific Daylight Time)","665127","Untrustworthy,Trustworthy","","2195","","","","rating","","trustrating_stim/white_mw063.bmp","3","","","","","","","","","","",""
"image-keyboard-response","88","136214","0.0-6.0-2.41","615e68b3f55d1cf5f6defc2a","bdp_trlrn","Tue Mar 14 2023 18:16:27 GMT-0700 (Pacific Daylight Time)","665127","Untrustworthy,Trustworthy","","null","","","","ratingFB","","trustrating_stim/white_mw063.bmp","null","","","","","","","","","","",""
"image-keyboard-response","89","140075","0.0-6.0-1.42","615e68b3f55d1cf5f6defc2a","bdp_trlrn","Tue Mar 14 2023 18:16:27 GMT-0700 (Pacific Daylight Time)","665127","Untrustworthy,Trustworthy","","3756","","","","rating","","trustrating_stim/white_00785_941205_fb_edt.bmp","2","","","","","","","","","","",""
"image-keyboard-response","90","140286","0.0-6.0-2.42","615e68b3f55d1cf5f6defc2a","bdp_trlrn","Tue Mar 14 2023 18:16:27 GMT-0700 (Pacific Daylight Time)","665127","Untrustworthy,Trustworthy","","null","","","","ratingFB","","trustrating_stim/white_00785_941205_fb_edt.bmp","null","","","","","","","","","","",""
"image-keyboard-response","91","142555","0.0-6.0-1.43","615e68b3f55d1cf5f6defc2a","bdp_trlrn","Tue Mar 14 2023 18:16:27 GMT-0700 (Pacific Daylight Time)","665127","Untrustworthy,Trustworthy","","2163","","","","rating","","trustrating_stim/white_00129_931230_fb_edt.bmp","4","","","","","","","","","","",""
"image-keyboard-response","92","142758","0.0-6.0-2.43","615e68b3f55d1cf5f6defc2a","bdp_trlrn","Tue Mar 14 2023 18:16:27 GMT-0700 (Pacific Daylight Time)","665127","Untrustworthy,Trustworthy","","null","","","","ratingFB","","trustrating_stim/white_00129_931230_fb_edt.bmp","null","","","","","","","","","","",""
"image-keyboard-response","93","146586","0.0-6.0-1.44","615e68b3f55d1cf5f6defc2a","bdp_trlrn","Tue Mar 14 2023 18:16:27 GMT-0700 (Pacific Daylight Time)","665127","Untrustworthy,Trustworthy","","3723","","","","rating","","trustrating_stim/white_mw097.bmp","2","","","","","","","","","","",""
"image-keyboard-response","94","146790","0.0-6.0-2.44","615e68b3f55d1cf5f6defc2a","bdp_trlrn","Tue Mar 14 2023 18:16:27 GMT-0700 (Pacific Daylight Time)","665127","Untrustworthy,Trustworthy","","null","","","","ratingFB","","trustrating_stim/white_mw097.bmp","null","","","","","","","","","","",""
"image-keyboard-response","95","149726","0.0-6.0-1.45","615e68b3f55d1cf5f6defc2a","bdp_trlrn","Tue Mar 14 2023 18:16:27 GMT-0700 (Pacific Daylight Time)","665127","Untrustworthy,Trustworthy","","2831","","","","rating","","trustrating_stim/white_00761_941201_fb_edt.bmp","7","","","","","","","","","","",""
"image-keyboard-response","96","149932","0.0-6.0-2.45","615e68b3f55d1cf5f6defc2a","bdp_trlrn","Tue Mar 14 2023 18:16:27 GMT-0700 (Pacific Daylight Time)","665127","Untrustworthy,Trustworthy","","null","","","","ratingFB","","trustrating_stim/white_00761_941201_fb_edt.bmp","null","","","","","","","","","","",""
"image-keyboard-response","97","152609","0.0-6.0-1.46","615e68b3f55d1cf5f6defc2a","bdp_trlrn","Tue Mar 14 2023 18:16:27 GMT-0700 (Pacific Daylight Time)","665127","Untrustworthy,Trustworthy","","2570","","","","rating","","trustrating_stim/white_00757_941201_fa_edt.bmp","3","","","","","","","","","","",""
"image-keyboard-response","98","152814","0.0-6.0-2.46","615e68b3f55d1cf5f6defc2a","bdp_trlrn","Tue Mar 14 2023 18:16:27 GMT-0700 (Pacific Daylight Time)","665127","Untrustworthy,Trustworthy","","null","","","","ratingFB","","trustrating_stim/white_00757_941201_fa_edt.bmp","null","","","","","","","","","","",""
"image-keyboard-response","99","154771","0.0-6.0-1.47","615e68b3f55d1cf5f6defc2a","bdp_trlrn","Tue Mar 14 2023 18:16:27 GMT-0700 (Pacific Daylight Time)","665127","Untrustworthy,Trustworthy","","1851","","","","rating","","trustrating_stim/white_mw066.bmp","8","","","","","","","","","","",""
"image-keyboard-response","100","154974","0.0-6.0-2.47","615e68b3f55d1cf5f6defc2a","bdp_trlrn","Tue Mar 14 2023 18:16:27 GMT-0700 (Pacific Daylight Time)","665127","Untrustworthy,Trustworthy","","null","","","","ratingFB","","trustrating_stim/white_mw066.bmp","null","","","","","","","","","","",""
"image-keyboard-response","101","157139","0.0-6.0-1.48","615e68b3f55d1cf5f6defc2a","bdp_trlrn","Tue Mar 14 2023 18:16:27 GMT-0700 (Pacific Daylight Time)","665127","Untrustworthy,Trustworthy","","2060","","","","rating","","trustrating_stim/white_mw071.bmp","4","","","","","","","","","","",""
"image-keyboard-response","102","157342","0.0-6.0-2.48","615e68b3f55d1cf5f6defc2a","bdp_trlrn","Tue Mar 14 2023 18:16:27 GMT-0700 (Pacific Daylight Time)","665127","Untrustworthy,Trustworthy","","null","","","","ratingFB","","trustrating_stim/white_mw071.bmp","null","","","","","","","","","","",""
"image-keyboard-response","103","160654","0.0-6.0-1.49","615e68b3f55d1cf5f6defc2a","bdp_trlrn","Tue Mar 14 2023 18:16:27 GMT-0700 (Pacific Daylight Time)","665127","Untrustworthy,Trustworthy","","3207","","","","rating","","trustrating_stim/white_00807_941205_fb_edt.bmp","2","","","","","","","","","","",""
"image-keyboard-response","104","160862","0.0-6.0-2.49","615e68b3f55d1cf5f6defc2a","bdp_trlrn","Tue Mar 14 2023 18:16:27 GMT-0700 (Pacific Daylight Time)","665127","Untrustworthy,Trustworthy","","null","","","","ratingFB","","trustrating_stim/white_00807_941205_fb_edt.bmp","null","","","","","","","","","","",""
"image-keyboard-response","105","163371","0.0-6.0-1.50","615e68b3f55d1cf5f6defc2a","bdp_trlrn","Tue Mar 14 2023 18:16:27 GMT-0700 (Pacific Daylight Time)","665127","Untrustworthy,Trustworthy","","2404","","","","rating","","trustrating_stim/white_00299_940422_fa_edt.bmp","7","","","","","","","","","","",""
"image-keyboard-response","106","163574","0.0-6.0-2.50","615e68b3f55d1cf5f6defc2a","bdp_trlrn","Tue Mar 14 2023 18:16:27 GMT-0700 (Pacific Daylight Time)","665127","Untrustworthy,Trustworthy","","null","","","","ratingFB","","trustrating_stim/white_00299_940422_fa_edt.bmp","null","","","","","","","","","","",""
"image-keyboard-response","107","165904","0.0-6.0-1.51","615e68b3f55d1cf5f6defc2a","bdp_trlrn","Tue Mar 14 2023 18:16:27 GMT-0700 (Pacific Daylight Time)","665127","Untrustworthy,Trustworthy","","2226","","","","rating","","trustrating_stim/white_00120_931230_fa_edt.bmp","6","","","","","","","","","","",""
"image-keyboard-response","108","166110","0.0-6.0-2.51","615e68b3f55d1cf5f6defc2a","bdp_trlrn","Tue Mar 14 2023 18:16:27 GMT-0700 (Pacific Daylight Time)","665127","Untrustworthy,Trustworthy","","null","","","","ratingFB","","trustrating_stim/white_00120_931230_fa_edt.bmp","null","","","","","","","","","","",""
"image-keyboard-response","109","167965","0.0-6.0-1.52","615e68b3f55d1cf5f6defc2a","bdp_trlrn","Tue Mar 14 2023 18:16:27 GMT-0700 (Pacific Daylight Time)","665127","Untrustworthy,Trustworthy","","1749","","","","rating","","trustrating_stim/white_00577_940928_fa_edt.bmp","4","","","","","","","","","","",""
"image-keyboard-response","110","168174","0.0-6.0-2.52","615e68b3f55d1cf5f6defc2a","bdp_trlrn","Tue Mar 14 2023 18:16:27 GMT-0700 (Pacific Daylight Time)","665127","Untrustworthy,Trustworthy","","null","","","","ratingFB","","trustrating_stim/white_00577_940928_fa_edt.bmp","null","","","","","","","","","","",""
"image-keyboard-response","111","173600","0.0-6.0-1.53","615e68b3f55d1cf5f6defc2a","bdp_trlrn","Tue Mar 14 2023 18:16:27 GMT-0700 (Pacific Daylight Time)","665127","Untrustworthy,Trustworthy","","5320","","","","rating","","trustrating_stim/white_00519_940519_fb_edt.bmp","6","","","","","","","","","","",""
"image-keyboard-response","112","173806","0.0-6.0-2.53","615e68b3f55d1cf5f6defc2a","bdp_trlrn","Tue Mar 14 2023 18:16:27 GMT-0700 (Pacific Daylight Time)","665127","Untrustworthy,Trustworthy","","null","","","","ratingFB","","trustrating_stim/white_00519_940519_fb_edt.bmp","null","","","","","","","","","","",""
"image-keyboard-response","113","176001","0.0-6.0-1.54","615e68b3f55d1cf5f6defc2a","bdp_trlrn","Tue Mar 14 2023 18:16:27 GMT-0700 (Pacific Daylight Time)","665127","Untrustworthy,Trustworthy","","2082","","","","rating","","trustrating_stim/white_00602_940928_fb_edt.bmp","7","","","","","","","","","","",""
"image-keyboard-response","114","176206","0.0-6.0-2.54","615e68b3f55d1cf5f6defc2a","bdp_trlrn","Tue Mar 14 2023 18:16:27 GMT-0700 (Pacific Daylight Time)","665127","Untrustworthy,Trustworthy","","null","","","","ratingFB","","trustrating_stim/white_00602_940928_fb_edt.bmp","null","","","","","","","","","","",""
"image-keyboard-response","115","178680","0.0-6.0-1.55","615e68b3f55d1cf5f6defc2a","bdp_trlrn","Tue Mar 14 2023 18:16:27 GMT-0700 (Pacific Daylight Time)","665127","Untrustworthy,Trustworthy","","2369","","","","rating","","trustrating_stim/white_mw035.bmp","5","","","","","","","","","","",""
"image-keyboard-response","116","178888","0.0-6.0-2.55","615e68b3f55d1cf5f6defc2a","bdp_trlrn","Tue Mar 14 2023 18:16:27 GMT-0700 (Pacific Daylight Time)","665127","Untrustworthy,Trustworthy","","null","","","","ratingFB","","trustrating_stim/white_mw035.bmp","null","","","","","","","","","","",""
"image-keyboard-response","117","182312","0.0-6.0-1.56","615e68b3f55d1cf5f6defc2a","bdp_trlrn","Tue Mar 14 2023 18:16:27 GMT-0700 (Pacific Daylight Time)","665127","Untrustworthy,Trustworthy","","3312","","","","rating","","trustrating_stim/white_mw060.bmp","5","","","","","","","","","","",""
"image-keyboard-response","118","182518","0.0-6.0-2.56","615e68b3f55d1cf5f6defc2a","bdp_trlrn","Tue Mar 14 2023 18:16:27 GMT-0700 (Pacific Daylight Time)","665127","Untrustworthy,Trustworthy","","null","","","","ratingFB","","trustrating_stim/white_mw060.bmp","null","","","","","","","","","","",""
"image-keyboard-response","119","185000","0.0-6.0-1.57","615e68b3f55d1cf5f6defc2a","bdp_trlrn","Tue Mar 14 2023 18:16:27 GMT-0700 (Pacific Daylight Time)","665127","Untrustworthy,Trustworthy","","2376","","","","rating","","trustrating_stim/white_mw084.bmp","4","","","","","","","","","","",""
"image-keyboard-response","120","185206","0.0-6.0-2.57","615e68b3f55d1cf5f6defc2a","bdp_trlrn","Tue Mar 14 2023 18:16:27 GMT-0700 (Pacific Daylight Time)","665127","Untrustworthy,Trustworthy","","null","","","","ratingFB","","trustrating_stim/white_mw084.bmp","null","","","","","","","","","","",""
"image-keyboard-response","121","186992","0.0-6.0-1.58","615e68b3f55d1cf5f6defc2a","bdp_trlrn","Tue Mar 14 2023 18:16:27 GMT-0700 (Pacific Daylight Time)","665127","Untrustworthy,Trustworthy","","1681","","","","rating","","trustrating_stim/white_00340_940422_fa_edt.bmp","2","","","","","","","","","","",""
"image-keyboard-response","122","187198","0.0-6.0-2.58","615e68b3f55d1cf5f6defc2a","bdp_trlrn","Tue Mar 14 2023 18:16:27 GMT-0700 (Pacific Daylight Time)","665127","Untrustworthy,Trustworthy","","null","","","","ratingFB","","trustrating_stim/white_00340_940422_fa_edt.bmp","null","","","","","","","","","","",""
"image-keyboard-response","123","188383","0.0-6.0-1.59","615e68b3f55d1cf5f6defc2a","bdp_trlrn","Tue Mar 14 2023 18:16:27 GMT-0700 (Pacific Daylight Time)","665127","Untrustworthy,Trustworthy","","1080","","","","rating","","trustrating_stim/white_mw048.bmp","2","","","","","","","","","","",""
"image-keyboard-response","124","188590","0.0-6.0-2.59","615e68b3f55d1cf5f6defc2a","bdp_trlrn","Tue Mar 14 2023 18:16:27 GMT-0700 (Pacific Daylight Time)","665127","Untrustworthy,Trustworthy","","null","","","","ratingFB","","trustrating_stim/white_mw048.bmp","null","","","","","","","","","","",""
"instructions","125","190302","0.0-7.0","615e68b3f55d1cf5f6defc2a","bdp_trlrn","Tue Mar 14 2023 18:16:27 GMT-0700 (Pacific Daylight Time)","665127","Untrustworthy,Trustworthy","[{""page_index"":0,""viewing_time"":1599}]","1599","","","","","","","","","","","","","","","","","",""
"instructions","126","268748","0.0-8.0","615e68b3f55d1cf5f6defc2a","bdp_trlrn","Tue Mar 14 2023 18:16:27 GMT-0700 (Pacific Daylight Time)","665127","Untrustworthy,Trustworthy","[{""page_index"":0,""viewing_time"":18711},{""page_index"":1,""viewing_time"":13130},{""page_index"":2,""viewing_time"":10927},{""page_index"":3,""viewing_time"":7786},{""page_index"":4,""viewing_time"":4180},{""page_index"":5,""viewing_time"":5686},{""page_index"":6,""viewing_time"":15091},{""page_index"":7,""viewing_time"":2830}]","78341","","","","","","","","","","","","","","","","","",""
"html-keyboard-response","127","273758","0.0-9.0","615e68b3f55d1cf5f6defc2a","bdp_trlrn","Tue Mar 14 2023 18:16:27 GMT-0700 (Pacific Daylight Time)","665127","Untrustworthy,Trustworthy","","5007","","","","","","<div class='header' style='text-align:left; position: absolute; top: 5%; left: 5%;'><small>Task 3 of 5</small></div><div class='instruxDiv'><p><strong>1) What is the minimum number of points you can choose to send to your partner?</strong></p><p>a) 0</p><p>b) 1</p><p>c) 5</p>","C","","","","","","","","","","",""
"html-keyboard-response","128","278217","0.0-10.0","615e68b3f55d1cf5f6defc2a","bdp_trlrn","Tue Mar 14 2023 18:16:27 GMT-0700 (Pacific Daylight Time)","665127","Untrustworthy,Trustworthy","","4352","","","","","","<div class='header' style='text-align:left; position: absolute; top: 5%; left: 5%;'><small>Task 3 of 5</small></div><div class='instruxDiv'><p><strong>1) What is the minimum number of points you can choose to send to your partner?</strong></p><p>a) 1</p><p>b) 1</p><p style='color:#FF0000'>c) 5</p><h3 style='color:#FF0000'>Incorrect!</h3><h3 class='center-content'>The correct response is b).</h3><h3 class='center-content'>The minimum number of points you can choose to send to your partner is 1 point.</h3><p><em>Press SPACEBAR to continue</em></p></div>"," ","","","","","","","","","","",""
"html-keyboard-response","129","282299","0.0-11.0","615e68b3f55d1cf5f6defc2a","bdp_trlrn","Tue Mar 14 2023 18:16:27 GMT-0700 (Pacific Daylight Time)","665127","Untrustworthy,Trustworthy","","3979","","","","","","<div class='header' style='text-align:left; position: absolute; top: 5%; left: 5%;'><small>Task 3 of 5</small></div><div class='instruxDiv'><p><strong>2) What is the maximum number of points you can choose to send to your partner?</strong></p><p>a) 8</p><p>b) 5</p><p>c) 3</p>","B","","","","","","","","","","",""
"html-keyboard-response","130","284196","0.0-12.0","615e68b3f55d1cf5f6defc2a","bdp_trlrn","Tue Mar 14 2023 18:16:27 GMT-0700 (Pacific Daylight Time)","665127","Untrustworthy,Trustworthy","","1788","","","","","","<div class='header' style='text-align:left; position: absolute; top: 5%; left: 5%;'><small>Task 3 of 5</small></div><div class='instruxDiv'><p><strong>2) What is the maximum number of points you can choose to send to your partner?</strong></p><p>a) 8</p><p style='color:#00FF00'>b) 5</p><p>c) 3</p><h3 style='color:#00FF00'>Correct!</h3><h3 class='center-content'>The correct response is b).</h3><h3 class='center-content'>The maximum number of points you can choose to send to your partner is 5 points.</h3><p><em>Press SPACEBAR to continue</em></p></div>"," ","","","","","","","","","","",""
"html-keyboard-response","131","287765","0.0-13.0","615e68b3f55d1cf5f6defc2a","bdp_trlrn","Tue Mar 14 2023 18:16:27 GMT-0700 (Pacific Daylight Time)","665127","Untrustworthy,Trustworthy","","3463","","","","","","<div class='header' style='text-align:left; position: absolute; top: 5%; left: 5%;'><small>Task 3 of 5</small></div><div class='instruxDiv'><p><strong>3) What happens to the amount of points you send to your partner?</strong></p><p>a) Nothing</p><p>b) It doubles</p><p>c) It quadruples</p>","C","","","","","","","","","","",""
"html-keyboard-response","132","289085","0.0-14.0","615e68b3f55d1cf5f6defc2a","bdp_trlrn","Tue Mar 14 2023 18:16:27 GMT-0700 (Pacific Daylight Time)","665127","Untrustworthy,Trustworthy","","1213","","","","","","<div class='header' style='text-align:left; position: absolute; top: 5%; left: 5%;'><small>Task 3 of 5</small></div><div class='instruxDiv'><p><strong>3) What happens to the amount of points you send to your partner?</strong></p><p>a) Nothing</p><p>b) It doubles</p><p style='color:#00FF00'>c) It quadruples</p><h3 style='color:#00FF00'>Correct!</h3><h3 class='center-content'>The correct response is c).</h3><h3 class='center-content'>The amount of points you send to your partner quadruples.</h3><p><em>Press SPACEBAR to continue</em></p></div>"," ","","","","","","","","","","",""
"html-keyboard-response","133","301318","0.0-15.0","615e68b3f55d1cf5f6defc2a","bdp_trlrn","Tue Mar 14 2023 18:16:27 GMT-0700 (Pacific Daylight Time)","665127","Untrustworthy,Trustworthy","","12127","","","","","","<div class='header' style='text-align:left; position: absolute; top: 5%; left: 5%;'><small>Task 3 of 5</small></div><div class='instruxDiv'><p><strong>4) If you decided to share 4 out of 5 points with your partner, and they decided to share half of the amount they received with you, how many points would you receive back from them on this round?</strong></p><p>a) 16</p><p>b) 0</p><p>c) 8</p>","C","","","","","","","","","","",""
"html-keyboard-response","134","303642","0.0-16.0","615e68b3f55d1cf5f6defc2a","bdp_trlrn","Tue Mar 14 2023 18:16:27 GMT-0700 (Pacific Daylight Time)","665127","Untrustworthy,Trustworthy","","2218","","","","","","<div class='header' style='text-align:left; position: absolute; top: 5%; left: 5%;'><small>Task 3 of 5</small></div><div class='instruxDiv'><p><strong>4) If you decided to share 4 out of 5 points with your partner, and they decided to share half of the amount they received with you, how many points would you receive back from them on this round?</strong></p><p>a) 16</p><p>b) 0</p><p style='color:#00FF00'>c) 8</p><h3 style='color:#00FF00'>Correct!</h3><h3 class='center-content'>The correct response is c).</h3><h3 class='center-content'>If you shared 4 out of 5 points with your partner and they decided to share half of the amount they received with you, you would receive 8 points back (i.e. (4 x 4)/2 = 8).</h3><p><em>Press SPACEBAR to continue</em></p></div>"," ","","","","","","","","","","",""
"html-keyboard-response","135","308758","0.0-17.0","615e68b3f55d1cf5f6defc2a","bdp_trlrn","Tue Mar 14 2023 18:16:27 GMT-0700 (Pacific Daylight Time)","665127","Untrustworthy,Trustworthy","","null","","","","","","<div class='header' style='text-align:left; position: absolute; top: 5%; left: 5%;'><small>Task 3 of 5</small></div><div class='instruxDiv'><p>Thank you for completing the quiz<p>These are the actual partners you will be interacting with in the next block:<p><div class='tc' align='center'><img class='introPic' src='trustrating_stim/white_00340_940422_fa_edt.bmp'><br><strong>Jason</strong></div><div class='bl' align='center'><img class='introPic' src='trustrating_stim/white_mw060.bmp'><br><strong>Chris</strong></div><div class='br' align='center'><img class='introPic' src='trustrating_stim/white_00761_941201_fb_edt.bmp'><br><strong>Aaron</strong></div></div><p>Across <strong>66 rounds</strong> you will interact with each partner <strong>22 times</strong> (in random order).<p style='align:center; color:white'><font <em>Press SPACEBAR to continue</em></p>","null","","","","","","","","","","",""
"instructions","136","312033","0.0-18.0","615e68b3f55d1cf5f6defc2a","bdp_trlrn","Tue Mar 14 2023 18:16:27 GMT-0700 (Pacific Daylight Time)","665127","Untrustworthy,Trustworthy","[{""page_index"":0,""viewing_time"":1658},{""page_index"":1,""viewing_time"":1616}]","3274","","","","","","","","","","","","","","","","","",""
"html-keyboard-response","137","317190","0.0-19.0-1.0","615e68b3f55d1cf5f6defc2a","bdp_trlrn","Tue Mar 14 2023 18:16:27 GMT-0700 (Pacific Daylight Time)","665127","Untrustworthy,Trustworthy","","5052","","","","decision","","<div class='trialDiv'><img src='trustrating_stim/white_00340_940422_fa_edt.bmp'><br><font class='baseline'><strong>Jason</strong><p>Choose number of points to send.</font><div class='respPicDiv'><img src='img/responseButtonOffersNo0L.png' class='respPic'></div></div>","3","1","Jason","0","Kept","0.2,0.65","12","0.2","trustrating_stim/white_00340_940422_fa_edt.bmp","1.5","5","1"
"html-keyboard-response","138","317446","0.0-19.0-2.0","615e68b3f55d1cf5f6defc2a","bdp_trlrn","Tue Mar 14 2023 18:16:27 GMT-0700 (Pacific Daylight Time)","665127","Untrustworthy,Trustworthy","","null","","","","decisionFB","","<div class='trialDiv'><img src='trustrating_stim/white_00340_940422_fa_edt.bmp'><br><font class='baseline'><strong>Jason</strong><p>Choose number of points to send.</font><div class='respPicDiv'><img src='img/responseButtonOffersNo0L3.png' class='respPic'></div></div>","null","1","Jason","0","Kept","0.2,0.65","12","0.2","trustrating_stim/white_00340_940422_fa_edt.bmp","1.5","2","1"
"html-keyboard-response","139","318454","0.0-19.0-3.0","615e68b3f55d1cf5f6defc2a","bdp_trlrn","Tue Mar 14 2023 18:16:27 GMT-0700 (Pacific Daylight Time)","665127","Untrustworthy,Trustworthy","","null","","","","feedback","","<div class='trialDiv'><img src='trustrating_stim/white_00340_940422_fa_edt.bmp'><br><font class='baseline'><strong>Jason</strong><p>Received: <strong>12</strong></font> &nbsp; &nbsp; &nbsp; &nbsp; &nbsp; &nbsp;<font class='negOutcome'>Shared back: <strong>0</strong></font></font><div class='respPicDiv'><img src='img/responseButtonOffersNo0_wht.png' class='respPic'></div></div>","null","1","Jason","0","Kept","0.2,0.65","12","0.2","trustrating_stim/white_00340_940422_fa_edt.bmp","1.5","2","1"
"html-keyboard-response","140","320385","0.0-19.0-1.1","615e68b3f55d1cf5f6defc2a","bdp_trlrn","Tue Mar 14 2023 18:16:27 GMT-0700 (Pacific Daylight Time)","665127","Untrustworthy,Trustworthy","","1928","","","","decision","","<div class='trialDiv'><img src='trustrating_stim/white_mw060.bmp'><br><font class='baseline'><strong>Chris</strong><p>Choose number of points to send.</font><div class='respPicDiv'><img src='img/responseButtonOffersNo0L.png' class='respPic'></div></div>","3","1","Chris","5","Kept","0.65,0.35","13","0.65","trustrating_stim/white_mw060.bmp","4.5","7","2"
"html-keyboard-response","141","320638","0.0-19.0-2.1","615e68b3f55d1cf5f6defc2a","bdp_trlrn","Tue Mar 14 2023 18:16:27 GMT-0700 (Pacific Daylight Time)","665127","Untrustworthy,Trustworthy","","null","","","","decisionFB","","<div class='trialDiv'><img src='trustrating_stim/white_mw060.bmp'><br><font class='baseline'><strong>Chris</strong><p>Choose number of points to send.</font><div class='respPicDiv'><img src='img/responseButtonOffersNo0L3.png' class='respPic'></div></div>","null","1","Chris","5","Kept","0.65,0.35","13","0.65","trustrating_stim/white_mw060.bmp","4.5","4","2"
"html-keyboard-response","142","321646","0.0-19.0-3.1","615e68b3f55d1cf5f6defc2a","bdp_trlrn","Tue Mar 14 2023 18:16:27 GMT-0700 (Pacific Daylight Time)","665127","Untrustworthy,Trustworthy","","null","","","","feedback","","<div class='trialDiv'><img src='trustrating_stim/white_mw060.bmp'><br><font class='baseline'><strong>Chris</strong><p>Received: <strong>12</strong></font> &nbsp; &nbsp; &nbsp; &nbsp; &nbsp; &nbsp;<font class='negOutcome'>Shared back: <strong>0</strong></font></font><div class='respPicDiv'><img src='img/responseButtonOffersNo0_wht.png' class='respPic'></div></div>","null","1","Chris","5","Kept","0.65,0.35","13","0.65","trustrating_stim/white_mw060.bmp","4.5","4","2"
"html-keyboard-response","143","322471","0.0-19.0-1.2","615e68b3f55d1cf5f6defc2a","bdp_trlrn","Tue Mar 14 2023 18:16:27 GMT-0700 (Pacific Daylight Time)","665127","Untrustworthy,Trustworthy","","822","","","","decision","","<div class='trialDiv'><img src='trustrating_stim/white_00761_941201_fb_edt.bmp'><br><font class='baseline'><strong>Aaron</strong><p>Choose number of points to send.</font><div class='respPicDiv'><img src='img/responseButtonOffersNo0L.png' class='respPic'></div></div>","3","1","Aaron","9","Shared","0.65,0.2","10","0.65","trustrating_stim/white_00761_941201_fb_edt.bmp","7.5","9","3"
"html-keyboard-response","144","322726","0.0-19.0-2.2","615e68b3f55d1cf5f6defc2a","bdp_trlrn","Tue Mar 14 2023 18:16:27 GMT-0700 (Pacific Daylight Time)","665127","Untrustworthy,Trustworthy","","null","","","","decisionFB","","<div class='trialDiv'><img src='trustrating_stim/white_00761_941201_fb_edt.bmp'><br><font class='baseline'><strong>Aaron</strong><p>Choose number of points to send.</font><div class='respPicDiv'><img src='img/responseButtonOffersNo0L3.png' class='respPic'></div></div>","null","1","Aaron","9","Shared","0.65,0.2","10","0.65","trustrating_stim/white_00761_941201_fb_edt.bmp","7.5","6","3"
"html-keyboard-response","145","323734","0.0-19.0-3.2","615e68b3f55d1cf5f6defc2a","bdp_trlrn","Tue Mar 14 2023 18:16:27 GMT-0700 (Pacific Daylight Time)","665127","Untrustworthy,Trustworthy","","null","","","","feedback","","<div class='trialDiv'><img src='trustrating_stim/white_00761_941201_fb_edt.bmp'><br><font class='baseline'><strong>Aaron</strong><p>Received: <strong>12</strong></font> &nbsp; &nbsp; &nbsp; &nbsp; &nbsp; &nbsp;<font class='posOutcome'>Shared back: <strong>6</strong></font></font><div class='respPicDiv'><img src='img/responseButtonOffersNo0_wht.png' class='respPic'></div></div>","null","1","Aaron","9","Shared","0.65,0.2","10","0.65","trustrating_stim/white_00761_941201_fb_edt.bmp","7.5","12","3"
"html-keyboard-response","146","325801","0.0-19.0-1.3","615e68b3f55d1cf5f6defc2a","bdp_trlrn","Tue Mar 14 2023 18:16:27 GMT-0700 (Pacific Daylight Time)","665127","Untrustworthy,Trustworthy","","2064","","","","decision","","<div class='trialDiv'><img src='trustrating_stim/white_00340_940422_fa_edt.bmp'><br><font class='baseline'><strong>Jason</strong><p>Choose number of points to send.</font><div class='respPicDiv'><img src='img/responseButtonOffersNo0L.png' class='respPic'></div></div>","1","2","Jason","0","Kept","0.2,0.65","12","0.2","trustrating_stim/white_00340_940422_fa_edt.bmp","1.5","17","4"
"html-keyboard-response","147","326054","0.0-19.0-2.3","615e68b3f55d1cf5f6defc2a","bdp_trlrn","Tue Mar 14 2023 18:16:27 GMT-0700 (Pacific Daylight Time)","665127","Untrustworthy,Trustworthy","","null","","","","decisionFB","","<div class='trialDiv'><img src='trustrating_stim/white_00340_940422_fa_edt.bmp'><br><font class='baseline'><strong>Jason</strong><p>Choose number of points to send.</font><div class='respPicDiv'><img src='img/responseButtonOffersNo0L1.png' class='respPic'></div></div>","null","2","Jason","0","Kept","0.2,0.65","12","0.2","trustrating_stim/white_00340_940422_fa_edt.bmp","1.5","16","4"
"html-keyboard-response","148","327062","0.0-19.0-3.3","615e68b3f55d1cf5f6defc2a","bdp_trlrn","Tue Mar 14 2023 18:16:27 GMT-0700 (Pacific Daylight Time)","665127","Untrustworthy,Trustworthy","","null","","","","feedback","","<div class='trialDiv'><img src='trustrating_stim/white_00340_940422_fa_edt.bmp'><br><font class='baseline'><strong>Jason</strong><p>Received: <strong>4</strong></font> &nbsp; &nbsp; &nbsp; &nbsp; &nbsp; &nbsp;<font class='negOutcome'>Shared back: <strong>0</strong></font></font><div class='respPicDiv'><img src='img/responseButtonOffersNo0_wht.png' class='respPic'></div></div>","null","2","Jason","0","Kept","0.2,0.65","12","0.2","trustrating_stim/white_00340_940422_fa_edt.bmp","1.5","16","4"
"html-keyboard-response","149","331031","0.0-19.0-1.4","615e68b3f55d1cf5f6defc2a","bdp_trlrn","Tue Mar 14 2023 18:16:27 GMT-0700 (Pacific Daylight Time)","665127","Untrustworthy,Trustworthy","","3966","","","","decision","","<div class='trialDiv'><img src='trustrating_stim/white_00761_941201_fb_edt.bmp'><br><font class='baseline'><strong>Aaron</strong><p>Choose number of points to send.</font><div class='respPicDiv'><img src='img/responseButtonOffersNo0L.png' class='respPic'></div></div>","5","2","Aaron","9","Shared","0.65,0.2","10","0.65","trustrating_stim/white_00761_941201_fb_edt.bmp","7.5","21","5"
"html-keyboard-response","150","331287","0.0-19.0-2.4","615e68b3f55d1cf5f6defc2a","bdp_trlrn","Tue Mar 14 2023 18:16:27 GMT-0700 (Pacific Daylight Time)","665127","Untrustworthy,Trustworthy","","null","","","","decisionFB","","<div class='trialDiv'><img src='trustrating_stim/white_00761_941201_fb_edt.bmp'><br><font class='baseline'><strong>Aaron</strong><p>Choose number of points to send.</font><div class='respPicDiv'><img src='img/responseButtonOffersNo0L5.png' class='respPic'></div></div>","null","2","Aaron","9","Shared","0.65,0.2","10","0.65","trustrating_stim/white_00761_941201_fb_edt.bmp","7.5","16","5"
"html-keyboard-response","151","332294","0.0-19.0-3.4","615e68b3f55d1cf5f6defc2a","bdp_trlrn","Tue Mar 14 2023 18:16:27 GMT-0700 (Pacific Daylight Time)","665127","Untrustworthy,Trustworthy","","null","","","","feedback","","<div class='trialDiv'><img src='trustrating_stim/white_00761_941201_fb_edt.bmp'><br><font class='baseline'><strong>Aaron</strong><p>Received: <strong>20</strong></font> &nbsp; &nbsp; &nbsp; &nbsp; &nbsp; &nbsp;<font class='posOutcome'>Shared back: <strong>10</strong></font></font><div class='respPicDiv'><img src='img/responseButtonOffersNo0_wht.png' class='respPic'></div></div>","null","2","Aaron","9","Shared","0.65,0.2","10","0.65","trustrating_stim/white_00761_941201_fb_edt.bmp","7.5","26","5"
"html-keyboard-response","152","334616","0.0-19.0-1.5","615e68b3f55d1cf5f6defc2a","bdp_trlrn","Tue Mar 14 2023 18:16:27 GMT-0700 (Pacific Daylight Time)","665127","Untrustworthy,Trustworthy","","2320","","","","decision","","<div class='trialDiv'><img src='trustrating_stim/white_mw060.bmp'><br><font class='baseline'><strong>Chris</strong><p>Choose number of points to send.</font><div class='respPicDiv'><img src='img/responseButtonOffersNo0L.png' class='respPic'></div></div>","1","2","Chris","5","Shared","0.65,0.35","13","0.65","trustrating_stim/white_mw060.bmp","4.5","31","6"
"html-keyboard-response","153","334870","0.0-19.0-2.5","615e68b3f55d1cf5f6defc2a","bdp_trlrn","Tue Mar 14 2023 18:16:27 GMT-0700 (Pacific Daylight Time)","665127","Untrustworthy,Trustworthy","","null","","","","decisionFB","","<div class='trialDiv'><img src='trustrating_stim/white_mw060.bmp'><br><font class='baseline'><strong>Chris</strong><p>Choose number of points to send.</font><div class='respPicDiv'><img src='img/responseButtonOffersNo0L1.png' class='respPic'></div></div>","null","2","Chris","5","Shared","0.65,0.35","13","0.65","trustrating_stim/white_mw060.bmp","4.5","30","6"
"html-keyboard-response","154","335878","0.0-19.0-3.5","615e68b3f55d1cf5f6defc2a","bdp_trlrn","Tue Mar 14 2023 18:16:27 GMT-0700 (Pacific Daylight Time)","665127","Untrustworthy,Trustworthy","","null","","","","feedback","","<div class='trialDiv'><img src='trustrating_stim/white_mw060.bmp'><br><font class='baseline'><strong>Chris</strong><p>Received: <strong>4</strong></font> &nbsp; &nbsp; &nbsp; &nbsp; &nbsp; &nbsp;<font class='posOutcome'>Shared back: <strong>2</strong></font></font><div class='respPicDiv'><img src='img/responseButtonOffersNo0_wht.png' class='respPic'></div></div>","null","2","Chris","5","Shared","0.65,0.35","13","0.65","trustrating_stim/white_mw060.bmp","4.5","32","6"
"html-keyboard-response","155","340064","0.0-19.0-1.6","615e68b3f55d1cf5f6defc2a","bdp_trlrn","Tue Mar 14 2023 18:16:27 GMT-0700 (Pacific Daylight Time)","665127","Untrustworthy,Trustworthy","","4184","","","","decision","","<div class='trialDiv'><img src='trustrating_stim/white_00340_940422_fa_edt.bmp'><br><font class='baseline'><strong>Jason</strong><p>Choose number of points to send.</font><div class='respPicDiv'><img src='img/responseButtonOffersNo0L.png' class='respPic'></div></div>","2","3","Jason","0","Kept","0.2,0.65","12","0.2","trustrating_stim/white_00340_940422_fa_edt.bmp","1.5","37","7"
"html-keyboard-response","156","340318","0.0-19.0-2.6","615e68b3f55d1cf5f6defc2a","bdp_trlrn","Tue Mar 14 2023 18:16:27 GMT-0700 (Pacific Daylight Time)","665127","Untrustworthy,Trustworthy","","null","","","","decisionFB","","<div class='trialDiv'><img src='trustrating_stim/white_00340_940422_fa_edt.bmp'><br><font class='baseline'><strong>Jason</strong><p>Choose number of points to send.</font><div class='respPicDiv'><img src='img/responseButtonOffersNo0L2.png' class='respPic'></div></div>","null","3","Jason","0","Kept","0.2,0.65","12","0.2","trustrating_stim/white_00340_940422_fa_edt.bmp","1.5","35","7"
"html-keyboard-response","157","341326","0.0-19.0-3.6","615e68b3f55d1cf5f6defc2a","bdp_trlrn","Tue Mar 14 2023 18:16:27 GMT-0700 (Pacific Daylight Time)","665127","Untrustworthy,Trustworthy","","null","","","","feedback","","<div class='trialDiv'><img src='trustrating_stim/white_00340_940422_fa_edt.bmp'><br><font class='baseline'><strong>Jason</strong><p>Received: <strong>8</strong></font> &nbsp; &nbsp; &nbsp; &nbsp; &nbsp; &nbsp;<font class='negOutcome'>Shared back: <strong>0</strong></font></font><div class='respPicDiv'><img src='img/responseButtonOffersNo0_wht.png' class='respPic'></div></div>","null","3","Jason","0","Kept","0.2,0.65","12","0.2","trustrating_stim/white_00340_940422_fa_edt.bmp","1.5","35","7"
"html-keyboard-response","158","342924","0.0-19.0-1.7","615e68b3f55d1cf5f6defc2a","bdp_trlrn","Tue Mar 14 2023 18:16:27 GMT-0700 (Pacific Daylight Time)","665127","Untrustworthy,Trustworthy","","1596","","","","decision","","<div class='trialDiv'><img src='trustrating_stim/white_00761_941201_fb_edt.bmp'><br><font class='baseline'><strong>Aaron</strong><p>Choose number of points to send.</font><div class='respPicDiv'><img src='img/responseButtonOffersNo0L.png' class='respPic'></div></div>","5","3","Aaron","9","Kept","0.65,0.2","10","0.65","trustrating_stim/white_00761_941201_fb_edt.bmp","7.5","40","8"
"html-keyboard-response","159","343182","0.0-19.0-2.7","615e68b3f55d1cf5f6defc2a","bdp_trlrn","Tue Mar 14 2023 18:16:27 GMT-0700 (Pacific Daylight Time)","665127","Untrustworthy,Trustworthy","","null","","","","decisionFB","","<div class='trialDiv'><img src='trustrating_stim/white_00761_941201_fb_edt.bmp'><br><font class='baseline'><strong>Aaron</strong><p>Choose number of points to send.</font><div class='respPicDiv'><img src='img/responseButtonOffersNo0L5.png' class='respPic'></div></div>","null","3","Aaron","9","Kept","0.65,0.2","10","0.65","trustrating_stim/white_00761_941201_fb_edt.bmp","7.5","35","8"
"html-keyboard-response","160","344190","0.0-19.0-3.7","615e68b3f55d1cf5f6defc2a","bdp_trlrn","Tue Mar 14 2023 18:16:27 GMT-0700 (Pacific Daylight Time)","665127","Untrustworthy,Trustworthy","","null","","","","feedback","","<div class='trialDiv'><img src='trustrating_stim/white_00761_941201_fb_edt.bmp'><br><font class='baseline'><strong>Aaron</strong><p>Received: <strong>20</strong></font> &nbsp; &nbsp; &nbsp; &nbsp; &nbsp; &nbsp;<font class='negOutcome'>Shared back: <strong>0</strong></font></font><div class='respPicDiv'><img src='img/responseButtonOffersNo0_wht.png' class='respPic'></div></div>","null","3","Aaron","9","Kept","0.65,0.2","10","0.65","trustrating_stim/white_00761_941201_fb_edt.bmp","7.5","35","8"
"html-keyboard-response","161","346109","0.0-19.0-1.8","615e68b3f55d1cf5f6defc2a","bdp_trlrn","Tue Mar 14 2023 18:16:27 GMT-0700 (Pacific Daylight Time)","665127","Untrustworthy,Trustworthy","","1916","","","","decision","","<div class='trialDiv'><img src='trustrating_stim/white_mw060.bmp'><br><font class='baseline'><strong>Chris</strong><p>Choose number of points to send.</font><div class='respPicDiv'><img src='img/responseButtonOffersNo0L.png' class='respPic'></div></div>","2","3","Chris","5","Shared","0.65,0.35","13","0.65","trustrating_stim/white_mw060.bmp","4.5","40","9"
"html-keyboard-response","162","346366","0.0-19.0-2.8","615e68b3f55d1cf5f6defc2a","bdp_trlrn","Tue Mar 14 2023 18:16:27 GMT-0700 (Pacific Daylight Time)","665127","Untrustworthy,Trustworthy","","null","","","","decisionFB","","<div class='trialDiv'><img src='trustrating_stim/white_mw060.bmp'><br><font class='baseline'><strong>Chris</strong><p>Choose number of points to send.</font><div class='respPicDiv'><img src='img/responseButtonOffersNo0L2.png' class='respPic'></div></div>","null","3","Chris","5","Shared","0.65,0.35","13","0.65","trustrating_stim/white_mw060.bmp","4.5","38","9"
"html-keyboard-response","163","347374","0.0-19.0-3.8","615e68b3f55d1cf5f6defc2a","bdp_trlrn","Tue Mar 14 2023 18:16:27 GMT-0700 (Pacific Daylight Time)","665127","Untrustworthy,Trustworthy","","null","","","","feedback","","<div class='trialDiv'><img src='trustrating_stim/white_mw060.bmp'><br><font class='baseline'><strong>Chris</strong><p>Received: <strong>8</strong></font> &nbsp; &nbsp; &nbsp; &nbsp; &nbsp; &nbsp;<font class='posOutcome'>Shared back: <strong>4</strong></font></font><div class='respPicDiv'><img src='img/responseButtonOffersNo0_wht.png' class='respPic'></div></div>","null","3","Chris","5","Shared","0.65,0.35","13","0.65","trustrating_stim/white_mw060.bmp","4.5","42","9"
"html-keyboard-response","164","349864","0.0-19.0-1.9","615e68b3f55d1cf5f6defc2a","bdp_trlrn","Tue Mar 14 2023 18:16:27 GMT-0700 (Pacific Daylight Time)","665127","Untrustworthy,Trustworthy","","2487","","","","decision","","<div class='trialDiv'><img src='trustrating_stim/white_00340_940422_fa_edt.bmp'><br><font class='baseline'><strong>Jason</strong><p>Choose number of points to send.</font><div class='respPicDiv'><img src='img/responseButtonOffersNo0L.png' class='respPic'></div></div>","2","4","Jason","0","Kept","0.2,0.65","12","0.2","trustrating_stim/white_00340_940422_fa_edt.bmp","1.5","47","10"
"html-keyboard-response","165","350118","0.0-19.0-2.9","615e68b3f55d1cf5f6defc2a","bdp_trlrn","Tue Mar 14 2023 18:16:27 GMT-0700 (Pacific Daylight Time)","665127","Untrustworthy,Trustworthy","","null","","","","decisionFB","","<div class='trialDiv'><img src='trustrating_stim/white_00340_940422_fa_edt.bmp'><br><font class='baseline'><strong>Jason</strong><p>Choose number of points to send.</font><div class='respPicDiv'><img src='img/responseButtonOffersNo0L2.png' class='respPic'></div></div>","null","4","Jason","0","Kept","0.2,0.65","12","0.2","trustrating_stim/white_00340_940422_fa_edt.bmp","1.5","45","10"
"html-keyboard-response","166","351126","0.0-19.0-3.9","615e68b3f55d1cf5f6defc2a","bdp_trlrn","Tue Mar 14 2023 18:16:27 GMT-0700 (Pacific Daylight Time)","665127","Untrustworthy,Trustworthy","","null","","","","feedback","","<div class='trialDiv'><img src='trustrating_stim/white_00340_940422_fa_edt.bmp'><br><font class='baseline'><strong>Jason</strong><p>Received: <strong>8</strong></font> &nbsp; &nbsp; &nbsp; &nbsp; &nbsp; &nbsp;<font class='negOutcome'>Shared back: <strong>0</strong></font></font><div class='respPicDiv'><img src='img/responseButtonOffersNo0_wht.png' class='respPic'></div></div>","null","4","Jason","0","Kept","0.2,0.65","12","0.2","trustrating_stim/white_00340_940422_fa_edt.bmp","1.5","45","10"
"html-keyboard-response","167","352335","0.0-19.0-1.10","615e68b3f55d1cf5f6defc2a","bdp_trlrn","Tue Mar 14 2023 18:16:27 GMT-0700 (Pacific Daylight Time)","665127","Untrustworthy,Trustworthy","","1207","","","","decision","","<div class='trialDiv'><img src='trustrating_stim/white_00761_941201_fb_edt.bmp'><br><font class='baseline'><strong>Aaron</strong><p>Choose number of points to send.</font><div class='respPicDiv'><img src='img/responseButtonOffersNo0L.png' class='respPic'></div></div>","3","4","Aaron","9","Shared","0.65,0.2","10","0.65","trustrating_stim/white_00761_941201_fb_edt.bmp","7.5","50","11"
"html-keyboard-response","168","352590","0.0-19.0-2.10","615e68b3f55d1cf5f6defc2a","bdp_trlrn","Tue Mar 14 2023 18:16:27 GMT-0700 (Pacific Daylight Time)","665127","Untrustworthy,Trustworthy","","null","","","","decisionFB","","<div class='trialDiv'><img src='trustrating_stim/white_00761_941201_fb_edt.bmp'><br><font class='baseline'><strong>Aaron</strong><p>Choose number of points to send.</font><div class='respPicDiv'><img src='img/responseButtonOffersNo0L3.png' class='respPic'></div></div>","null","4","Aaron","9","Shared","0.65,0.2","10","0.65","trustrating_stim/white_00761_941201_fb_edt.bmp","7.5","47","11"
"html-keyboard-response","169","353598","0.0-19.0-3.10","615e68b3f55d1cf5f6defc2a","bdp_trlrn","Tue Mar 14 2023 18:16:27 GMT-0700 (Pacific Daylight Time)","665127","Untrustworthy,Trustworthy","","null","","","","feedback","","<div class='trialDiv'><img src='trustrating_stim/white_00761_941201_fb_edt.bmp'><br><font class='baseline'><strong>Aaron</strong><p>Received: <strong>12</strong></font> &nbsp; &nbsp; &nbsp; &nbsp; &nbsp; &nbsp;<font class='posOutcome'>Shared back: <strong>6</strong></font></font><div class='respPicDiv'><img src='img/responseButtonOffersNo0_wht.png' class='respPic'></div></div>","null","4","Aaron","9","Shared","0.65,0.2","10","0.65","trustrating_stim/white_00761_941201_fb_edt.bmp","7.5","53","11"
"html-keyboard-response","170","354375","0.0-19.0-1.11","615e68b3f55d1cf5f6defc2a","bdp_trlrn","Tue Mar 14 2023 18:16:27 GMT-0700 (Pacific Daylight Time)","665127","Untrustworthy,Trustworthy","","774","","","","decision","","<div class='trialDiv'><img src='trustrating_stim/white_mw060.bmp'><br><font class='baseline'><strong>Chris</strong><p>Choose number of points to send.</font><div class='respPicDiv'><img src='img/responseButtonOffersNo0L.png' class='respPic'></div></div>","2","4","Chris","5","Shared","0.65,0.35","13","0.65","trustrating_stim/white_mw060.bmp","4.5","58","12"
"html-keyboard-response","171","354631","0.0-19.0-2.11","615e68b3f55d1cf5f6defc2a","bdp_trlrn","Tue Mar 14 2023 18:16:27 GMT-0700 (Pacific Daylight Time)","665127","Untrustworthy,Trustworthy","","null","","","","decisionFB","","<div class='trialDiv'><img src='trustrating_stim/white_mw060.bmp'><br><font class='baseline'><strong>Chris</strong><p>Choose number of points to send.</font><div class='respPicDiv'><img src='img/responseButtonOffersNo0L2.png' class='respPic'></div></div>","null","4","Chris","5","Shared","0.65,0.35","13","0.65","trustrating_stim/white_mw060.bmp","4.5","56","12"
"html-keyboard-response","172","355638","0.0-19.0-3.11","615e68b3f55d1cf5f6defc2a","bdp_trlrn","Tue Mar 14 2023 18:16:27 GMT-0700 (Pacific Daylight Time)","665127","Untrustworthy,Trustworthy","","null","","","","feedback","","<div class='trialDiv'><img src='trustrating_stim/white_mw060.bmp'><br><font class='baseline'><strong>Chris</strong><p>Received: <strong>8</strong></font> &nbsp; &nbsp; &nbsp; &nbsp; &nbsp; &nbsp;<font class='posOutcome'>Shared back: <strong>4</strong></font></font><div class='respPicDiv'><img src='img/responseButtonOffersNo0_wht.png' class='respPic'></div></div>","null","4","Chris","5","Shared","0.65,0.35","13","0.65","trustrating_stim/white_mw060.bmp","4.5","60","12"
"html-keyboard-response","173","356264","0.0-19.0-1.12","615e68b3f55d1cf5f6defc2a","bdp_trlrn","Tue Mar 14 2023 18:16:27 GMT-0700 (Pacific Daylight Time)","665127","Untrustworthy,Trustworthy","","624","","","","decision","","<div class='trialDiv'><img src='trustrating_stim/white_00340_940422_fa_edt.bmp'><br><font class='baseline'><strong>Jason</strong><p>Choose number of points to send.</font><div class='respPicDiv'><img src='img/responseButtonOffersNo0L.png' class='respPic'></div></div>","1","5","Jason","0","Kept","0.2,0.65","12","0.2","trustrating_stim/white_00340_940422_fa_edt.bmp","1.5","65","13"
"html-keyboard-response","174","356518","0.0-19.0-2.12","615e68b3f55d1cf5f6defc2a","bdp_trlrn","Tue Mar 14 2023 18:16:27 GMT-0700 (Pacific Daylight Time)","665127","Untrustworthy,Trustworthy","","null","","","","decisionFB","","<div class='trialDiv'><img src='trustrating_stim/white_00340_940422_fa_edt.bmp'><br><font class='baseline'><strong>Jason</strong><p>Choose number of points to send.</font><div class='respPicDiv'><img src='img/responseButtonOffersNo0L1.png' class='respPic'></div></div>","null","5","Jason","0","Kept","0.2,0.65","12","0.2","trustrating_stim/white_00340_940422_fa_edt.bmp","1.5","64","13"
"html-keyboard-response","175","357526","0.0-19.0-3.12","615e68b3f55d1cf5f6defc2a","bdp_trlrn","Tue Mar 14 2023 18:16:27 GMT-0700 (Pacific Daylight Time)","665127","Untrustworthy,Trustworthy","","null","","","","feedback","","<div class='trialDiv'><img src='trustrating_stim/white_00340_940422_fa_edt.bmp'><br><font class='baseline'><strong>Jason</strong><p>Received: <strong>4</strong></font> &nbsp; &nbsp; &nbsp; &nbsp; &nbsp; &nbsp;<font class='negOutcome'>Shared back: <strong>0</strong></font></font><div class='respPicDiv'><img src='img/responseButtonOffersNo0_wht.png' class='respPic'></div></div>","null","5","Jason","0","Kept","0.2,0.65","12","0.2","trustrating_stim/white_00340_940422_fa_edt.bmp","1.5","64","13"
"html-keyboard-response","176","359336","0.0-19.0-1.13","615e68b3f55d1cf5f6defc2a","bdp_trlrn","Tue Mar 14 2023 18:16:27 GMT-0700 (Pacific Daylight Time)","665127","Untrustworthy,Trustworthy","","1807","","","","decision","","<div class='trialDiv'><img src='trustrating_stim/white_mw060.bmp'><br><font class='baseline'><strong>Chris</strong><p>Choose number of points to send.</font><div class='respPicDiv'><img src='img/responseButtonOffersNo0L.png' class='respPic'></div></div>","2","5","Chris","5","Shared","0.65,0.35","13","0.65","trustrating_stim/white_mw060.bmp","4.5","69","14"
"html-keyboard-response","177","359590","0.0-19.0-2.13","615e68b3f55d1cf5f6defc2a","bdp_trlrn","Tue Mar 14 2023 18:16:27 GMT-0700 (Pacific Daylight Time)","665127","Untrustworthy,Trustworthy","","null","","","","decisionFB","","<div class='trialDiv'><img src='trustrating_stim/white_mw060.bmp'><br><font class='baseline'><strong>Chris</strong><p>Choose number of points to send.</font><div class='respPicDiv'><img src='img/responseButtonOffersNo0L2.png' class='respPic'></div></div>","null","5","Chris","5","Shared","0.65,0.35","13","0.65","trustrating_stim/white_mw060.bmp","4.5","67","14"
"html-keyboard-response","178","360598","0.0-19.0-3.13","615e68b3f55d1cf5f6defc2a","bdp_trlrn","Tue Mar 14 2023 18:16:27 GMT-0700 (Pacific Daylight Time)","665127","Untrustworthy,Trustworthy","","null","","","","feedback","","<div class='trialDiv'><img src='trustrating_stim/white_mw060.bmp'><br><font class='baseline'><strong>Chris</strong><p>Received: <strong>8</strong></font> &nbsp; &nbsp; &nbsp; &nbsp; &nbsp; &nbsp;<font class='posOutcome'>Shared back: <strong>4</strong></font></font><div class='respPicDiv'><img src='img/responseButtonOffersNo0_wht.png' class='respPic'></div></div>","null","5","Chris","5","Shared","0.65,0.35","13","0.65","trustrating_stim/white_mw060.bmp","4.5","71","14"
"html-keyboard-response","179","361517","0.0-19.0-1.14","615e68b3f55d1cf5f6defc2a","bdp_trlrn","Tue Mar 14 2023 18:16:27 GMT-0700 (Pacific Daylight Time)","665127","Untrustworthy,Trustworthy","","916","","","","decision","","<div class='trialDiv'><img src='trustrating_stim/white_00761_941201_fb_edt.bmp'><br><font class='baseline'><strong>Aaron</strong><p>Choose number of points to send.</font><div class='respPicDiv'><img src='img/responseButtonOffersNo0L.png' class='respPic'></div></div>","3","5","Aaron","9","Kept","0.65,0.2","10","0.65","trustrating_stim/white_00761_941201_fb_edt.bmp","7.5","76","15"
"html-keyboard-response","180","361774","0.0-19.0-2.14","615e68b3f55d1cf5f6defc2a","bdp_trlrn","Tue Mar 14 2023 18:16:27 GMT-0700 (Pacific Daylight Time)","665127","Untrustworthy,Trustworthy","","null","","","","decisionFB","","<div class='trialDiv'><img src='trustrating_stim/white_00761_941201_fb_edt.bmp'><br><font class='baseline'><strong>Aaron</strong><p>Choose number of points to send.</font><div class='respPicDiv'><img src='img/responseButtonOffersNo0L3.png' class='respPic'></div></div>","null","5","Aaron","9","Kept","0.65,0.2","10","0.65","trustrating_stim/white_00761_941201_fb_edt.bmp","7.5","73","15"
"html-keyboard-response","181","362782","0.0-19.0-3.14","615e68b3f55d1cf5f6defc2a","bdp_trlrn","Tue Mar 14 2023 18:16:27 GMT-0700 (Pacific Daylight Time)","665127","Untrustworthy,Trustworthy","","null","","","","feedback","","<div class='trialDiv'><img src='trustrating_stim/white_00761_941201_fb_edt.bmp'><br><font class='baseline'><strong>Aaron</strong><p>Received: <strong>12</strong></font> &nbsp; &nbsp; &nbsp; &nbsp; &nbsp; &nbsp;<font class='negOutcome'>Shared back: <strong>0</strong></font></font><div class='respPicDiv'><img src='img/responseButtonOffersNo0_wht.png' class='respPic'></div></div>","null","5","Aaron","9","Kept","0.65,0.2","10","0.65","trustrating_stim/white_00761_941201_fb_edt.bmp","7.5","73","15"
"html-keyboard-response","182","363967","0.0-19.0-1.15","615e68b3f55d1cf5f6defc2a","bdp_trlrn","Tue Mar 14 2023 18:16:27 GMT-0700 (Pacific Daylight Time)","665127","Untrustworthy,Trustworthy","","1182","","","","decision","","<div class='trialDiv'><img src='trustrating_stim/white_00340_940422_fa_edt.bmp'><br><font class='baseline'><strong>Jason</strong><p>Choose number of points to send.</font><div class='respPicDiv'><img src='img/responseButtonOffersNo0L.png' class='respPic'></div></div>","1","6","Jason","0","Shared","0.2,0.65","12","0.2","trustrating_stim/white_00340_940422_fa_edt.bmp","1.5","78","16"
"html-keyboard-response","183","364222","0.0-19.0-2.15","615e68b3f55d1cf5f6defc2a","bdp_trlrn","Tue Mar 14 2023 18:16:27 GMT-0700 (Pacific Daylight Time)","665127","Untrustworthy,Trustworthy","","null","","","","decisionFB","","<div class='trialDiv'><img src='trustrating_stim/white_00340_940422_fa_edt.bmp'><br><font class='baseline'><strong>Jason</strong><p>Choose number of points to send.</font><div class='respPicDiv'><img src='img/responseButtonOffersNo0L1.png' class='respPic'></div></div>","null","6","Jason","0","Shared","0.2,0.65","12","0.2","trustrating_stim/white_00340_940422_fa_edt.bmp","1.5","77","16"
"html-keyboard-response","184","365230","0.0-19.0-3.15","615e68b3f55d1cf5f6defc2a","bdp_trlrn","Tue Mar 14 2023 18:16:27 GMT-0700 (Pacific Daylight Time)","665127","Untrustworthy,Trustworthy","","null","","","","feedback","","<div class='trialDiv'><img src='trustrating_stim/white_00340_940422_fa_edt.bmp'><br><font class='baseline'><strong>Jason</strong><p>Received: <strong>4</strong></font> &nbsp; &nbsp; &nbsp; &nbsp; &nbsp; &nbsp;<font class='posOutcome'>Shared back: <strong>2</strong></font></font><div class='respPicDiv'><img src='img/responseButtonOffersNo0_wht.png' class='respPic'></div></div>","null","6","Jason","0","Shared","0.2,0.65","12","0.2","trustrating_stim/white_00340_940422_fa_edt.bmp","1.5","79","16"
"html-keyboard-response","185","366741","0.0-19.0-1.16","615e68b3f55d1cf5f6defc2a","bdp_trlrn","Tue Mar 14 2023 18:16:27 GMT-0700 (Pacific Daylight Time)","665127","Untrustworthy,Trustworthy","","1509","","","","decision","","<div class='trialDiv'><img src='trustrating_stim/white_00761_941201_fb_edt.bmp'><br><font class='baseline'><strong>Aaron</strong><p>Choose number of points to send.</font><div class='respPicDiv'><img src='img/responseButtonOffersNo0L.png' class='respPic'></div></div>","2","6","Aaron","9","Shared","0.65,0.2","10","0.65","trustrating_stim/white_00761_941201_fb_edt.bmp","7.5","84","17"
"html-keyboard-response","186","366998","0.0-19.0-2.16","615e68b3f55d1cf5f6defc2a","bdp_trlrn","Tue Mar 14 2023 18:16:27 GMT-0700 (Pacific Daylight Time)","665127","Untrustworthy,Trustworthy","","null","","","","decisionFB","","<div class='trialDiv'><img src='trustrating_stim/white_00761_941201_fb_edt.bmp'><br><font class='baseline'><strong>Aaron</strong><p>Choose number of points to send.</font><div class='respPicDiv'><img src='img/responseButtonOffersNo0L2.png' class='respPic'></div></div>","null","6","Aaron","9","Shared","0.65,0.2","10","0.65","trustrating_stim/white_00761_941201_fb_edt.bmp","7.5","82","17"
"html-keyboard-response","187","368006","0.0-19.0-3.16","615e68b3f55d1cf5f6defc2a","bdp_trlrn","Tue Mar 14 2023 18:16:27 GMT-0700 (Pacific Daylight Time)","665127","Untrustworthy,Trustworthy","","null","","","","feedback","","<div class='trialDiv'><img src='trustrating_stim/white_00761_941201_fb_edt.bmp'><br><font class='baseline'><strong>Aaron</strong><p>Received: <strong>8</strong></font> &nbsp; &nbsp; &nbsp; &nbsp; &nbsp; &nbsp;<font class='posOutcome'>Shared back: <strong>4</strong></font></font><div class='respPicDiv'><img src='img/responseButtonOffersNo0_wht.png' class='respPic'></div></div>","null","6","Aaron","9","Shared","0.65,0.2","10","0.65","trustrating_stim/white_00761_941201_fb_edt.bmp","7.5","86","17"
"html-keyboard-response","188","369423","0.0-19.0-1.17","615e68b3f55d1cf5f6defc2a","bdp_trlrn","Tue Mar 14 2023 18:16:27 GMT-0700 (Pacific Daylight Time)","665127","Untrustworthy,Trustworthy","","1415","","","","decision","","<div class='trialDiv'><img src='trustrating_stim/white_mw060.bmp'><br><font class='baseline'><strong>Chris</strong><p>Choose number of points to send.</font><div class='respPicDiv'><img src='img/responseButtonOffersNo0L.png' class='respPic'></div></div>","2","6","Chris","5","Shared","0.65,0.35","13","0.65","trustrating_stim/white_mw060.bmp","4.5","91","18"
"html-keyboard-response","189","369678","0.0-19.0-2.17","615e68b3f55d1cf5f6defc2a","bdp_trlrn","Tue Mar 14 2023 18:16:27 GMT-0700 (Pacific Daylight Time)","665127","Untrustworthy,Trustworthy","","null","","","","decisionFB","","<div class='trialDiv'><img src='trustrating_stim/white_mw060.bmp'><br><font class='baseline'><strong>Chris</strong><p>Choose number of points to send.</font><div class='respPicDiv'><img src='img/responseButtonOffersNo0L2.png' class='respPic'></div></div>","null","6","Chris","5","Shared","0.65,0.35","13","0.65","trustrating_stim/white_mw060.bmp","4.5","89","18"
"html-keyboard-response","190","370686","0.0-19.0-3.17","615e68b3f55d1cf5f6defc2a","bdp_trlrn","Tue Mar 14 2023 18:16:27 GMT-0700 (Pacific Daylight Time)","665127","Untrustworthy,Trustworthy","","null","","","","feedback","","<div class='trialDiv'><img src='trustrating_stim/white_mw060.bmp'><br><font class='baseline'><strong>Chris</strong><p>Received: <strong>8</strong></font> &nbsp; &nbsp; &nbsp; &nbsp; &nbsp; &nbsp;<font class='posOutcome'>Shared back: <strong>4</strong></font></font><div class='respPicDiv'><img src='img/responseButtonOffersNo0_wht.png' class='respPic'></div></div>","null","6","Chris","5","Shared","0.65,0.35","13","0.65","trustrating_stim/white_mw060.bmp","4.5","93","18"
"html-keyboard-response","191","373378","0.0-19.0-1.18","615e68b3f55d1cf5f6defc2a","bdp_trlrn","Tue Mar 14 2023 18:16:27 GMT-0700 (Pacific Daylight Time)","665127","Untrustworthy,Trustworthy","","2690","","","","decision","","<div class='trialDiv'><img src='trustrating_stim/white_00761_941201_fb_edt.bmp'><br><font class='baseline'><strong>Aaron</strong><p>Choose number of points to send.</font><div class='respPicDiv'><img src='img/responseButtonOffersNo0L.png' class='respPic'></div></div>","2","7","Aaron","9","Shared","0.65,0.2","10","0.65","trustrating_stim/white_00761_941201_fb_edt.bmp","7.5","98","19"
"html-keyboard-response","192","373638","0.0-19.0-2.18","615e68b3f55d1cf5f6defc2a","bdp_trlrn","Tue Mar 14 2023 18:16:27 GMT-0700 (Pacific Daylight Time)","665127","Untrustworthy,Trustworthy","","null","","","","decisionFB","","<div class='trialDiv'><img src='trustrating_stim/white_00761_941201_fb_edt.bmp'><br><font class='baseline'><strong>Aaron</strong><p>Choose number of points to send.</font><div class='respPicDiv'><img src='img/responseButtonOffersNo0L2.png' class='respPic'></div></div>","null","7","Aaron","9","Shared","0.65,0.2","10","0.65","trustrating_stim/white_00761_941201_fb_edt.bmp","7.5","96","19"
"html-keyboard-response","193","374646","0.0-19.0-3.18","615e68b3f55d1cf5f6defc2a","bdp_trlrn","Tue Mar 14 2023 18:16:27 GMT-0700 (Pacific Daylight Time)","665127","Untrustworthy,Trustworthy","","null","","","","feedback","","<div class='trialDiv'><img src='trustrating_stim/white_00761_941201_fb_edt.bmp'><br><font class='baseline'><strong>Aaron</strong><p>Received: <strong>8</strong></font> &nbsp; &nbsp; &nbsp; &nbsp; &nbsp; &nbsp;<font class='posOutcome'>Shared back: <strong>4</strong></font></font><div class='respPicDiv'><img src='img/responseButtonOffersNo0_wht.png' class='respPic'></div></div>","null","7","Aaron","9","Shared","0.65,0.2","10","0.65","trustrating_stim/white_00761_941201_fb_edt.bmp","7.5","100","19"
"html-keyboard-response","194","375270","0.0-19.0-1.19","615e68b3f55d1cf5f6defc2a","bdp_trlrn","Tue Mar 14 2023 18:16:27 GMT-0700 (Pacific Daylight Time)","665127","Untrustworthy,Trustworthy","","622","","","","decision","","<div class='trialDiv'><img src='trustrating_stim/white_00340_940422_fa_edt.bmp'><br><font class='baseline'><strong>Jason</strong><p>Choose number of points to send.</font><div class='respPicDiv'><img src='img/responseButtonOffersNo0L.png' class='respPic'></div></div>","1","7","Jason","0","Kept","0.2,0.65","12","0.2","trustrating_stim/white_00340_940422_fa_edt.bmp","1.5","105","20"
"html-keyboard-response","195","375526","0.0-19.0-2.19","615e68b3f55d1cf5f6defc2a","bdp_trlrn","Tue Mar 14 2023 18:16:27 GMT-0700 (Pacific Daylight Time)","665127","Untrustworthy,Trustworthy","","null","","","","decisionFB","","<div class='trialDiv'><img src='trustrating_stim/white_00340_940422_fa_edt.bmp'><br><font class='baseline'><strong>Jason</strong><p>Choose number of points to send.</font><div class='respPicDiv'><img src='img/responseButtonOffersNo0L1.png' class='respPic'></div></div>","null","7","Jason","0","Kept","0.2,0.65","12","0.2","trustrating_stim/white_00340_940422_fa_edt.bmp","1.5","104","20"
"html-keyboard-response","196","376534","0.0-19.0-3.19","615e68b3f55d1cf5f6defc2a","bdp_trlrn","Tue Mar 14 2023 18:16:27 GMT-0700 (Pacific Daylight Time)","665127","Untrustworthy,Trustworthy","","null","","","","feedback","","<div class='trialDiv'><img src='trustrating_stim/white_00340_940422_fa_edt.bmp'><br><font class='baseline'><strong>Jason</strong><p>Received: <strong>4</strong></font> &nbsp; &nbsp; &nbsp; &nbsp; &nbsp; &nbsp;<font class='negOutcome'>Shared back: <strong>0</strong></font></font><div class='respPicDiv'><img src='img/responseButtonOffersNo0_wht.png' class='respPic'></div></div>","null","7","Jason","0","Kept","0.2,0.65","12","0.2","trustrating_stim/white_00340_940422_fa_edt.bmp","1.5","104","20"
"html-keyboard-response","197","377651","0.0-19.0-1.20","615e68b3f55d1cf5f6defc2a","bdp_trlrn","Tue Mar 14 2023 18:16:27 GMT-0700 (Pacific Daylight Time)","665127","Untrustworthy,Trustworthy","","1114","","","","decision","","<div class='trialDiv'><img src='trustrating_stim/white_mw060.bmp'><br><font class='baseline'><strong>Chris</strong><p>Choose number of points to send.</font><div class='respPicDiv'><img src='img/responseButtonOffersNo0L.png' class='respPic'></div></div>","2","7","Chris","5","Kept","0.65,0.35","13","0.65","trustrating_stim/white_mw060.bmp","4.5","109","21"
"html-keyboard-response","198","377910","0.0-19.0-2.20","615e68b3f55d1cf5f6defc2a","bdp_trlrn","Tue Mar 14 2023 18:16:27 GMT-0700 (Pacific Daylight Time)","665127","Untrustworthy,Trustworthy","","null","","","","decisionFB","","<div class='trialDiv'><img src='trustrating_stim/white_mw060.bmp'><br><font class='baseline'><strong>Chris</strong><p>Choose number of points to send.</font><div class='respPicDiv'><img src='img/responseButtonOffersNo0L2.png' class='respPic'></div></div>","null","7","Chris","5","Kept","0.65,0.35","13","0.65","trustrating_stim/white_mw060.bmp","4.5","107","21"
"html-keyboard-response","199","378918","0.0-19.0-3.20","615e68b3f55d1cf5f6defc2a","bdp_trlrn","Tue Mar 14 2023 18:16:27 GMT-0700 (Pacific Daylight Time)","665127","Untrustworthy,Trustworthy","","null","","","","feedback","","<div class='trialDiv'><img src='trustrating_stim/white_mw060.bmp'><br><font class='baseline'><strong>Chris</strong><p>Received: <strong>8</strong></font> &nbsp; &nbsp; &nbsp; &nbsp; &nbsp; &nbsp;<font class='negOutcome'>Shared back: <strong>0</strong></font></font><div class='respPicDiv'><img src='img/responseButtonOffersNo0_wht.png' class='respPic'></div></div>","null","7","Chris","5","Kept","0.65,0.35","13","0.65","trustrating_stim/white_mw060.bmp","4.5","107","21"
"html-keyboard-response","200","379952","0.0-19.0-1.21","615e68b3f55d1cf5f6defc2a","bdp_trlrn","Tue Mar 14 2023 18:16:27 GMT-0700 (Pacific Daylight Time)","665127","Untrustworthy,Trustworthy","","1033","","","","decision","","<div class='trialDiv'><img src='trustrating_stim/white_00761_941201_fb_edt.bmp'><br><font class='baseline'><strong>Aaron</strong><p>Choose number of points to send.</font><div class='respPicDiv'><img src='img/responseButtonOffersNo0L.png' class='respPic'></div></div>","1","8","Aaron","9","Shared","0.65,0.2","10","0.65","trustrating_stim/white_00761_941201_fb_edt.bmp","7.5","112","22"
"html-keyboard-response","201","380206","0.0-19.0-2.21","615e68b3f55d1cf5f6defc2a","bdp_trlrn","Tue Mar 14 2023 18:16:27 GMT-0700 (Pacific Daylight Time)","665127","Untrustworthy,Trustworthy","","null","","","","decisionFB","","<div class='trialDiv'><img src='trustrating_stim/white_00761_941201_fb_edt.bmp'><br><font class='baseline'><strong>Aaron</strong><p>Choose number of points to send.</font><div class='respPicDiv'><img src='img/responseButtonOffersNo0L1.png' class='respPic'></div></div>","null","8","Aaron","9","Shared","0.65,0.2","10","0.65","trustrating_stim/white_00761_941201_fb_edt.bmp","7.5","111","22"
"html-keyboard-response","202","381214","0.0-19.0-3.21","615e68b3f55d1cf5f6defc2a","bdp_trlrn","Tue Mar 14 2023 18:16:27 GMT-0700 (Pacific Daylight Time)","665127","Untrustworthy,Trustworthy","","null","","","","feedback","","<div class='trialDiv'><img src='trustrating_stim/white_00761_941201_fb_edt.bmp'><br><font class='baseline'><strong>Aaron</strong><p>Received: <strong>4</strong></font> &nbsp; &nbsp; &nbsp; &nbsp; &nbsp; &nbsp;<font class='posOutcome'>Shared back: <strong>2</strong></font></font><div class='respPicDiv'><img src='img/responseButtonOffersNo0_wht.png' class='respPic'></div></div>","null","8","Aaron","9","Shared","0.65,0.2","10","0.65","trustrating_stim/white_00761_941201_fb_edt.bmp","7.5","113","22"
"html-keyboard-response","203","382305","0.0-19.0-1.22","615e68b3f55d1cf5f6defc2a","bdp_trlrn","Tue Mar 14 2023 18:16:27 GMT-0700 (Pacific Daylight Time)","665127","Untrustworthy,Trustworthy","","1088","","","","decision","","<div class='trialDiv'><img src='trustrating_stim/white_mw060.bmp'><br><font class='baseline'><strong>Chris</strong><p>Choose number of points to send.</font><div class='respPicDiv'><img src='img/responseButtonOffersNo0L.png' class='respPic'></div></div>","2","8","Chris","5","Kept","0.65,0.35","13","0.65","trustrating_stim/white_mw060.bmp","4.5","118","23"
"html-keyboard-response","204","382558","0.0-19.0-2.22","615e68b3f55d1cf5f6defc2a","bdp_trlrn","Tue Mar 14 2023 18:16:27 GMT-0700 (Pacific Daylight Time)","665127","Untrustworthy,Trustworthy","","null","","","","decisionFB","","<div class='trialDiv'><img src='trustrating_stim/white_mw060.bmp'><br><font class='baseline'><strong>Chris</strong><p>Choose number of points to send.</font><div class='respPicDiv'><img src='img/responseButtonOffersNo0L2.png' class='respPic'></div></div>","null","8","Chris","5","Kept","0.65,0.35","13","0.65","trustrating_stim/white_mw060.bmp","4.5","116","23"
"html-keyboard-response","205","383566","0.0-19.0-3.22","615e68b3f55d1cf5f6defc2a","bdp_trlrn","Tue Mar 14 2023 18:16:27 GMT-0700 (Pacific Daylight Time)","665127","Untrustworthy,Trustworthy","","null","","","","feedback","","<div class='trialDiv'><img src='trustrating_stim/white_mw060.bmp'><br><font class='baseline'><strong>Chris</strong><p>Received: <strong>8</strong></font> &nbsp; &nbsp; &nbsp; &nbsp; &nbsp; &nbsp;<font class='negOutcome'>Shared back: <strong>0</strong></font></font><div class='respPicDiv'><img src='img/responseButtonOffersNo0_wht.png' class='respPic'></div></div>","null","8","Chris","5","Kept","0.65,0.35","13","0.65","trustrating_stim/white_mw060.bmp","4.5","116","23"
"html-keyboard-response","206","384042","0.0-19.0-1.23","615e68b3f55d1cf5f6defc2a","bdp_trlrn","Tue Mar 14 2023 18:16:27 GMT-0700 (Pacific Daylight Time)","665127","Untrustworthy,Trustworthy","","473","","","","decision","","<div class='trialDiv'><img src='trustrating_stim/white_00340_940422_fa_edt.bmp'><br><font class='baseline'><strong>Jason</strong><p>Choose number of points to send.</font><div class='respPicDiv'><img src='img/responseButtonOffersNo0L.png' class='respPic'></div></div>","1","8","Jason","0","Shared","0.2,0.65","12","0.2","trustrating_stim/white_00340_940422_fa_edt.bmp","1.5","121","24"
"html-keyboard-response","207","384302","0.0-19.0-2.23","615e68b3f55d1cf5f6defc2a","bdp_trlrn","Tue Mar 14 2023 18:16:27 GMT-0700 (Pacific Daylight Time)","665127","Untrustworthy,Trustworthy","","null","","","","decisionFB","","<div class='trialDiv'><img src='trustrating_stim/white_00340_940422_fa_edt.bmp'><br><font class='baseline'><strong>Jason</strong><p>Choose number of points to send.</font><div class='respPicDiv'><img src='img/responseButtonOffersNo0L1.png' class='respPic'></div></div>","null","8","Jason","0","Shared","0.2,0.65","12","0.2","trustrating_stim/white_00340_940422_fa_edt.bmp","1.5","120","24"
"html-keyboard-response","208","385310","0.0-19.0-3.23","615e68b3f55d1cf5f6defc2a","bdp_trlrn","Tue Mar 14 2023 18:16:27 GMT-0700 (Pacific Daylight Time)","665127","Untrustworthy,Trustworthy","","null","","","","feedback","","<div class='trialDiv'><img src='trustrating_stim/white_00340_940422_fa_edt.bmp'><br><font class='baseline'><strong>Jason</strong><p>Received: <strong>4</strong></font> &nbsp; &nbsp; &nbsp; &nbsp; &nbsp; &nbsp;<font class='posOutcome'>Shared back: <strong>2</strong></font></font><div class='respPicDiv'><img src='img/responseButtonOffersNo0_wht.png' class='respPic'></div></div>","null","8","Jason","0","Shared","0.2,0.65","12","0.2","trustrating_stim/white_00340_940422_fa_edt.bmp","1.5","122","24"
"html-keyboard-response","209","386047","0.0-19.0-1.24","615e68b3f55d1cf5f6defc2a","bdp_trlrn","Tue Mar 14 2023 18:16:27 GMT-0700 (Pacific Daylight Time)","665127","Untrustworthy,Trustworthy","","734","","","","decision","","<div class='trialDiv'><img src='trustrating_stim/white_00761_941201_fb_edt.bmp'><br><font class='baseline'><strong>Aaron</strong><p>Choose number of points to send.</font><div class='respPicDiv'><img src='img/responseButtonOffersNo0L.png' class='respPic'></div></div>","1","9","Aaron","9","Shared","0.65,0.2","10","0.65","trustrating_stim/white_00761_941201_fb_edt.bmp","7.5","127","25"
"html-keyboard-response","210","386302","0.0-19.0-2.24","615e68b3f55d1cf5f6defc2a","bdp_trlrn","Tue Mar 14 2023 18:16:27 GMT-0700 (Pacific Daylight Time)","665127","Untrustworthy,Trustworthy","","null","","","","decisionFB","","<div class='trialDiv'><img src='trustrating_stim/white_00761_941201_fb_edt.bmp'><br><font class='baseline'><strong>Aaron</strong><p>Choose number of points to send.</font><div class='respPicDiv'><img src='img/responseButtonOffersNo0L1.png' class='respPic'></div></div>","null","9","Aaron","9","Shared","0.65,0.2","10","0.65","trustrating_stim/white_00761_941201_fb_edt.bmp","7.5","126","25"
"html-keyboard-response","211","387310","0.0-19.0-3.24","615e68b3f55d1cf5f6defc2a","bdp_trlrn","Tue Mar 14 2023 18:16:27 GMT-0700 (Pacific Daylight Time)","665127","Untrustworthy,Trustworthy","","null","","","","feedback","","<div class='trialDiv'><img src='trustrating_stim/white_00761_941201_fb_edt.bmp'><br><font class='baseline'><strong>Aaron</strong><p>Received: <strong>4</strong></font> &nbsp; &nbsp; &nbsp; &nbsp; &nbsp; &nbsp;<font class='posOutcome'>Shared back: <strong>2</strong></font></font><div class='respPicDiv'><img src='img/responseButtonOffersNo0_wht.png' class='respPic'></div></div>","null","9","Aaron","9","Shared","0.65,0.2","10","0.65","trustrating_stim/white_00761_941201_fb_edt.bmp","7.5","128","25"
"html-keyboard-response","212","387960","0.0-19.0-1.25","615e68b3f55d1cf5f6defc2a","bdp_trlrn","Tue Mar 14 2023 18:16:27 GMT-0700 (Pacific Daylight Time)","665127","Untrustworthy,Trustworthy","","647","","","","decision","","<div class='trialDiv'><img src='trustrating_stim/white_mw060.bmp'><br><font class='baseline'><strong>Chris</strong><p>Choose number of points to send.</font><div class='respPicDiv'><img src='img/responseButtonOffersNo0L.png' class='respPic'></div></div>","1","9","Chris","5","Kept","0.65,0.35","13","0.65","trustrating_stim/white_mw060.bmp","4.5","133","26"
"html-keyboard-response","213","388214","0.0-19.0-2.25","615e68b3f55d1cf5f6defc2a","bdp_trlrn","Tue Mar 14 2023 18:16:27 GMT-0700 (Pacific Daylight Time)","665127","Untrustworthy,Trustworthy","","null","","","","decisionFB","","<div class='trialDiv'><img src='trustrating_stim/white_mw060.bmp'><br><font class='baseline'><strong>Chris</strong><p>Choose number of points to send.</font><div class='respPicDiv'><img src='img/responseButtonOffersNo0L1.png' class='respPic'></div></div>","null","9","Chris","5","Kept","0.65,0.35","13","0.65","trustrating_stim/white_mw060.bmp","4.5","132","26"
"html-keyboard-response","214","389222","0.0-19.0-3.25","615e68b3f55d1cf5f6defc2a","bdp_trlrn","Tue Mar 14 2023 18:16:27 GMT-0700 (Pacific Daylight Time)","665127","Untrustworthy,Trustworthy","","null","","","","feedback","","<div class='trialDiv'><img src='trustrating_stim/white_mw060.bmp'><br><font class='baseline'><strong>Chris</strong><p>Received: <strong>4</strong></font> &nbsp; &nbsp; &nbsp; &nbsp; &nbsp; &nbsp;<font class='negOutcome'>Shared back: <strong>0</strong></font></font><div class='respPicDiv'><img src='img/responseButtonOffersNo0_wht.png' class='respPic'></div></div>","null","9","Chris","5","Kept","0.65,0.35","13","0.65","trustrating_stim/white_mw060.bmp","4.5","132","26"
"html-keyboard-response","215","389922","0.0-19.0-1.26","615e68b3f55d1cf5f6defc2a","bdp_trlrn","Tue Mar 14 2023 18:16:27 GMT-0700 (Pacific Daylight Time)","665127","Untrustworthy,Trustworthy","","698","","","","decision","","<div class='trialDiv'><img src='trustrating_stim/white_00340_940422_fa_edt.bmp'><br><font class='baseline'><strong>Jason</strong><p>Choose number of points to send.</font><div class='respPicDiv'><img src='img/responseButtonOffersNo0L.png' class='respPic'></div></div>","1","9","Jason","0","Kept","0.2,0.65","12","0.2","trustrating_stim/white_00340_940422_fa_edt.bmp","1.5","137","27"
"html-keyboard-response","216","390182","0.0-19.0-2.26","615e68b3f55d1cf5f6defc2a","bdp_trlrn","Tue Mar 14 2023 18:16:27 GMT-0700 (Pacific Daylight Time)","665127","Untrustworthy,Trustworthy","","null","","","","decisionFB","","<div class='trialDiv'><img src='trustrating_stim/white_00340_940422_fa_edt.bmp'><br><font class='baseline'><strong>Jason</strong><p>Choose number of points to send.</font><div class='respPicDiv'><img src='img/responseButtonOffersNo0L1.png' class='respPic'></div></div>","null","9","Jason","0","Kept","0.2,0.65","12","0.2","trustrating_stim/white_00340_940422_fa_edt.bmp","1.5","136","27"
"html-keyboard-response","217","391190","0.0-19.0-3.26","615e68b3f55d1cf5f6defc2a","bdp_trlrn","Tue Mar 14 2023 18:16:27 GMT-0700 (Pacific Daylight Time)","665127","Untrustworthy,Trustworthy","","null","","","","feedback","","<div class='trialDiv'><img src='trustrating_stim/white_00340_940422_fa_edt.bmp'><br><font class='baseline'><strong>Jason</strong><p>Received: <strong>4</strong></font> &nbsp; &nbsp; &nbsp; &nbsp; &nbsp; &nbsp;<font class='negOutcome'>Shared back: <strong>0</strong></font></font><div class='respPicDiv'><img src='img/responseButtonOffersNo0_wht.png' class='respPic'></div></div>","null","9","Jason","0","Kept","0.2,0.65","12","0.2","trustrating_stim/white_00340_940422_fa_edt.bmp","1.5","136","27"
"html-keyboard-response","218","391784","0.0-19.0-1.27","615e68b3f55d1cf5f6defc2a","bdp_trlrn","Tue Mar 14 2023 18:16:27 GMT-0700 (Pacific Daylight Time)","665127","Untrustworthy,Trustworthy","","592","","","","decision","","<div class='trialDiv'><img src='trustrating_stim/white_00761_941201_fb_edt.bmp'><br><font class='baseline'><strong>Aaron</strong><p>Choose number of points to send.</font><div class='respPicDiv'><img src='img/responseButtonOffersNo0L.png' class='respPic'></div></div>","1","10","Aaron","9","Kept","0.65,0.2","10","0.65","trustrating_stim/white_00761_941201_fb_edt.bmp","7.5","141","28"
"html-keyboard-response","219","392038","0.0-19.0-2.27","615e68b3f55d1cf5f6defc2a","bdp_trlrn","Tue Mar 14 2023 18:16:27 GMT-0700 (Pacific Daylight Time)","665127","Untrustworthy,Trustworthy","","null","","","","decisionFB","","<div class='trialDiv'><img src='trustrating_stim/white_00761_941201_fb_edt.bmp'><br><font class='baseline'><strong>Aaron</strong><p>Choose number of points to send.</font><div class='respPicDiv'><img src='img/responseButtonOffersNo0L1.png' class='respPic'></div></div>","null","10","Aaron","9","Kept","0.65,0.2","10","0.65","trustrating_stim/white_00761_941201_fb_edt.bmp","7.5","140","28"
