"trial_type","trial_index","time_elapsed","internal_node_id","subject_id","task","startTime","totalTime","labels","view_history","rt","event","trial","time","trialtype","success","stimulus","key_press","aground","name","faceID","outcome","agenttype","agentswpt","agentcurrpshare","face","avgRating","point_total","round"
"pavlovia","0","3","0.0-0.0","5edc0583f16dff0c806bdbb6","bdp_trlrn","Sun Mar 12 2023 22:56:47 GMT-0400 (Eastern Daylight Time)","537168","Trustworthy,Untrustworthy","","","","","","","","","","","","","","","","","","","",""
"instructions","1","3595","0.0-1.0","5edc0583f16dff0c806bdbb6","bdp_trlrn","Sun Mar 12 2023 22:56:47 GMT-0400 (Eastern Daylight Time)","537168","Trustworthy,Untrustworthy","[{""page_index"":0,""viewing_time"":3590}]","3590","","","","","","","","","","","","","","","","","",""
"","","","","5edc0583f16dff0c806bdbb6","bdp_trlrn","Sun Mar 12 2023 22:56:47 GMT-0400 (Eastern Daylight Time)","537168","Trustworthy,Untrustworthy","","","fullscreenenter","2","5860","fullscreenenter","","","","","","","","","","","","","",""
"fullscreen","2","6837","0.0-2.0","5edc0583f16dff0c806bdbb6","bdp_trlrn","Sun Mar 12 2023 22:56:47 GMT-0400 (Eastern Daylight Time)","537168","Trustworthy,Untrustworthy","","","","","","","true","","","","","","","","","","","","",""
"instructions","3","26016","0.0-4.0","5edc0583f16dff0c806bdbb6","bdp_trlrn","Sun Mar 12 2023 22:56:47 GMT-0400 (Eastern Daylight Time)","537168","Trustworthy,Untrustworthy","[{""page_index"":0,""viewing_time"":12410},{""page_index"":1,""viewing_time"":6767}]","19177","","","","","","","","","","","","","","","","","",""
"instructions","4","26901","0.0-5.0","5edc0583f16dff0c806bdbb6","bdp_trlrn","Sun Mar 12 2023 22:56:47 GMT-0400 (Eastern Daylight Time)","537168","Trustworthy,Untrustworthy","[{""page_index"":0,""viewing_time"":884}]","884","","","","","","","","","","","","","","","","","",""
"image-keyboard-response","5","29072","0.0-6.0-1.0","5edc0583f16dff0c806bdbb6","bdp_trlrn","Sun Mar 12 2023 22:56:47 GMT-0400 (Eastern Daylight Time)","537168","Trustworthy,Untrustworthy","","2064","","","","rating","","trustrating_stim/white_mw053.bmp","4","","","","","","","","","","",""
"image-keyboard-response","6","29276","0.0-6.0-2.0","5edc0583f16dff0c806bdbb6","bdp_trlrn","Sun Mar 12 2023 22:56:47 GMT-0400 (Eastern Daylight Time)","537168","Trustworthy,Untrustworthy","","null","","","","ratingFB","","trustrating_stim/white_mw053.bmp","null","","","","","","","","","","",""
"image-keyboard-response","7","30854","0.0-6.0-1.1","5edc0583f16dff0c806bdbb6","bdp_trlrn","Sun Mar 12 2023 22:56:47 GMT-0400 (Eastern Daylight Time)","537168","Trustworthy,Untrustworthy","","1465","","","","rating","","trustrating_stim/white_00109_931230_fa_edt.bmp","3","","","","","","","","","","",""
"image-keyboard-response","8","31064","0.0-6.0-2.1","5edc0583f16dff0c806bdbb6","bdp_trlrn","Sun Mar 12 2023 22:56:47 GMT-0400 (Eastern Daylight Time)","537168","Trustworthy,Untrustworthy","","null","","","","ratingFB","","trustrating_stim/white_00109_931230_fa_edt.bmp","null","","","","","","","","","","",""
"image-keyboard-response","9","31930","0.0-6.0-1.2","5edc0583f16dff0c806bdbb6","bdp_trlrn","Sun Mar 12 2023 22:56:47 GMT-0400 (Eastern Daylight Time)","537168","Trustworthy,Untrustworthy","","763","","","","rating","","trustrating_stim/white_00129_931230_fb_edt.bmp","3","","","","","","","","","","",""
"image-keyboard-response","10","32146","0.0-6.0-2.2","5edc0583f16dff0c806bdbb6","bdp_trlrn","Sun Mar 12 2023 22:56:47 GMT-0400 (Eastern Daylight Time)","537168","Trustworthy,Untrustworthy","","null","","","","ratingFB","","trustrating_stim/white_00129_931230_fb_edt.bmp","null","","","","","","","","","","",""
"image-keyboard-response","11","33458","0.0-6.0-1.3","5edc0583f16dff0c806bdbb6","bdp_trlrn","Sun Mar 12 2023 22:56:47 GMT-0400 (Eastern Daylight Time)","537168","Trustworthy,Untrustworthy","","1201","","","","rating","","trustrating_stim/white_mw033.bmp","2","","","","","","","","","","",""
"image-keyboard-response","12","33660","0.0-6.0-2.3","5edc0583f16dff0c806bdbb6","bdp_trlrn","Sun Mar 12 2023 22:56:47 GMT-0400 (Eastern Daylight Time)","537168","Trustworthy,Untrustworthy","","null","","","","ratingFB","","trustrating_stim/white_mw033.bmp","null","","","","","","","","","","",""
"image-keyboard-response","13","34853","0.0-6.0-1.4","5edc0583f16dff0c806bdbb6","bdp_trlrn","Sun Mar 12 2023 22:56:47 GMT-0400 (Eastern Daylight Time)","537168","Trustworthy,Untrustworthy","","1083","","","","rating","","trustrating_stim/white_00898_960530_fa_edt.bmp","2","","","","","","","","","","",""
"image-keyboard-response","14","35064","0.0-6.0-2.4","5edc0583f16dff0c806bdbb6","bdp_trlrn","Sun Mar 12 2023 22:56:47 GMT-0400 (Eastern Daylight Time)","537168","Trustworthy,Untrustworthy","","null","","","","ratingFB","","trustrating_stim/white_00898_960530_fa_edt.bmp","null","","","","","","","","","","",""
"image-keyboard-response","15","36114","0.0-6.0-1.5","5edc0583f16dff0c806bdbb6","bdp_trlrn","Sun Mar 12 2023 22:56:47 GMT-0400 (Eastern Daylight Time)","537168","Trustworthy,Untrustworthy","","938","","","","rating","","trustrating_stim/white_00757_941201_fa_edt.bmp","1","","","","","","","","","","",""
"image-keyboard-response","16","36317","0.0-6.0-2.5","5edc0583f16dff0c806bdbb6","bdp_trlrn","Sun Mar 12 2023 22:56:47 GMT-0400 (Eastern Daylight Time)","537168","Trustworthy,Untrustworthy","","null","","","","ratingFB","","trustrating_stim/white_00757_941201_fa_edt.bmp","null","","","","","","","","","","",""
"image-keyboard-response","17","37230","0.0-6.0-1.6","5edc0583f16dff0c806bdbb6","bdp_trlrn","Sun Mar 12 2023 22:56:47 GMT-0400 (Eastern Daylight Time)","537168","Trustworthy,Untrustworthy","","804","","","","rating","","trustrating_stim/white_00659_941121_fa_edt.bmp","1","","","","","","","","","","",""
"image-keyboard-response","18","37446","0.0-6.0-2.6","5edc0583f16dff0c806bdbb6","bdp_trlrn","Sun Mar 12 2023 22:56:47 GMT-0400 (Eastern Daylight Time)","537168","Trustworthy,Untrustworthy","","null","","","","ratingFB","","trustrating_stim/white_00659_941121_fa_edt.bmp","null","","","","","","","","","","",""
"image-keyboard-response","19","38204","0.0-6.0-1.7","5edc0583f16dff0c806bdbb6","bdp_trlrn","Sun Mar 12 2023 22:56:47 GMT-0400 (Eastern Daylight Time)","537168","Trustworthy,Untrustworthy","","649","","","","rating","","trustrating_stim/white_mw035.bmp","1","","","","","","","","","","",""
"image-keyboard-response","20","38406","0.0-6.0-2.7","5edc0583f16dff0c806bdbb6","bdp_trlrn","Sun Mar 12 2023 22:56:47 GMT-0400 (Eastern Daylight Time)","537168","Trustworthy,Untrustworthy","","null","","","","ratingFB","","trustrating_stim/white_mw035.bmp","null","","","","","","","","","","",""
"image-keyboard-response","21","39585","0.0-6.0-1.8","5edc0583f16dff0c806bdbb6","bdp_trlrn","Sun Mar 12 2023 22:56:47 GMT-0400 (Eastern Daylight Time)","537168","Trustworthy,Untrustworthy","","1071","","","","rating","","trustrating_stim/white_mw048.bmp","1","","","","","","","","","","",""
"image-keyboard-response","22","39800","0.0-6.0-2.8","5edc0583f16dff0c806bdbb6","bdp_trlrn","Sun Mar 12 2023 22:56:47 GMT-0400 (Eastern Daylight Time)","537168","Trustworthy,Untrustworthy","","null","","","","ratingFB","","trustrating_stim/white_mw048.bmp","null","","","","","","","","","","",""
"image-keyboard-response","23","40449","0.0-6.0-1.9","5edc0583f16dff0c806bdbb6","bdp_trlrn","Sun Mar 12 2023 22:56:47 GMT-0400 (Eastern Daylight Time)","537168","Trustworthy,Untrustworthy","","538","","","","rating","","trustrating_stim/white_mw066.bmp","2","","","","","","","","","","",""
"image-keyboard-response","24","40659","0.0-6.0-2.9","5edc0583f16dff0c806bdbb6","bdp_trlrn","Sun Mar 12 2023 22:56:47 GMT-0400 (Eastern Daylight Time)","537168","Trustworthy,Untrustworthy","","null","","","","ratingFB","","trustrating_stim/white_mw066.bmp","null","","","","","","","","","","",""
"image-keyboard-response","25","41759","0.0-6.0-1.10","5edc0583f16dff0c806bdbb6","bdp_trlrn","Sun Mar 12 2023 22:56:47 GMT-0400 (Eastern Daylight Time)","537168","Trustworthy,Untrustworthy","","989","","","","rating","","trustrating_stim/white_mw089.bmp","2","","","","","","","","","","",""
"image-keyboard-response","26","41975","0.0-6.0-2.10","5edc0583f16dff0c806bdbb6","bdp_trlrn","Sun Mar 12 2023 22:56:47 GMT-0400 (Eastern Daylight Time)","537168","Trustworthy,Untrustworthy","","null","","","","ratingFB","","trustrating_stim/white_mw089.bmp","null","","","","","","","","","","",""
"image-keyboard-response","27","42979","0.0-6.0-1.11","5edc0583f16dff0c806bdbb6","bdp_trlrn","Sun Mar 12 2023 22:56:47 GMT-0400 (Eastern Daylight Time)","537168","Trustworthy,Untrustworthy","","893","","","","rating","","trustrating_stim/white_00577_940928_fa_edt.bmp","3","","","","","","","","","","",""
"image-keyboard-response","28","43194","0.0-6.0-2.11","5edc0583f16dff0c806bdbb6","bdp_trlrn","Sun Mar 12 2023 22:56:47 GMT-0400 (Eastern Daylight Time)","537168","Trustworthy,Untrustworthy","","null","","","","ratingFB","","trustrating_stim/white_00577_940928_fa_edt.bmp","null","","","","","","","","","","",""
"image-keyboard-response","29","44968","0.0-6.0-1.12","5edc0583f16dff0c806bdbb6","bdp_trlrn","Sun Mar 12 2023 22:56:47 GMT-0400 (Eastern Daylight Time)","537168","Trustworthy,Untrustworthy","","1663","","","","rating","","trustrating_stim/white_00602_940928_fb_edt.bmp","5","","","","","","","","","","",""
"image-keyboard-response","30","45179","0.0-6.0-2.12","5edc0583f16dff0c806bdbb6","bdp_trlrn","Sun Mar 12 2023 22:56:47 GMT-0400 (Eastern Daylight Time)","537168","Trustworthy,Untrustworthy","","null","","","","ratingFB","","trustrating_stim/white_00602_940928_fb_edt.bmp","null","","","","","","","","","","",""
"image-keyboard-response","31","46068","0.0-6.0-1.13","5edc0583f16dff0c806bdbb6","bdp_trlrn","Sun Mar 12 2023 22:56:47 GMT-0400 (Eastern Daylight Time)","537168","Trustworthy,Untrustworthy","","780","","","","rating","","trustrating_stim/white_mw084.bmp","4","","","","","","","","","","",""
"image-keyboard-response","32","46281","0.0-6.0-2.13","5edc0583f16dff0c806bdbb6","bdp_trlrn","Sun Mar 12 2023 22:56:47 GMT-0400 (Eastern Daylight Time)","537168","Trustworthy,Untrustworthy","","null","","","","ratingFB","","trustrating_stim/white_mw084.bmp","null","","","","","","","","","","",""
"image-keyboard-response","33","47022","0.0-6.0-1.14","5edc0583f16dff0c806bdbb6","bdp_trlrn","Sun Mar 12 2023 22:56:47 GMT-0400 (Eastern Daylight Time)","537168","Trustworthy,Untrustworthy","","631","","","","rating","","trustrating_stim/white_mw071.bmp","3","","","","","","","","","","",""
"image-keyboard-response","34","47236","0.0-6.0-2.14","5edc0583f16dff0c806bdbb6","bdp_trlrn","Sun Mar 12 2023 22:56:47 GMT-0400 (Eastern Daylight Time)","537168","Trustworthy,Untrustworthy","","null","","","","ratingFB","","trustrating_stim/white_mw071.bmp","null","","","","","","","","","","",""
"image-keyboard-response","35","47958","0.0-6.0-1.15","5edc0583f16dff0c806bdbb6","bdp_trlrn","Sun Mar 12 2023 22:56:47 GMT-0400 (Eastern Daylight Time)","537168","Trustworthy,Untrustworthy","","619","","","","rating","","trustrating_stim/white_mw056.bmp","2","","","","","","","","","","",""
"image-keyboard-response","36","48174","0.0-6.0-2.15","5edc0583f16dff0c806bdbb6","bdp_trlrn","Sun Mar 12 2023 22:56:47 GMT-0400 (Eastern Daylight Time)","537168","Trustworthy,Untrustworthy","","null","","","","ratingFB","","trustrating_stim/white_mw056.bmp","null","","","","","","","","","","",""
"image-keyboard-response","37","49035","0.0-6.0-1.16","5edc0583f16dff0c806bdbb6","bdp_trlrn","Sun Mar 12 2023 22:56:47 GMT-0400 (Eastern Daylight Time)","537168","Trustworthy,Untrustworthy","","749","","","","rating","","trustrating_stim/white_00807_941205_fb_edt.bmp","2","","","","","","","","","","",""
"image-keyboard-response","38","49251","0.0-6.0-2.16","5edc0583f16dff0c806bdbb6","bdp_trlrn","Sun Mar 12 2023 22:56:47 GMT-0400 (Eastern Daylight Time)","537168","Trustworthy,Untrustworthy","","null","","","","ratingFB","","trustrating_stim/white_00807_941205_fb_edt.bmp","null","","","","","","","","","","",""
"image-keyboard-response","39","49992","0.0-6.0-1.17","5edc0583f16dff0c806bdbb6","bdp_trlrn","Sun Mar 12 2023 22:56:47 GMT-0400 (Eastern Daylight Time)","537168","Trustworthy,Untrustworthy","","627","","","","rating","","trustrating_stim/white_mw097.bmp","1","","","","","","","","","","",""
"image-keyboard-response","40","50196","0.0-6.0-2.17","5edc0583f16dff0c806bdbb6","bdp_trlrn","Sun Mar 12 2023 22:56:47 GMT-0400 (Eastern Daylight Time)","537168","Trustworthy,Untrustworthy","","null","","","","ratingFB","","trustrating_stim/white_mw097.bmp","null","","","","","","","","","","",""
"image-keyboard-response","41","51119","0.0-6.0-1.18","5edc0583f16dff0c806bdbb6","bdp_trlrn","Sun Mar 12 2023 22:56:47 GMT-0400 (Eastern Daylight Time)","537168","Trustworthy,Untrustworthy","","814","","","","rating","","trustrating_stim/white_00340_940422_fa_edt.bmp","1","","","","","","","","","","",""
"image-keyboard-response","42","51336","0.0-6.0-2.18","5edc0583f16dff0c806bdbb6","bdp_trlrn","Sun Mar 12 2023 22:56:47 GMT-0400 (Eastern Daylight Time)","537168","Trustworthy,Untrustworthy","","null","","","","ratingFB","","trustrating_stim/white_00340_940422_fa_edt.bmp","null","","","","","","","","","","",""
"image-keyboard-response","43","51867","0.0-6.0-1.19","5edc0583f16dff0c806bdbb6","bdp_trlrn","Sun Mar 12 2023 22:56:47 GMT-0400 (Eastern Daylight Time)","537168","Trustworthy,Untrustworthy","","422","","","","rating","","trustrating_stim/white_mw046.bmp","1","","","","","","","","","","",""
"image-keyboard-response","44","52084","0.0-6.0-2.19","5edc0583f16dff0c806bdbb6","bdp_trlrn","Sun Mar 12 2023 22:56:47 GMT-0400 (Eastern Daylight Time)","537168","Trustworthy,Untrustworthy","","null","","","","ratingFB","","trustrating_stim/white_mw046.bmp","null","","","","","","","","","","",""
"image-keyboard-response","45","52805","0.0-6.0-1.20","5edc0583f16dff0c806bdbb6","bdp_trlrn","Sun Mar 12 2023 22:56:47 GMT-0400 (Eastern Daylight Time)","537168","Trustworthy,Untrustworthy","","613","","","","rating","","trustrating_stim/white_00519_940519_fb_edt.bmp","2","","","","","","","","","","",""
"image-keyboard-response","46","53020","0.0-6.0-2.20","5edc0583f16dff0c806bdbb6","bdp_trlrn","Sun Mar 12 2023 22:56:47 GMT-0400 (Eastern Daylight Time)","537168","Trustworthy,Untrustworthy","","null","","","","ratingFB","","trustrating_stim/white_00519_940519_fb_edt.bmp","null","","","","","","","","","","",""
"image-keyboard-response","47","53977","0.0-6.0-1.21","5edc0583f16dff0c806bdbb6","bdp_trlrn","Sun Mar 12 2023 22:56:47 GMT-0400 (Eastern Daylight Time)","537168","Trustworthy,Untrustworthy","","855","","","","rating","","trustrating_stim/white_00785_941205_fb_edt.bmp","2","","","","","","","","","","",""
"image-keyboard-response","48","54180","0.0-6.0-2.21","5edc0583f16dff0c806bdbb6","bdp_trlrn","Sun Mar 12 2023 22:56:47 GMT-0400 (Eastern Daylight Time)","537168","Trustworthy,Untrustworthy","","null","","","","ratingFB","","trustrating_stim/white_00785_941205_fb_edt.bmp","null","","","","","","","","","","",""
"image-keyboard-response","49","54906","0.0-6.0-1.22","5edc0583f16dff0c806bdbb6","bdp_trlrn","Sun Mar 12 2023 22:56:47 GMT-0400 (Eastern Daylight Time)","537168","Trustworthy,Untrustworthy","","616","","","","rating","","trustrating_stim/white_mw049.bmp","2","","","","","","","","","","",""
"image-keyboard-response","50","55109","0.0-6.0-2.22","5edc0583f16dff0c806bdbb6","bdp_trlrn","Sun Mar 12 2023 22:56:47 GMT-0400 (Eastern Daylight Time)","537168","Trustworthy,Untrustworthy","","null","","","","ratingFB","","trustrating_stim/white_mw049.bmp","null","","","","","","","","","","",""
"image-keyboard-response","51","56383","0.0-6.0-1.23","5edc0583f16dff0c806bdbb6","bdp_trlrn","Sun Mar 12 2023 22:56:47 GMT-0400 (Eastern Daylight Time)","537168","Trustworthy,Untrustworthy","","1172","","","","rating","","trustrating_stim/white_00761_941201_fb_edt.bmp","2","","","","","","","","","","",""
"image-keyboard-response","52","56587","0.0-6.0-2.23","5edc0583f16dff0c806bdbb6","bdp_trlrn","Sun Mar 12 2023 22:56:47 GMT-0400 (Eastern Daylight Time)","537168","Trustworthy,Untrustworthy","","null","","","","ratingFB","","trustrating_stim/white_00761_941201_fb_edt.bmp","null","","","","","","","","","","",""
"image-keyboard-response","53","56993","0.0-6.0-1.24","5edc0583f16dff0c806bdbb6","bdp_trlrn","Sun Mar 12 2023 22:56:47 GMT-0400 (Eastern Daylight Time)","537168","Trustworthy,Untrustworthy","","299","","","","rating","","trustrating_stim/white_00120_931230_fa_edt.bmp","2","","","","","","","","","","",""
"image-keyboard-response","54","57197","0.0-6.0-2.24","5edc0583f16dff0c806bdbb6","bdp_trlrn","Sun Mar 12 2023 22:56:47 GMT-0400 (Eastern Daylight Time)","537168","Trustworthy,Untrustworthy","","null","","","","ratingFB","","trustrating_stim/white_00120_931230_fa_edt.bmp","null","","","","","","","","","","",""
"image-keyboard-response","55","57907","0.0-6.0-1.25","5edc0583f16dff0c806bdbb6","bdp_trlrn","Sun Mar 12 2023 22:56:47 GMT-0400 (Eastern Daylight Time)","537168","Trustworthy,Untrustworthy","","601","","","","rating","","trustrating_stim/white_mw063.bmp","3","","","","","","","","","","",""
"image-keyboard-response","56","58122","0.0-6.0-2.25","5edc0583f16dff0c806bdbb6","bdp_trlrn","Sun Mar 12 2023 22:56:47 GMT-0400 (Eastern Daylight Time)","537168","Trustworthy,Untrustworthy","","null","","","","ratingFB","","trustrating_stim/white_mw063.bmp","null","","","","","","","","","","",""
"image-keyboard-response","57","58639","0.0-6.0-1.26","5edc0583f16dff0c806bdbb6","bdp_trlrn","Sun Mar 12 2023 22:56:47 GMT-0400 (Eastern Daylight Time)","537168","Trustworthy,Untrustworthy","","407","","","","rating","","trustrating_stim/white_mw060.bmp","2","","","","","","","","","","",""
"image-keyboard-response","58","58854","0.0-6.0-2.26","5edc0583f16dff0c806bdbb6","bdp_trlrn","Sun Mar 12 2023 22:56:47 GMT-0400 (Eastern Daylight Time)","537168","Trustworthy,Untrustworthy","","null","","","","ratingFB","","trustrating_stim/white_mw060.bmp","null","","","","","","","","","","",""
"image-keyboard-response","59","59495","0.0-6.0-1.27","5edc0583f16dff0c806bdbb6","bdp_trlrn","Sun Mar 12 2023 22:56:47 GMT-0400 (Eastern Daylight Time)","537168","Trustworthy,Untrustworthy","","530","","","","rating","","trustrating_stim/white_00223_940128_fb_edt.bmp","2","","","","","","","","","","",""
"image-keyboard-response","60","59710","0.0-6.0-2.27","5edc0583f16dff0c806bdbb6","bdp_trlrn","Sun Mar 12 2023 22:56:47 GMT-0400 (Eastern Daylight Time)","537168","Trustworthy,Untrustworthy","","null","","","","ratingFB","","trustrating_stim/white_00223_940128_fb_edt.bmp","null","","","","","","","","","","",""
"image-keyboard-response","61","60276","0.0-6.0-1.28","5edc0583f16dff0c806bdbb6","bdp_trlrn","Sun Mar 12 2023 22:56:47 GMT-0400 (Eastern Daylight Time)","537168","Trustworthy,Untrustworthy","","464","","","","rating","","trustrating_stim/white_mw099.bmp","2","","","","","","","","","","",""
"image-keyboard-response","62","60479","0.0-6.0-2.28","5edc0583f16dff0c806bdbb6","bdp_trlrn","Sun Mar 12 2023 22:56:47 GMT-0400 (Eastern Daylight Time)","537168","Trustworthy,Untrustworthy","","null","","","","ratingFB","","trustrating_stim/white_mw099.bmp","null","","","","","","","","","","",""
"image-keyboard-response","63","61245","0.0-6.0-1.29","5edc0583f16dff0c806bdbb6","bdp_trlrn","Sun Mar 12 2023 22:56:47 GMT-0400 (Eastern Daylight Time)","537168","Trustworthy,Untrustworthy","","656","","","","rating","","trustrating_stim/white_00299_940422_fa_edt.bmp","2","","","","","","","","","","",""
"image-keyboard-response","64","61458","0.0-6.0-2.29","5edc0583f16dff0c806bdbb6","bdp_trlrn","Sun Mar 12 2023 22:56:47 GMT-0400 (Eastern Daylight Time)","537168","Trustworthy,Untrustworthy","","null","","","","ratingFB","","trustrating_stim/white_00299_940422_fa_edt.bmp","null","","","","","","","","","","",""
"image-keyboard-response","65","61898","0.0-6.0-1.30","5edc0583f16dff0c806bdbb6","bdp_trlrn","Sun Mar 12 2023 22:56:47 GMT-0400 (Eastern Daylight Time)","537168","Trustworthy,Untrustworthy","","331","","","","rating","","trustrating_stim/white_mw033.bmp","3","","","","","","","","","","",""
"image-keyboard-response","66","62100","0.0-6.0-2.30","5edc0583f16dff0c806bdbb6","bdp_trlrn","Sun Mar 12 2023 22:56:47 GMT-0400 (Eastern Daylight Time)","537168","Trustworthy,Untrustworthy","","null","","","","ratingFB","","trustrating_stim/white_mw033.bmp","null","","","","","","","","","","",""
"image-keyboard-response","67","62677","0.0-6.0-1.31","5edc0583f16dff0c806bdbb6","bdp_trlrn","Sun Mar 12 2023 22:56:47 GMT-0400 (Eastern Daylight Time)","537168","Trustworthy,Untrustworthy","","468","","","","rating","","trustrating_stim/white_mw099.bmp","2","","","","","","","","","","",""
"image-keyboard-response","68","62894","0.0-6.0-2.31","5edc0583f16dff0c806bdbb6","bdp_trlrn","Sun Mar 12 2023 22:56:47 GMT-0400 (Eastern Daylight Time)","537168","Trustworthy,Untrustworthy","","null","","","","ratingFB","","trustrating_stim/white_mw099.bmp","null","","","","","","","","","","",""
"image-keyboard-response","69","63386","0.0-6.0-1.32","5edc0583f16dff0c806bdbb6","bdp_trlrn","Sun Mar 12 2023 22:56:47 GMT-0400 (Eastern Daylight Time)","537168","Trustworthy,Untrustworthy","","381","","","","rating","","trustrating_stim/white_00109_931230_fa_edt.bmp","2","","","","","","","","","","",""
"image-keyboard-response","70","63588","0.0-6.0-2.32","5edc0583f16dff0c806bdbb6","bdp_trlrn","Sun Mar 12 2023 22:56:47 GMT-0400 (Eastern Daylight Time)","537168","Trustworthy,Untrustworthy","","null","","","","ratingFB","","trustrating_stim/white_00109_931230_fa_edt.bmp","null","","","","","","","","","","",""
"image-keyboard-response","71","63951","0.0-6.0-1.33","5edc0583f16dff0c806bdbb6","bdp_trlrn","Sun Mar 12 2023 22:56:47 GMT-0400 (Eastern Daylight Time)","537168","Trustworthy,Untrustworthy","","253","","","","rating","","trustrating_stim/white_00577_940928_fa_edt.bmp","3","","","","","","","","","","",""
"image-keyboard-response","72","64165","0.0-6.0-2.33","5edc0583f16dff0c806bdbb6","bdp_trlrn","Sun Mar 12 2023 22:56:47 GMT-0400 (Eastern Daylight Time)","537168","Trustworthy,Untrustworthy","","null","","","","ratingFB","","trustrating_stim/white_00577_940928_fa_edt.bmp","null","","","","","","","","","","",""
"image-keyboard-response","73","64587","0.0-6.0-1.34","5edc0583f16dff0c806bdbb6","bdp_trlrn","Sun Mar 12 2023 22:56:47 GMT-0400 (Eastern Daylight Time)","537168","Trustworthy,Untrustworthy","","318","","","","rating","","trustrating_stim/white_00785_941205_fb_edt.bmp","2","","","","","","","","","","",""
"image-keyboard-response","74","64800","0.0-6.0-2.34","5edc0583f16dff0c806bdbb6","bdp_trlrn","Sun Mar 12 2023 22:56:47 GMT-0400 (Eastern Daylight Time)","537168","Trustworthy,Untrustworthy","","null","","","","ratingFB","","trustrating_stim/white_00785_941205_fb_edt.bmp","null","","","","","","","","","","",""
"image-keyboard-response","75","65197","0.0-6.0-1.35","5edc0583f16dff0c806bdbb6","bdp_trlrn","Sun Mar 12 2023 22:56:47 GMT-0400 (Eastern Daylight Time)","537168","Trustworthy,Untrustworthy","","285","","","","rating","","trustrating_stim/white_00807_941205_fb_edt.bmp","1","","","","","","","","","","",""
"image-keyboard-response","76","65413","0.0-6.0-2.35","5edc0583f16dff0c806bdbb6","bdp_trlrn","Sun Mar 12 2023 22:56:47 GMT-0400 (Eastern Daylight Time)","537168","Trustworthy,Untrustworthy","","null","","","","ratingFB","","trustrating_stim/white_00807_941205_fb_edt.bmp","null","","","","","","","","","","",""
"image-keyboard-response","77","65899","0.0-6.0-1.36","5edc0583f16dff0c806bdbb6","bdp_trlrn","Sun Mar 12 2023 22:56:47 GMT-0400 (Eastern Daylight Time)","537168","Trustworthy,Untrustworthy","","375","","","","rating","","trustrating_stim/white_mw053.bmp","1","","","","","","","","","","",""
"image-keyboard-response","78","66115","0.0-6.0-2.36","5edc0583f16dff0c806bdbb6","bdp_trlrn","Sun Mar 12 2023 22:56:47 GMT-0400 (Eastern Daylight Time)","537168","Trustworthy,Untrustworthy","","null","","","","ratingFB","","trustrating_stim/white_mw053.bmp","null","","","","","","","","","","",""
"image-keyboard-response","79","66587","0.0-6.0-1.37","5edc0583f16dff0c806bdbb6","bdp_trlrn","Sun Mar 12 2023 22:56:47 GMT-0400 (Eastern Daylight Time)","537168","Trustworthy,Untrustworthy","","363","","","","rating","","trustrating_stim/white_mw063.bmp","1","","","","","","","","","","",""
"image-keyboard-response","80","66800","0.0-6.0-2.37","5edc0583f16dff0c806bdbb6","bdp_trlrn","Sun Mar 12 2023 22:56:47 GMT-0400 (Eastern Daylight Time)","537168","Trustworthy,Untrustworthy","","null","","","","ratingFB","","trustrating_stim/white_mw063.bmp","null","","","","","","","","","","",""
"image-keyboard-response","81","67116","0.0-6.0-1.38","5edc0583f16dff0c806bdbb6","bdp_trlrn","Sun Mar 12 2023 22:56:47 GMT-0400 (Eastern Daylight Time)","537168","Trustworthy,Untrustworthy","","213","","","","rating","","trustrating_stim/white_mw066.bmp","3","","","","","","","","","","",""
"image-keyboard-response","82","67331","0.0-6.0-2.38","5edc0583f16dff0c806bdbb6","bdp_trlrn","Sun Mar 12 2023 22:56:47 GMT-0400 (Eastern Daylight Time)","537168","Trustworthy,Untrustworthy","","null","","","","ratingFB","","trustrating_stim/white_mw066.bmp","null","","","","","","","","","","",""
"image-keyboard-response","83","67489","0.0-6.0-1.39","5edc0583f16dff0c806bdbb6","bdp_trlrn","Sun Mar 12 2023 22:56:47 GMT-0400 (Eastern Daylight Time)","537168","Trustworthy,Untrustworthy","","56","","","","rating","","trustrating_stim/white_mw046.bmp","4","","","","","","","","","","",""
"image-keyboard-response","84","67705","0.0-6.0-2.39","5edc0583f16dff0c806bdbb6","bdp_trlrn","Sun Mar 12 2023 22:56:47 GMT-0400 (Eastern Daylight Time)","537168","Trustworthy,Untrustworthy","","null","","","","ratingFB","","trustrating_stim/white_mw046.bmp","null","","","","","","","","","","",""
"image-keyboard-response","85","67833","0.0-6.0-1.40","5edc0583f16dff0c806bdbb6","bdp_trlrn","Sun Mar 12 2023 22:56:47 GMT-0400 (Eastern Daylight Time)","537168","Trustworthy,Untrustworthy","","18","","","","rating","","trustrating_stim/white_mw035.bmp","3","","","","","","","","","","",""
"image-keyboard-response","86","68049","0.0-6.0-2.40","5edc0583f16dff0c806bdbb6","bdp_trlrn","Sun Mar 12 2023 22:56:47 GMT-0400 (Eastern Daylight Time)","537168","Trustworthy,Untrustworthy","","null","","","","ratingFB","","trustrating_stim/white_mw035.bmp","null","","","","","","","","","","",""
"image-keyboard-response","87","68741","0.0-6.0-1.41","5edc0583f16dff0c806bdbb6","bdp_trlrn","Sun Mar 12 2023 22:56:47 GMT-0400 (Eastern Daylight Time)","537168","Trustworthy,Untrustworthy","","582","","","","rating","","trustrating_stim/white_mw097.bmp","2","","","","","","","","","","",""
"image-keyboard-response","88","68958","0.0-6.0-2.41","5edc0583f16dff0c806bdbb6","bdp_trlrn","Sun Mar 12 2023 22:56:47 GMT-0400 (Eastern Daylight Time)","537168","Trustworthy,Untrustworthy","","null","","","","ratingFB","","trustrating_stim/white_mw097.bmp","null","","","","","","","","","","",""
"image-keyboard-response","89","69586","0.0-6.0-1.42","5edc0583f16dff0c806bdbb6","bdp_trlrn","Sun Mar 12 2023 22:56:47 GMT-0400 (Eastern Daylight Time)","537168","Trustworthy,Untrustworthy","","518","","","","rating","","trustrating_stim/white_mw071.bmp","2","","","","","","","","","","",""
"image-keyboard-response","90","69788","0.0-6.0-2.42","5edc0583f16dff0c806bdbb6","bdp_trlrn","Sun Mar 12 2023 22:56:47 GMT-0400 (Eastern Daylight Time)","537168","Trustworthy,Untrustworthy","","null","","","","ratingFB","","trustrating_stim/white_mw071.bmp","null","","","","","","","","","","",""
"image-keyboard-response","91","70437","0.0-6.0-1.43","5edc0583f16dff0c806bdbb6","bdp_trlrn","Sun Mar 12 2023 22:56:47 GMT-0400 (Eastern Daylight Time)","537168","Trustworthy,Untrustworthy","","541","","","","rating","","trustrating_stim/white_00129_931230_fb_edt.bmp","2","","","","","","","","","","",""
"image-keyboard-response","92","70639","0.0-6.0-2.43","5edc0583f16dff0c806bdbb6","bdp_trlrn","Sun Mar 12 2023 22:56:47 GMT-0400 (Eastern Daylight Time)","537168","Trustworthy,Untrustworthy","","null","","","","ratingFB","","trustrating_stim/white_00129_931230_fb_edt.bmp","null","","","","","","","","","","",""
"image-keyboard-response","93","71193","0.0-6.0-1.44","5edc0583f16dff0c806bdbb6","bdp_trlrn","Sun Mar 12 2023 22:56:47 GMT-0400 (Eastern Daylight Time)","537168","Trustworthy,Untrustworthy","","443","","","","rating","","trustrating_stim/white_mw049.bmp","3","","","","","","","","","","",""
"image-keyboard-response","94","71401","0.0-6.0-2.44","5edc0583f16dff0c806bdbb6","bdp_trlrn","Sun Mar 12 2023 22:56:47 GMT-0400 (Eastern Daylight Time)","537168","Trustworthy,Untrustworthy","","null","","","","ratingFB","","trustrating_stim/white_mw049.bmp","null","","","","","","","","","","",""
"image-keyboard-response","95","72062","0.0-6.0-1.45","5edc0583f16dff0c806bdbb6","bdp_trlrn","Sun Mar 12 2023 22:56:47 GMT-0400 (Eastern Daylight Time)","537168","Trustworthy,Untrustworthy","","550","","","","rating","","trustrating_stim/white_mw089.bmp","3","","","","","","","","","","",""
"image-keyboard-response","96","72277","0.0-6.0-2.45","5edc0583f16dff0c806bdbb6","bdp_trlrn","Sun Mar 12 2023 22:56:47 GMT-0400 (Eastern Daylight Time)","537168","Trustworthy,Untrustworthy","","null","","","","ratingFB","","trustrating_stim/white_mw089.bmp","null","","","","","","","","","","",""
"image-keyboard-response","97","73360","0.0-6.0-1.46","5edc0583f16dff0c806bdbb6","bdp_trlrn","Sun Mar 12 2023 22:56:47 GMT-0400 (Eastern Daylight Time)","537168","Trustworthy,Untrustworthy","","973","","","","rating","","trustrating_stim/white_00898_960530_fa_edt.bmp","3","","","","","","","","","","",""
"image-keyboard-response","98","73576","0.0-6.0-2.46","5edc0583f16dff0c806bdbb6","bdp_trlrn","Sun Mar 12 2023 22:56:47 GMT-0400 (Eastern Daylight Time)","537168","Trustworthy,Untrustworthy","","null","","","","ratingFB","","trustrating_stim/white_00898_960530_fa_edt.bmp","null","","","","","","","","","","",""
"image-keyboard-response","99","74358","0.0-6.0-1.47","5edc0583f16dff0c806bdbb6","bdp_trlrn","Sun Mar 12 2023 22:56:47 GMT-0400 (Eastern Daylight Time)","537168","Trustworthy,Untrustworthy","","672","","","","rating","","trustrating_stim/white_00299_940422_fa_edt.bmp","3","","","","","","","","","","",""
"image-keyboard-response","100","74560","0.0-6.0-2.47","5edc0583f16dff0c806bdbb6","bdp_trlrn","Sun Mar 12 2023 22:56:47 GMT-0400 (Eastern Daylight Time)","537168","Trustworthy,Untrustworthy","","null","","","","ratingFB","","trustrating_stim/white_00299_940422_fa_edt.bmp","null","","","","","","","","","","",""
"image-keyboard-response","101","75404","0.0-6.0-1.48","5edc0583f16dff0c806bdbb6","bdp_trlrn","Sun Mar 12 2023 22:56:47 GMT-0400 (Eastern Daylight Time)","537168","Trustworthy,Untrustworthy","","728","","","","rating","","trustrating_stim/white_00120_931230_fa_edt.bmp","2","","","","","","","","","","",""
"image-keyboard-response","102","75620","0.0-6.0-2.48","5edc0583f16dff0c806bdbb6","bdp_trlrn","Sun Mar 12 2023 22:56:47 GMT-0400 (Eastern Daylight Time)","537168","Trustworthy,Untrustworthy","","null","","","","ratingFB","","trustrating_stim/white_00120_931230_fa_edt.bmp","null","","","","","","","","","","",""
"image-keyboard-response","103","76473","0.0-6.0-1.49","5edc0583f16dff0c806bdbb6","bdp_trlrn","Sun Mar 12 2023 22:56:47 GMT-0400 (Eastern Daylight Time)","537168","Trustworthy,Untrustworthy","","743","","","","rating","","trustrating_stim/white_00757_941201_fa_edt.bmp","3","","","","","","","","","","",""
"image-keyboard-response","104","76689","0.0-6.0-2.49","5edc0583f16dff0c806bdbb6","bdp_trlrn","Sun Mar 12 2023 22:56:47 GMT-0400 (Eastern Daylight Time)","537168","Trustworthy,Untrustworthy","","null","","","","ratingFB","","trustrating_stim/white_00757_941201_fa_edt.bmp","null","","","","","","","","","","",""
"image-keyboard-response","105","77325","0.0-6.0-1.50","5edc0583f16dff0c806bdbb6","bdp_trlrn","Sun Mar 12 2023 22:56:47 GMT-0400 (Eastern Daylight Time)","537168","Trustworthy,Untrustworthy","","533","","","","rating","","trustrating_stim/white_00659_941121_fa_edt.bmp","3","","","","","","","","","","",""
"image-keyboard-response","106","77540","0.0-6.0-2.50","5edc0583f16dff0c806bdbb6","bdp_trlrn","Sun Mar 12 2023 22:56:47 GMT-0400 (Eastern Daylight Time)","537168","Trustworthy,Untrustworthy","","null","","","","ratingFB","","trustrating_stim/white_00659_941121_fa_edt.bmp","null","","","","","","","","","","",""
"image-keyboard-response","107","78092","0.0-6.0-1.51","5edc0583f16dff0c806bdbb6","bdp_trlrn","Sun Mar 12 2023 22:56:47 GMT-0400 (Eastern Daylight Time)","537168","Trustworthy,Untrustworthy","","442","","","","rating","","trustrating_stim/white_mw056.bmp","3","","","","","","","","","","",""
"image-keyboard-response","108","78308","0.0-6.0-2.51","5edc0583f16dff0c806bdbb6","bdp_trlrn","Sun Mar 12 2023 22:56:47 GMT-0400 (Eastern Daylight Time)","537168","Trustworthy,Untrustworthy","","null","","","","ratingFB","","trustrating_stim/white_mw056.bmp","null","","","","","","","","","","",""
"image-keyboard-response","109","79087","0.0-6.0-1.52","5edc0583f16dff0c806bdbb6","bdp_trlrn","Sun Mar 12 2023 22:56:47 GMT-0400 (Eastern Daylight Time)","537168","Trustworthy,Untrustworthy","","668","","","","rating","","trustrating_stim/white_mw084.bmp","3","","","","","","","","","","",""
"image-keyboard-response","110","79291","0.0-6.0-2.52","5edc0583f16dff0c806bdbb6","bdp_trlrn","Sun Mar 12 2023 22:56:47 GMT-0400 (Eastern Daylight Time)","537168","Trustworthy,Untrustworthy","","null","","","","ratingFB","","trustrating_stim/white_mw084.bmp","null","","","","","","","","","","",""
"image-keyboard-response","111","80147","0.0-6.0-1.53","5edc0583f16dff0c806bdbb6","bdp_trlrn","Sun Mar 12 2023 22:56:47 GMT-0400 (Eastern Daylight Time)","537168","Trustworthy,Untrustworthy","","748","","","","rating","","trustrating_stim/white_00340_940422_fa_edt.bmp","2","","","","","","","","","","",""
"image-keyboard-response","112","80362","0.0-6.0-2.53","5edc0583f16dff0c806bdbb6","bdp_trlrn","Sun Mar 12 2023 22:56:47 GMT-0400 (Eastern Daylight Time)","537168","Trustworthy,Untrustworthy","","null","","","","ratingFB","","trustrating_stim/white_00340_940422_fa_edt.bmp","null","","","","","","","","","","",""
"image-keyboard-response","113","81874","0.0-6.0-1.54","5edc0583f16dff0c806bdbb6","bdp_trlrn","Sun Mar 12 2023 22:56:47 GMT-0400 (Eastern Daylight Time)","537168","Trustworthy,Untrustworthy","","1402","","","","rating","","trustrating_stim/white_00602_940928_fb_edt.bmp","4","","","","","","","","","","",""
"image-keyboard-response","114","82078","0.0-6.0-2.54","5edc0583f16dff0c806bdbb6","bdp_trlrn","Sun Mar 12 2023 22:56:47 GMT-0400 (Eastern Daylight Time)","537168","Trustworthy,Untrustworthy","","null","","","","ratingFB","","trustrating_stim/white_00602_940928_fb_edt.bmp","null","","","","","","","","","","",""
"image-keyboard-response","115","83595","0.0-6.0-1.55","5edc0583f16dff0c806bdbb6","bdp_trlrn","Sun Mar 12 2023 22:56:47 GMT-0400 (Eastern Daylight Time)","537168","Trustworthy,Untrustworthy","","1412","","","","rating","","trustrating_stim/white_00223_940128_fb_edt.bmp","2","","","","","","","","","","",""
"image-keyboard-response","116","83811","0.0-6.0-2.55","5edc0583f16dff0c806bdbb6","bdp_trlrn","Sun Mar 12 2023 22:56:47 GMT-0400 (Eastern Daylight Time)","537168","Trustworthy,Untrustworthy","","null","","","","ratingFB","","trustrating_stim/white_00223_940128_fb_edt.bmp","null","","","","","","","","","","",""
"image-keyboard-response","117","85109","0.0-6.0-1.56","5edc0583f16dff0c806bdbb6","bdp_trlrn","Sun Mar 12 2023 22:56:47 GMT-0400 (Eastern Daylight Time)","537168","Trustworthy,Untrustworthy","","1187","","","","rating","","trustrating_stim/white_mw060.bmp","2","","","","","","","","","","",""
"image-keyboard-response","118","85316","0.0-6.0-2.56","5edc0583f16dff0c806bdbb6","bdp_trlrn","Sun Mar 12 2023 22:56:47 GMT-0400 (Eastern Daylight Time)","537168","Trustworthy,Untrustworthy","","null","","","","ratingFB","","trustrating_stim/white_mw060.bmp","null","","","","","","","","","","",""
"image-keyboard-response","119","86178","0.0-6.0-1.57","5edc0583f16dff0c806bdbb6","bdp_trlrn","Sun Mar 12 2023 22:56:47 GMT-0400 (Eastern Daylight Time)","537168","Trustworthy,Untrustworthy","","751","","","","rating","","trustrating_stim/white_mw048.bmp","2","","","","","","","","","","",""
"image-keyboard-response","120","86395","0.0-6.0-2.57","5edc0583f16dff0c806bdbb6","bdp_trlrn","Sun Mar 12 2023 22:56:47 GMT-0400 (Eastern Daylight Time)","537168","Trustworthy,Untrustworthy","","null","","","","ratingFB","","trustrating_stim/white_mw048.bmp","null","","","","","","","","","","",""
"image-keyboard-response","121","87358","0.0-6.0-1.58","5edc0583f16dff0c806bdbb6","bdp_trlrn","Sun Mar 12 2023 22:56:47 GMT-0400 (Eastern Daylight Time)","537168","Trustworthy,Untrustworthy","","859","","","","rating","","trustrating_stim/white_00761_941201_fb_edt.bmp","2","","","","","","","","","","",""
"image-keyboard-response","122","87573","0.0-6.0-2.58","5edc0583f16dff0c806bdbb6","bdp_trlrn","Sun Mar 12 2023 22:56:47 GMT-0400 (Eastern Daylight Time)","537168","Trustworthy,Untrustworthy","","null","","","","ratingFB","","trustrating_stim/white_00761_941201_fb_edt.bmp","null","","","","","","","","","","",""
"image-keyboard-response","123","88563","0.0-6.0-1.59","5edc0583f16dff0c806bdbb6","bdp_trlrn","Sun Mar 12 2023 22:56:47 GMT-0400 (Eastern Daylight Time)","537168","Trustworthy,Untrustworthy","","882","","","","rating","","trustrating_stim/white_00519_940519_fb_edt.bmp","2","","","","","","","","","","",""
"image-keyboard-response","124","88777","0.0-6.0-2.59","5edc0583f16dff0c806bdbb6","bdp_trlrn","Sun Mar 12 2023 22:56:47 GMT-0400 (Eastern Daylight Time)","537168","Trustworthy,Untrustworthy","","null","","","","ratingFB","","trustrating_stim/white_00519_940519_fb_edt.bmp","null","","","","","","","","","","",""
"instructions","125","90506","0.0-7.0","5edc0583f16dff0c806bdbb6","bdp_trlrn","Sun Mar 12 2023 22:56:47 GMT-0400 (Eastern Daylight Time)","537168","Trustworthy,Untrustworthy","[{""page_index"":0,""viewing_time"":1616}]","1616","","","","","","","","","","","","","","","","","",""
"instructions","126","183658","0.0-8.0","5edc0583f16dff0c806bdbb6","bdp_trlrn","Sun Mar 12 2023 22:56:47 GMT-0400 (Eastern Daylight Time)","537168","Trustworthy,Untrustworthy","[{""page_index"":0,""viewing_time"":54362},{""page_index"":1,""viewing_time"":8672},{""page_index"":2,""viewing_time"":4194},{""page_index"":3,""viewing_time"":4934},{""page_index"":4,""viewing_time"":1742},{""page_index"":5,""viewing_time"":2314},{""page_index"":6,""viewing_time"":12730},{""page_index"":7,""viewing_time"":4095}]","93043","","","","","","","","","","","","","","","","","",""
"html-keyboard-response","127","188470","0.0-9.0","5edc0583f16dff0c806bdbb6","bdp_trlrn","Sun Mar 12 2023 22:56:47 GMT-0400 (Eastern Daylight Time)","537168","Trustworthy,Untrustworthy","","4810","","","","","","<div class='header' style='text-align:left; position: absolute; top: 5%; left: 5%;'><small>Task 2 of 5</small></div><div class='instruxDiv'><p><strong>1) What is the minimum number of points you can choose to send to your partner?</strong></p><p>a) 0</p><p>b) 1</p><p>c) 5</p>","B","","","","","","","","","","",""
"html-keyboard-response","128","190162","0.0-10.0","5edc0583f16dff0c806bdbb6","bdp_trlrn","Sun Mar 12 2023 22:56:47 GMT-0400 (Eastern Daylight Time)","537168","Trustworthy,Untrustworthy","","1574","","","","","","<div class='header' style='text-align:left; position: absolute; top: 5%; left: 5%;'><small>Task 2 of 5</small></div><div class='instruxDiv'><p><strong>1) What is the minimum number of points you can choose to send to your partner?</strong></p><p>a) 0</p><p style='color:#00FF00'>b) 1</p><p>c) 5</p><h3 style='color:#00FF00'>Correct!</h3><h3 class='center-content'>The correct response is b).</h3><h3 class='center-content'>The minimum number of points you can choose to send to your partner is 1 point.</h3><p><em>Press SPACEBAR to continue</em></p></div>"," ","","","","","","","","","","",""
"html-keyboard-response","129","192317","0.0-11.0","5edc0583f16dff0c806bdbb6","bdp_trlrn","Sun Mar 12 2023 22:56:47 GMT-0400 (Eastern Daylight Time)","537168","Trustworthy,Untrustworthy","","2040","","","","","","<div class='header' style='text-align:left; position: absolute; top: 5%; left: 5%;'><small>Task 2 of 5</small></div><div class='instruxDiv'><p><strong>2) What is the maximum number of points you can choose to send to your partner?</strong></p><p>a) 8</p><p>b) 5</p><p>c) 3</p>","B","","","","","","","","","","",""
"html-keyboard-response","130","193251","0.0-12.0","5edc0583f16dff0c806bdbb6","bdp_trlrn","Sun Mar 12 2023 22:56:47 GMT-0400 (Eastern Daylight Time)","537168","Trustworthy,Untrustworthy","","819","","","","","","<div class='header' style='text-align:left; position: absolute; top: 5%; left: 5%;'><small>Task 2 of 5</small></div><div class='instruxDiv'><p><strong>2) What is the maximum number of points you can choose to send to your partner?</strong></p><p>a) 8</p><p style='color:#00FF00'>b) 5</p><p>c) 3</p><h3 style='color:#00FF00'>Correct!</h3><h3 class='center-content'>The correct response is b).</h3><h3 class='center-content'>The maximum number of points you can choose to send to your partner is 5 points.</h3><p><em>Press SPACEBAR to continue</em></p></div>"," ","","","","","","","","","","",""
"html-keyboard-response","131","195627","0.0-13.0","5edc0583f16dff0c806bdbb6","bdp_trlrn","Sun Mar 12 2023 22:56:47 GMT-0400 (Eastern Daylight Time)","537168","Trustworthy,Untrustworthy","","2264","","","","","","<div class='header' style='text-align:left; position: absolute; top: 5%; left: 5%;'><small>Task 2 of 5</small></div><div class='instruxDiv'><p><strong>3) What happens to the amount of points you send to your partner?</strong></p><p>a) Nothing</p><p>b) It doubles</p><p>c) It quadruples</p>","C","","","","","","","","","","",""
"html-keyboard-response","132","196510","0.0-14.0","5edc0583f16dff0c806bdbb6","bdp_trlrn","Sun Mar 12 2023 22:56:47 GMT-0400 (Eastern Daylight Time)","537168","Trustworthy,Untrustworthy","","777","","","","","","<div class='header' style='text-align:left; position: absolute; top: 5%; left: 5%;'><small>Task 2 of 5</small></div><div class='instruxDiv'><p><strong>3) What happens to the amount of points you send to your partner?</strong></p><p>a) Nothing</p><p>b) It doubles</p><p style='color:#00FF00'>c) It quadruples</p><h3 style='color:#00FF00'>Correct!</h3><h3 class='center-content'>The correct response is c).</h3><h3 class='center-content'>The amount of points you send to your partner quadruples.</h3><p><em>Press SPACEBAR to continue</em></p></div>"," ","","","","","","","","","","",""
"html-keyboard-response","133","205195","0.0-15.0","5edc0583f16dff0c806bdbb6","bdp_trlrn","Sun Mar 12 2023 22:56:47 GMT-0400 (Eastern Daylight Time)","537168","Trustworthy,Untrustworthy","","8578","","","","","","<div class='header' style='text-align:left; position: absolute; top: 5%; left: 5%;'><small>Task 2 of 5</small></div><div class='instruxDiv'><p><strong>4) If you decided to share 4 out of 5 points with your partner, and they decided to share half of the amount they received with you, how many points would you receive back from them on this round?</strong></p><p>a) 16</p><p>b) 0</p><p>c) 8</p>","C","","","","","","","","","","",""
"html-keyboard-response","134","205885","0.0-16.0","5edc0583f16dff0c806bdbb6","bdp_trlrn","Sun Mar 12 2023 22:56:47 GMT-0400 (Eastern Daylight Time)","537168","Trustworthy,Untrustworthy","","579","","","","","","<div class='header' style='text-align:left; position: absolute; top: 5%; left: 5%;'><small>Task 2 of 5</small></div><div class='instruxDiv'><p><strong>4) If you decided to share 4 out of 5 points with your partner, and they decided to share half of the amount they received with you, how many points would you receive back from them on this round?</strong></p><p>a) 16</p><p>b) 0</p><p style='color:#00FF00'>c) 8</p><h3 style='color:#00FF00'>Correct!</h3><h3 class='center-content'>The correct response is c).</h3><h3 class='center-content'>If you shared 4 out of 5 points with your partner and they decided to share half of the amount they received with you, you would receive 8 points back (i.e. (4 x 4)/2 = 8).</h3><p><em>Press SPACEBAR to continue</em></p></div>"," ","","","","","","","","","","",""
"html-keyboard-response","135","211007","0.0-17.0","5edc0583f16dff0c806bdbb6","bdp_trlrn","Sun Mar 12 2023 22:56:47 GMT-0400 (Eastern Daylight Time)","537168","Trustworthy,Untrustworthy","","null","","","","","","<div class='header' style='text-align:left; position: absolute; top: 5%; left: 5%;'><small>Task 2 of 5</small></div><div class='instruxDiv'><p>Thank you for completing the quiz<p>These are the actual partners you will be interacting with in the next block:<p><div class='tc' align='center'><img class='introPic' src='trustrating_stim/white_00807_941205_fb_edt.bmp'><br><strong>Devin</strong></div><div class='bl' align='center'><img class='introPic' src='trustrating_stim/white_mw046.bmp'><br><strong>Daniel</strong></div><div class='br' align='center'><img class='introPic' src='trustrating_stim/white_mw084.bmp'><br><strong>Marcus</strong></div></div><p>Across <strong>66 rounds</strong> you will interact with each partner <strong>22 times</strong> (in random order).<p style='align:center; color:white'><font <em>Press SPACEBAR to continue</em></p>","null","","","","","","","","","","",""
"instructions","136","213696","0.0-18.0","5edc0583f16dff0c806bdbb6","bdp_trlrn","Sun Mar 12 2023 22:56:47 GMT-0400 (Eastern Daylight Time)","537168","Trustworthy,Untrustworthy","[{""page_index"":0,""viewing_time"":944},{""page_index"":1,""viewing_time"":1744}]","2688","","","","","","","","","","","","","","","","","",""
"html-keyboard-response","137","219194","0.0-19.0-1.0","5edc0583f16dff0c806bdbb6","bdp_trlrn","Sun Mar 12 2023 22:56:47 GMT-0400 (Eastern Daylight Time)","537168","Trustworthy,Untrustworthy","","5384","","","","decision","","<div class='trialDiv'><img src='trustrating_stim/white_mw046.bmp'><br><font class='baseline'><strong>Daniel</strong><p>Choose number of points to send.</font><div class='respPicDiv'><img src='img/responseButtonOffersNo0L.png' class='respPic'></div></div>","3","1","Daniel","6","Shared","0.65,0.35","14","0.65","trustrating_stim/white_mw046.bmp","2.5","5","1"
"html-keyboard-response","138","219452","0.0-19.0-2.0","5edc0583f16dff0c806bdbb6","bdp_trlrn","Sun Mar 12 2023 22:56:47 GMT-0400 (Eastern Daylight Time)","537168","Trustworthy,Untrustworthy","","null","","","","decisionFB","","<div class='trialDiv'><img src='trustrating_stim/white_mw046.bmp'><br><font class='baseline'><strong>Daniel</strong><p>Choose number of points to send.</font><div class='respPicDiv'><img src='img/responseButtonOffersNo0L3.png' class='respPic'></div></div>","null","1","Daniel","6","Shared","0.65,0.35","14","0.65","trustrating_stim/white_mw046.bmp","2.5","2","1"
"html-keyboard-response","139","220469","0.0-19.0-3.0","5edc0583f16dff0c806bdbb6","bdp_trlrn","Sun Mar 12 2023 22:56:47 GMT-0400 (Eastern Daylight Time)","537168","Trustworthy,Untrustworthy","","null","","","","feedback","","<div class='trialDiv'><img src='trustrating_stim/white_mw046.bmp'><br><font class='baseline'><strong>Daniel</strong><p>Received: <strong>12</strong></font> &nbsp; &nbsp; &nbsp; &nbsp; &nbsp; &nbsp;<font class='posOutcome'>Shared back: <strong>6</strong></font></font><div class='respPicDiv'><img src='img/responseButtonOffersNo0_wht.png' class='respPic'></div></div>","null","1","Daniel","6","Shared","0.65,0.35","14","0.65","trustrating_stim/white_mw046.bmp","2.5","8","1"
"html-keyboard-response","140","221350","0.0-19.0-1.1","5edc0583f16dff0c806bdbb6","bdp_trlrn","Sun Mar 12 2023 22:56:47 GMT-0400 (Eastern Daylight Time)","537168","Trustworthy,Untrustworthy","","880","","","","decision","","<div class='trialDiv'><img src='trustrating_stim/white_mw084.bmp'><br><font class='baseline'><strong>Marcus</strong><p>Choose number of points to send.</font><div class='respPicDiv'><img src='img/responseButtonOffersNo0L.png' class='respPic'></div></div>","3","1","Marcus","10","Shared","0.35,0.8","8","0.35","trustrating_stim/white_mw084.bmp","3.5","13","2"
"html-keyboard-response","141","221614","0.0-19.0-2.1","5edc0583f16dff0c806bdbb6","bdp_trlrn","Sun Mar 12 2023 22:56:47 GMT-0400 (Eastern Daylight Time)","537168","Trustworthy,Untrustworthy","","null","","","","decisionFB","","<div class='trialDiv'><img src='trustrating_stim/white_mw084.bmp'><br><font class='baseline'><strong>Marcus</strong><p>Choose number of points to send.</font><div class='respPicDiv'><img src='img/responseButtonOffersNo0L3.png' class='respPic'></div></div>","null","1","Marcus","10","Shared","0.35,0.8","8","0.35","trustrating_stim/white_mw084.bmp","3.5","10","2"
"html-keyboard-response","142","222621","0.0-19.0-3.1","5edc0583f16dff0c806bdbb6","bdp_trlrn","Sun Mar 12 2023 22:56:47 GMT-0400 (Eastern Daylight Time)","537168","Trustworthy,Untrustworthy","","null","","","","feedback","","<div class='trialDiv'><img src='trustrating_stim/white_mw084.bmp'><br><font class='baseline'><strong>Marcus</strong><p>Received: <strong>12</strong></font> &nbsp; &nbsp; &nbsp; &nbsp; &nbsp; &nbsp;<font class='posOutcome'>Shared back: <strong>6</strong></font></font><div class='respPicDiv'><img src='img/responseButtonOffersNo0_wht.png' class='respPic'></div></div>","null","1","Marcus","10","Shared","0.35,0.8","8","0.35","trustrating_stim/white_mw084.bmp","3.5","16","2"
"html-keyboard-response","143","222974","0.0-19.0-1.2","5edc0583f16dff0c806bdbb6","bdp_trlrn","Sun Mar 12 2023 22:56:47 GMT-0400 (Eastern Daylight Time)","537168","Trustworthy,Untrustworthy","","352","","","","decision","","<div class='trialDiv'><img src='trustrating_stim/white_00807_941205_fb_edt.bmp'><br><font class='baseline'><strong>Devin</strong><p>Choose number of points to send.</font><div class='respPicDiv'><img src='img/responseButtonOffersNo0L.png' class='respPic'></div></div>","3","1","Devin","0","Shared","0.8,0.35","12","0.8","trustrating_stim/white_00807_941205_fb_edt.bmp","1.5","21","3"
"html-keyboard-response","144","223228","0.0-19.0-2.2","5edc0583f16dff0c806bdbb6","bdp_trlrn","Sun Mar 12 2023 22:56:47 GMT-0400 (Eastern Daylight Time)","537168","Trustworthy,Untrustworthy","","null","","","","decisionFB","","<div class='trialDiv'><img src='trustrating_stim/white_00807_941205_fb_edt.bmp'><br><font class='baseline'><strong>Devin</strong><p>Choose number of points to send.</font><div class='respPicDiv'><img src='img/responseButtonOffersNo0L3.png' class='respPic'></div></div>","null","1","Devin","0","Shared","0.8,0.35","12","0.8","trustrating_stim/white_00807_941205_fb_edt.bmp","1.5","18","3"
"html-keyboard-response","145","224232","0.0-19.0-3.2","5edc0583f16dff0c806bdbb6","bdp_trlrn","Sun Mar 12 2023 22:56:47 GMT-0400 (Eastern Daylight Time)","537168","Trustworthy,Untrustworthy","","null","","","","feedback","","<div class='trialDiv'><img src='trustrating_stim/white_00807_941205_fb_edt.bmp'><br><font class='baseline'><strong>Devin</strong><p>Received: <strong>12</strong></font> &nbsp; &nbsp; &nbsp; &nbsp; &nbsp; &nbsp;<font class='posOutcome'>Shared back: <strong>6</strong></font></font><div class='respPicDiv'><img src='img/responseButtonOffersNo0_wht.png' class='respPic'></div></div>","null","1","Devin","0","Shared","0.8,0.35","12","0.8","trustrating_stim/white_00807_941205_fb_edt.bmp","1.5","24","3"
"html-keyboard-response","146","224715","0.0-19.0-1.3","5edc0583f16dff0c806bdbb6","bdp_trlrn","Sun Mar 12 2023 22:56:47 GMT-0400 (Eastern Daylight Time)","537168","Trustworthy,Untrustworthy","","482","","","","decision","","<div class='trialDiv'><img src='trustrating_stim/white_mw084.bmp'><br><font class='baseline'><strong>Marcus</strong><p>Choose number of points to send.</font><div class='respPicDiv'><img src='img/responseButtonOffersNo0L.png' class='respPic'></div></div>","3","2","Marcus","10","Shared","0.35,0.8","8","0.35","trustrating_stim/white_mw084.bmp","3.5","29","4"
"html-keyboard-response","147","224981","0.0-19.0-2.3","5edc0583f16dff0c806bdbb6","bdp_trlrn","Sun Mar 12 2023 22:56:47 GMT-0400 (Eastern Daylight Time)","537168","Trustworthy,Untrustworthy","","null","","","","decisionFB","","<div class='trialDiv'><img src='trustrating_stim/white_mw084.bmp'><br><font class='baseline'><strong>Marcus</strong><p>Choose number of points to send.</font><div class='respPicDiv'><img src='img/responseButtonOffersNo0L3.png' class='respPic'></div></div>","null","2","Marcus","10","Shared","0.35,0.8","8","0.35","trustrating_stim/white_mw084.bmp","3.5","26","4"
"html-keyboard-response","148","225996","0.0-19.0-3.3","5edc0583f16dff0c806bdbb6","bdp_trlrn","Sun Mar 12 2023 22:56:47 GMT-0400 (Eastern Daylight Time)","537168","Trustworthy,Untrustworthy","","null","","","","feedback","","<div class='trialDiv'><img src='trustrating_stim/white_mw084.bmp'><br><font class='baseline'><strong>Marcus</strong><p>Received: <strong>12</strong></font> &nbsp; &nbsp; &nbsp; &nbsp; &nbsp; &nbsp;<font class='posOutcome'>Shared back: <strong>6</strong></font></font><div class='respPicDiv'><img src='img/responseButtonOffersNo0_wht.png' class='respPic'></div></div>","null","2","Marcus","10","Shared","0.35,0.8","8","0.35","trustrating_stim/white_mw084.bmp","3.5","32","4"
"html-keyboard-response","149","226634","0.0-19.0-1.4","5edc0583f16dff0c806bdbb6","bdp_trlrn","Sun Mar 12 2023 22:56:47 GMT-0400 (Eastern Daylight Time)","537168","Trustworthy,Untrustworthy","","636","","","","decision","","<div class='trialDiv'><img src='trustrating_stim/white_mw046.bmp'><br><font class='baseline'><strong>Daniel</strong><p>Choose number of points to send.</font><div class='respPicDiv'><img src='img/responseButtonOffersNo0L.png' class='respPic'></div></div>","3","2","Daniel","6","Shared","0.65,0.35","14","0.65","trustrating_stim/white_mw046.bmp","2.5","37","5"
"html-keyboard-response","150","226895","0.0-19.0-2.4","5edc0583f16dff0c806bdbb6","bdp_trlrn","Sun Mar 12 2023 22:56:47 GMT-0400 (Eastern Daylight Time)","537168","Trustworthy,Untrustworthy","","null","","","","decisionFB","","<div class='trialDiv'><img src='trustrating_stim/white_mw046.bmp'><br><font class='baseline'><strong>Daniel</strong><p>Choose number of points to send.</font><div class='respPicDiv'><img src='img/responseButtonOffersNo0L3.png' class='respPic'></div></div>","null","2","Daniel","6","Shared","0.65,0.35","14","0.65","trustrating_stim/white_mw046.bmp","2.5","34","5"
"html-keyboard-response","151","227900","0.0-19.0-3.4","5edc0583f16dff0c806bdbb6","bdp_trlrn","Sun Mar 12 2023 22:56:47 GMT-0400 (Eastern Daylight Time)","537168","Trustworthy,Untrustworthy","","null","","","","feedback","","<div class='trialDiv'><img src='trustrating_stim/white_mw046.bmp'><br><font class='baseline'><strong>Daniel</strong><p>Received: <strong>12</strong></font> &nbsp; &nbsp; &nbsp; &nbsp; &nbsp; &nbsp;<font class='posOutcome'>Shared back: <strong>6</strong></font></font><div class='respPicDiv'><img src='img/responseButtonOffersNo0_wht.png' class='respPic'></div></div>","null","2","Daniel","6","Shared","0.65,0.35","14","0.65","trustrating_stim/white_mw046.bmp","2.5","40","5"
"html-keyboard-response","152","228496","0.0-19.0-1.5","5edc0583f16dff0c806bdbb6","bdp_trlrn","Sun Mar 12 2023 22:56:47 GMT-0400 (Eastern Daylight Time)","537168","Trustworthy,Untrustworthy","","595","","","","decision","","<div class='trialDiv'><img src='trustrating_stim/white_00807_941205_fb_edt.bmp'><br><font class='baseline'><strong>Devin</strong><p>Choose number of points to send.</font><div class='respPicDiv'><img src='img/responseButtonOffersNo0L.png' class='respPic'></div></div>","4","2","Devin","0","Shared","0.8,0.35","12","0.8","trustrating_stim/white_00807_941205_fb_edt.bmp","1.5","45","6"
"html-keyboard-response","153","228758","0.0-19.0-2.5","5edc0583f16dff0c806bdbb6","bdp_trlrn","Sun Mar 12 2023 22:56:47 GMT-0400 (Eastern Daylight Time)","537168","Trustworthy,Untrustworthy","","null","","","","decisionFB","","<div class='trialDiv'><img src='trustrating_stim/white_00807_941205_fb_edt.bmp'><br><font class='baseline'><strong>Devin</strong><p>Choose number of points to send.</font><div class='respPicDiv'><img src='img/responseButtonOffersNo0L4.png' class='respPic'></div></div>","null","2","Devin","0","Shared","0.8,0.35","12","0.8","trustrating_stim/white_00807_941205_fb_edt.bmp","1.5","41","6"
"html-keyboard-response","154","229772","0.0-19.0-3.5","5edc0583f16dff0c806bdbb6","bdp_trlrn","Sun Mar 12 2023 22:56:47 GMT-0400 (Eastern Daylight Time)","537168","Trustworthy,Untrustworthy","","null","","","","feedback","","<div class='trialDiv'><img src='trustrating_stim/white_00807_941205_fb_edt.bmp'><br><font class='baseline'><strong>Devin</strong><p>Received: <strong>16</strong></font> &nbsp; &nbsp; &nbsp; &nbsp; &nbsp; &nbsp;<font class='posOutcome'>Shared back: <strong>8</strong></font></font><div class='respPicDiv'><img src='img/responseButtonOffersNo0_wht.png' class='respPic'></div></div>","null","2","Devin","0","Shared","0.8,0.35","12","0.8","trustrating_stim/white_00807_941205_fb_edt.bmp","1.5","49","6"
"html-keyboard-response","155","229996","0.0-19.0-1.6","5edc0583f16dff0c806bdbb6","bdp_trlrn","Sun Mar 12 2023 22:56:47 GMT-0400 (Eastern Daylight Time)","537168","Trustworthy,Untrustworthy","","221","","","","decision","","<div class='trialDiv'><img src='trustrating_stim/white_mw084.bmp'><br><font class='baseline'><strong>Marcus</strong><p>Choose number of points to send.</font><div class='respPicDiv'><img src='img/responseButtonOffersNo0L.png' class='respPic'></div></div>","4","3","Marcus","10","Kept","0.35,0.8","8","0.35","trustrating_stim/white_mw084.bmp","3.5","54","7"
"html-keyboard-response","156","230256","0.0-19.0-2.6","5edc0583f16dff0c806bdbb6","bdp_trlrn","Sun Mar 12 2023 22:56:47 GMT-0400 (Eastern Daylight Time)","537168","Trustworthy,Untrustworthy","","null","","","","decisionFB","","<div class='trialDiv'><img src='trustrating_stim/white_mw084.bmp'><br><font class='baseline'><strong>Marcus</strong><p>Choose number of points to send.</font><div class='respPicDiv'><img src='img/responseButtonOffersNo0L4.png' class='respPic'></div></div>","null","3","Marcus","10","Kept","0.35,0.8","8","0.35","trustrating_stim/white_mw084.bmp","3.5","50","7"
"html-keyboard-response","157","231262","0.0-19.0-3.6","5edc0583f16dff0c806bdbb6","bdp_trlrn","Sun Mar 12 2023 22:56:47 GMT-0400 (Eastern Daylight Time)","537168","Trustworthy,Untrustworthy","","null","","","","feedback","","<div class='trialDiv'><img src='trustrating_stim/white_mw084.bmp'><br><font class='baseline'><strong>Marcus</strong><p>Received: <strong>16</strong></font> &nbsp; &nbsp; &nbsp; &nbsp; &nbsp; &nbsp;<font class='negOutcome'>Shared back: <strong>0</strong></font></font><div class='respPicDiv'><img src='img/responseButtonOffersNo0_wht.png' class='respPic'></div></div>","null","3","Marcus","10","Kept","0.35,0.8","8","0.35","trustrating_stim/white_mw084.bmp","3.5","50","7"
"html-keyboard-response","158","231692","0.0-19.0-1.7","5edc0583f16dff0c806bdbb6","bdp_trlrn","Sun Mar 12 2023 22:56:47 GMT-0400 (Eastern Daylight Time)","537168","Trustworthy,Untrustworthy","","427","","","","decision","","<div class='trialDiv'><img src='trustrating_stim/white_00807_941205_fb_edt.bmp'><br><font class='baseline'><strong>Devin</strong><p>Choose number of points to send.</font><div class='respPicDiv'><img src='img/responseButtonOffersNo0L.png' class='respPic'></div></div>","3","3","Devin","0","Shared","0.8,0.35","12","0.8","trustrating_stim/white_00807_941205_fb_edt.bmp","1.5","55","8"
"html-keyboard-response","159","231954","0.0-19.0-2.7","5edc0583f16dff0c806bdbb6","bdp_trlrn","Sun Mar 12 2023 22:56:47 GMT-0400 (Eastern Daylight Time)","537168","Trustworthy,Untrustworthy","","null","","","","decisionFB","","<div class='trialDiv'><img src='trustrating_stim/white_00807_941205_fb_edt.bmp'><br><font class='baseline'><strong>Devin</strong><p>Choose number of points to send.</font><div class='respPicDiv'><img src='img/responseButtonOffersNo0L3.png' class='respPic'></div></div>","null","3","Devin","0","Shared","0.8,0.35","12","0.8","trustrating_stim/white_00807_941205_fb_edt.bmp","1.5","52","8"
"html-keyboard-response","160","232970","0.0-19.0-3.7","5edc0583f16dff0c806bdbb6","bdp_trlrn","Sun Mar 12 2023 22:56:47 GMT-0400 (Eastern Daylight Time)","537168","Trustworthy,Untrustworthy","","null","","","","feedback","","<div class='trialDiv'><img src='trustrating_stim/white_00807_941205_fb_edt.bmp'><br><font class='baseline'><strong>Devin</strong><p>Received: <strong>12</strong></font> &nbsp; &nbsp; &nbsp; &nbsp; &nbsp; &nbsp;<font class='posOutcome'>Shared back: <strong>6</strong></font></font><div class='respPicDiv'><img src='img/responseButtonOffersNo0_wht.png' class='respPic'></div></div>","null","3","Devin","0","Shared","0.8,0.35","12","0.8","trustrating_stim/white_00807_941205_fb_edt.bmp","1.5","58","8"
"html-keyboard-response","161","233460","0.0-19.0-1.8","5edc0583f16dff0c806bdbb6","bdp_trlrn","Sun Mar 12 2023 22:56:47 GMT-0400 (Eastern Daylight Time)","537168","Trustworthy,Untrustworthy","","489","","","","decision","","<div class='trialDiv'><img src='trustrating_stim/white_mw046.bmp'><br><font class='baseline'><strong>Daniel</strong><p>Choose number of points to send.</font><div class='respPicDiv'><img src='img/responseButtonOffersNo0L.png' class='respPic'></div></div>","3","3","Daniel","6","Shared","0.65,0.35","14","0.65","trustrating_stim/white_mw046.bmp","2.5","63","9"
"html-keyboard-response","162","233722","0.0-19.0-2.8","5edc0583f16dff0c806bdbb6","bdp_trlrn","Sun Mar 12 2023 22:56:47 GMT-0400 (Eastern Daylight Time)","537168","Trustworthy,Untrustworthy","","null","","","","decisionFB","","<div class='trialDiv'><img src='trustrating_stim/white_mw046.bmp'><br><font class='baseline'><strong>Daniel</strong><p>Choose number of points to send.</font><div class='respPicDiv'><img src='img/responseButtonOffersNo0L3.png' class='respPic'></div></div>","null","3","Daniel","6","Shared","0.65,0.35","14","0.65","trustrating_stim/white_mw046.bmp","2.5","60","9"
"html-keyboard-response","163","234733","0.0-19.0-3.8","5edc0583f16dff0c806bdbb6","bdp_trlrn","Sun Mar 12 2023 22:56:47 GMT-0400 (Eastern Daylight Time)","537168","Trustworthy,Untrustworthy","","null","","","","feedback","","<div class='trialDiv'><img src='trustrating_stim/white_mw046.bmp'><br><font class='baseline'><strong>Daniel</strong><p>Received: <strong>12</strong></font> &nbsp; &nbsp; &nbsp; &nbsp; &nbsp; &nbsp;<font class='posOutcome'>Shared back: <strong>6</strong></font></font><div class='respPicDiv'><img src='img/responseButtonOffersNo0_wht.png' class='respPic'></div></div>","null","3","Daniel","6","Shared","0.65,0.35","14","0.65","trustrating_stim/white_mw046.bmp","2.5","66","9"
"html-keyboard-response","164","235632","0.0-19.0-1.9","5edc0583f16dff0c806bdbb6","bdp_trlrn","Sun Mar 12 2023 22:56:47 GMT-0400 (Eastern Daylight Time)","537168","Trustworthy,Untrustworthy","","898","","","","decision","","<div class='trialDiv'><img src='trustrating_stim/white_mw084.bmp'><br><font class='baseline'><strong>Marcus</strong><p>Choose number of points to send.</font><div class='respPicDiv'><img src='img/responseButtonOffersNo0L.png' class='respPic'></div></div>","2","4","Marcus","10","Kept","0.35,0.8","8","0.35","trustrating_stim/white_mw084.bmp","3.5","71","10"
"html-keyboard-response","165","235894","0.0-19.0-2.9","5edc0583f16dff0c806bdbb6","bdp_trlrn","Sun Mar 12 2023 22:56:47 GMT-0400 (Eastern Daylight Time)","537168","Trustworthy,Untrustworthy","","null","","","","decisionFB","","<div class='trialDiv'><img src='trustrating_stim/white_mw084.bmp'><br><font class='baseline'><strong>Marcus</strong><p>Choose number of points to send.</font><div class='respPicDiv'><img src='img/responseButtonOffersNo0L2.png' class='respPic'></div></div>","null","4","Marcus","10","Kept","0.35,0.8","8","0.35","trustrating_stim/white_mw084.bmp","3.5","69","10"
"html-keyboard-response","166","236911","0.0-19.0-3.9","5edc0583f16dff0c806bdbb6","bdp_trlrn","Sun Mar 12 2023 22:56:47 GMT-0400 (Eastern Daylight Time)","537168","Trustworthy,Untrustworthy","","null","","","","feedback","","<div class='trialDiv'><img src='trustrating_stim/white_mw084.bmp'><br><font class='baseline'><strong>Marcus</strong><p>Received: <strong>8</strong></font> &nbsp; &nbsp; &nbsp; &nbsp; &nbsp; &nbsp;<font class='negOutcome'>Shared back: <strong>0</strong></font></font><div class='respPicDiv'><img src='img/responseButtonOffersNo0_wht.png' class='respPic'></div></div>","null","4","Marcus","10","Kept","0.35,0.8","8","0.35","trustrating_stim/white_mw084.bmp","3.5","69","10"
"html-keyboard-response","167","238724","0.0-19.0-1.10","5edc0583f16dff0c806bdbb6","bdp_trlrn","Sun Mar 12 2023 22:56:47 GMT-0400 (Eastern Daylight Time)","537168","Trustworthy,Untrustworthy","","1812","","","","decision","","<div class='trialDiv'><img src='trustrating_stim/white_00807_941205_fb_edt.bmp'><br><font class='baseline'><strong>Devin</strong><p>Choose number of points to send.</font><div class='respPicDiv'><img src='img/responseButtonOffersNo0L.png' class='respPic'></div></div>","4","4","Devin","0","Shared","0.8,0.35","12","0.8","trustrating_stim/white_00807_941205_fb_edt.bmp","1.5","74","11"
"html-keyboard-response","168","238980","0.0-19.0-2.10","5edc0583f16dff0c806bdbb6","bdp_trlrn","Sun Mar 12 2023 22:56:47 GMT-0400 (Eastern Daylight Time)","537168","Trustworthy,Untrustworthy","","null","","","","decisionFB","","<div class='trialDiv'><img src='trustrating_stim/white_00807_941205_fb_edt.bmp'><br><font class='baseline'><strong>Devin</strong><p>Choose number of points to send.</font><div class='respPicDiv'><img src='img/responseButtonOffersNo0L4.png' class='respPic'></div></div>","null","4","Devin","0","Shared","0.8,0.35","12","0.8","trustrating_stim/white_00807_941205_fb_edt.bmp","1.5","70","11"
"html-keyboard-response","169","239984","0.0-19.0-3.10","5edc0583f16dff0c806bdbb6","bdp_trlrn","Sun Mar 12 2023 22:56:47 GMT-0400 (Eastern Daylight Time)","537168","Trustworthy,Untrustworthy","","null","","","","feedback","","<div class='trialDiv'><img src='trustrating_stim/white_00807_941205_fb_edt.bmp'><br><font class='baseline'><strong>Devin</strong><p>Received: <strong>16</strong></font> &nbsp; &nbsp; &nbsp; &nbsp; &nbsp; &nbsp;<font class='posOutcome'>Shared back: <strong>8</strong></font></font><div class='respPicDiv'><img src='img/responseButtonOffersNo0_wht.png' class='respPic'></div></div>","null","4","Devin","0","Shared","0.8,0.35","12","0.8","trustrating_stim/white_00807_941205_fb_edt.bmp","1.5","78","11"
"html-keyboard-response","170","240952","0.0-19.0-1.11","5edc0583f16dff0c806bdbb6","bdp_trlrn","Sun Mar 12 2023 22:56:47 GMT-0400 (Eastern Daylight Time)","537168","Trustworthy,Untrustworthy","","967","","","","decision","","<div class='trialDiv'><img src='trustrating_stim/white_mw046.bmp'><br><font class='baseline'><strong>Daniel</strong><p>Choose number of points to send.</font><div class='respPicDiv'><img src='img/responseButtonOffersNo0L.png' class='respPic'></div></div>","4","4","Daniel","6","Shared","0.65,0.35","14","0.65","trustrating_stim/white_mw046.bmp","2.5","83","12"
"html-keyboard-response","171","241214","0.0-19.0-2.11","5edc0583f16dff0c806bdbb6","bdp_trlrn","Sun Mar 12 2023 22:56:47 GMT-0400 (Eastern Daylight Time)","537168","Trustworthy,Untrustworthy","","null","","","","decisionFB","","<div class='trialDiv'><img src='trustrating_stim/white_mw046.bmp'><br><font class='baseline'><strong>Daniel</strong><p>Choose number of points to send.</font><div class='respPicDiv'><img src='img/responseButtonOffersNo0L4.png' class='respPic'></div></div>","null","4","Daniel","6","Shared","0.65,0.35","14","0.65","trustrating_stim/white_mw046.bmp","2.5","79","12"
"html-keyboard-response","172","242228","0.0-19.0-3.11","5edc0583f16dff0c806bdbb6","bdp_trlrn","Sun Mar 12 2023 22:56:47 GMT-0400 (Eastern Daylight Time)","537168","Trustworthy,Untrustworthy","","null","","","","feedback","","<div class='trialDiv'><img src='trustrating_stim/white_mw046.bmp'><br><font class='baseline'><strong>Daniel</strong><p>Received: <strong>16</strong></font> &nbsp; &nbsp; &nbsp; &nbsp; &nbsp; &nbsp;<font class='posOutcome'>Shared back: <strong>8</strong></font></font><div class='respPicDiv'><img src='img/responseButtonOffersNo0_wht.png' class='respPic'></div></div>","null","4","Daniel","6","Shared","0.65,0.35","14","0.65","trustrating_stim/white_mw046.bmp","2.5","87","12"
"html-keyboard-response","173","242961","0.0-19.0-1.12","5edc0583f16dff0c806bdbb6","bdp_trlrn","Sun Mar 12 2023 22:56:47 GMT-0400 (Eastern Daylight Time)","537168","Trustworthy,Untrustworthy","","730","","","","decision","","<div class='trialDiv'><img src='trustrating_stim/white_00807_941205_fb_edt.bmp'><br><font class='baseline'><strong>Devin</strong><p>Choose number of points to send.</font><div class='respPicDiv'><img src='img/responseButtonOffersNo0L.png' class='respPic'></div></div>","4","5","Devin","0","Shared","0.8,0.35","12","0.8","trustrating_stim/white_00807_941205_fb_edt.bmp","1.5","92","13"
"html-keyboard-response","174","243218","0.0-19.0-2.12","5edc0583f16dff0c806bdbb6","bdp_trlrn","Sun Mar 12 2023 22:56:47 GMT-0400 (Eastern Daylight Time)","537168","Trustworthy,Untrustworthy","","null","","","","decisionFB","","<div class='trialDiv'><img src='trustrating_stim/white_00807_941205_fb_edt.bmp'><br><font class='baseline'><strong>Devin</strong><p>Choose number of points to send.</font><div class='respPicDiv'><img src='img/responseButtonOffersNo0L4.png' class='respPic'></div></div>","null","5","Devin","0","Shared","0.8,0.35","12","0.8","trustrating_stim/white_00807_941205_fb_edt.bmp","1.5","88","13"
"html-keyboard-response","175","244220","0.0-19.0-3.12","5edc0583f16dff0c806bdbb6","bdp_trlrn","Sun Mar 12 2023 22:56:47 GMT-0400 (Eastern Daylight Time)","537168","Trustworthy,Untrustworthy","","null","","","","feedback","","<div class='trialDiv'><img src='trustrating_stim/white_00807_941205_fb_edt.bmp'><br><font class='baseline'><strong>Devin</strong><p>Received: <strong>16</strong></font> &nbsp; &nbsp; &nbsp; &nbsp; &nbsp; &nbsp;<font class='posOutcome'>Shared back: <strong>8</strong></font></font><div class='respPicDiv'><img src='img/responseButtonOffersNo0_wht.png' class='respPic'></div></div>","null","5","Devin","0","Shared","0.8,0.35","12","0.8","trustrating_stim/white_00807_941205_fb_edt.bmp","1.5","96","13"
"html-keyboard-response","176","245722","0.0-19.0-1.13","5edc0583f16dff0c806bdbb6","bdp_trlrn","Sun Mar 12 2023 22:56:47 GMT-0400 (Eastern Daylight Time)","537168","Trustworthy,Untrustworthy","","1501","","","","decision","","<div class='trialDiv'><img src='trustrating_stim/white_mw084.bmp'><br><font class='baseline'><strong>Marcus</strong><p>Choose number of points to send.</font><div class='respPicDiv'><img src='img/responseButtonOffersNo0L.png' class='respPic'></div></div>","1","5","Marcus","10","Shared","0.35,0.8","8","0.35","trustrating_stim/white_mw084.bmp","3.5","101","14"
"html-keyboard-response","177","245979","0.0-19.0-2.13","5edc0583f16dff0c806bdbb6","bdp_trlrn","Sun Mar 12 2023 22:56:47 GMT-0400 (Eastern Daylight Time)","537168","Trustworthy,Untrustworthy","","null","","","","decisionFB","","<div class='trialDiv'><img src='trustrating_stim/white_mw084.bmp'><br><font class='baseline'><strong>Marcus</strong><p>Choose number of points to send.</font><div class='respPicDiv'><img src='img/responseButtonOffersNo0L1.png' class='respPic'></div></div>","null","5","Marcus","10","Shared","0.35,0.8","8","0.35","trustrating_stim/white_mw084.bmp","3.5","100","14"
"html-keyboard-response","178","246983","0.0-19.0-3.13","5edc0583f16dff0c806bdbb6","bdp_trlrn","Sun Mar 12 2023 22:56:47 GMT-0400 (Eastern Daylight Time)","537168","Trustworthy,Untrustworthy","","null","","","","feedback","","<div class='trialDiv'><img src='trustrating_stim/white_mw084.bmp'><br><font class='baseline'><strong>Marcus</strong><p>Received: <strong>4</strong></font> &nbsp; &nbsp; &nbsp; &nbsp; &nbsp; &nbsp;<font class='posOutcome'>Shared back: <strong>2</strong></font></font><div class='respPicDiv'><img src='img/responseButtonOffersNo0_wht.png' class='respPic'></div></div>","null","5","Marcus","10","Shared","0.35,0.8","8","0.35","trustrating_stim/white_mw084.bmp","3.5","102","14"
"html-keyboard-response","179","249327","0.0-19.0-1.14","5edc0583f16dff0c806bdbb6","bdp_trlrn","Sun Mar 12 2023 22:56:47 GMT-0400 (Eastern Daylight Time)","537168","Trustworthy,Untrustworthy","","2342","","","","decision","","<div class='trialDiv'><img src='trustrating_stim/white_mw046.bmp'><br><font class='baseline'><strong>Daniel</strong><p>Choose number of points to send.</font><div class='respPicDiv'><img src='img/responseButtonOffersNo0L.png' class='respPic'></div></div>","4","5","Daniel","6","Shared","0.65,0.35","14","0.65","trustrating_stim/white_mw046.bmp","2.5","107","15"
"html-keyboard-response","180","249581","0.0-19.0-2.14","5edc0583f16dff0c806bdbb6","bdp_trlrn","Sun Mar 12 2023 22:56:47 GMT-0400 (Eastern Daylight Time)","537168","Trustworthy,Untrustworthy","","null","","","","decisionFB","","<div class='trialDiv'><img src='trustrating_stim/white_mw046.bmp'><br><font class='baseline'><strong>Daniel</strong><p>Choose number of points to send.</font><div class='respPicDiv'><img src='img/responseButtonOffersNo0L4.png' class='respPic'></div></div>","null","5","Daniel","6","Shared","0.65,0.35","14","0.65","trustrating_stim/white_mw046.bmp","2.5","103","15"
"html-keyboard-response","181","250590","0.0-19.0-3.14","5edc0583f16dff0c806bdbb6","bdp_trlrn","Sun Mar 12 2023 22:56:47 GMT-0400 (Eastern Daylight Time)","537168","Trustworthy,Untrustworthy","","null","","","","feedback","","<div class='trialDiv'><img src='trustrating_stim/white_mw046.bmp'><br><font class='baseline'><strong>Daniel</strong><p>Received: <strong>16</strong></font> &nbsp; &nbsp; &nbsp; &nbsp; &nbsp; &nbsp;<font class='posOutcome'>Shared back: <strong>8</strong></font></font><div class='respPicDiv'><img src='img/responseButtonOffersNo0_wht.png' class='respPic'></div></div>","null","5","Daniel","6","Shared","0.65,0.35","14","0.65","trustrating_stim/white_mw046.bmp","2.5","111","15"
"html-keyboard-response","182","250861","0.0-19.0-1.15","5edc0583f16dff0c806bdbb6","bdp_trlrn","Sun Mar 12 2023 22:56:47 GMT-0400 (Eastern Daylight Time)","537168","Trustworthy,Untrustworthy","","270","","","","decision","","<div class='trialDiv'><img src='trustrating_stim/white_mw084.bmp'><br><font class='baseline'><strong>Marcus</strong><p>Choose number of points to send.</font><div class='respPicDiv'><img src='img/responseButtonOffersNo0L.png' class='respPic'></div></div>","4","6","Marcus","10","Kept","0.35,0.8","8","0.35","trustrating_stim/white_mw084.bmp","3.5","116","16"
"html-keyboard-response","183","251123","0.0-19.0-2.15","5edc0583f16dff0c806bdbb6","bdp_trlrn","Sun Mar 12 2023 22:56:47 GMT-0400 (Eastern Daylight Time)","537168","Trustworthy,Untrustworthy","","null","","","","decisionFB","","<div class='trialDiv'><img src='trustrating_stim/white_mw084.bmp'><br><font class='baseline'><strong>Marcus</strong><p>Choose number of points to send.</font><div class='respPicDiv'><img src='img/responseButtonOffersNo0L4.png' class='respPic'></div></div>","null","6","Marcus","10","Kept","0.35,0.8","8","0.35","trustrating_stim/white_mw084.bmp","3.5","112","16"
"html-keyboard-response","184","252137","0.0-19.0-3.15","5edc0583f16dff0c806bdbb6","bdp_trlrn","Sun Mar 12 2023 22:56:47 GMT-0400 (Eastern Daylight Time)","537168","Trustworthy,Untrustworthy","","null","","","","feedback","","<div class='trialDiv'><img src='trustrating_stim/white_mw084.bmp'><br><font class='baseline'><strong>Marcus</strong><p>Received: <strong>16</strong></font> &nbsp; &nbsp; &nbsp; &nbsp; &nbsp; &nbsp;<font class='negOutcome'>Shared back: <strong>0</strong></font></font><div class='respPicDiv'><img src='img/responseButtonOffersNo0_wht.png' class='respPic'></div></div>","null","6","Marcus","10","Kept","0.35,0.8","8","0.35","trustrating_stim/white_mw084.bmp","3.5","112","16"
"html-keyboard-response","185","252830","0.0-19.0-1.16","5edc0583f16dff0c806bdbb6","bdp_trlrn","Sun Mar 12 2023 22:56:47 GMT-0400 (Eastern Daylight Time)","537168","Trustworthy,Untrustworthy","","692","","","","decision","","<div class='trialDiv'><img src='trustrating_stim/white_00807_941205_fb_edt.bmp'><br><font class='baseline'><strong>Devin</strong><p>Choose number of points to send.</font><div class='respPicDiv'><img src='img/responseButtonOffersNo0L.png' class='respPic'></div></div>","4","6","Devin","0","Kept","0.8,0.35","12","0.8","trustrating_stim/white_00807_941205_fb_edt.bmp","1.5","117","17"
"html-keyboard-response","186","253093","0.0-19.0-2.16","5edc0583f16dff0c806bdbb6","bdp_trlrn","Sun Mar 12 2023 22:56:47 GMT-0400 (Eastern Daylight Time)","537168","Trustworthy,Untrustworthy","","null","","","","decisionFB","","<div class='trialDiv'><img src='trustrating_stim/white_00807_941205_fb_edt.bmp'><br><font class='baseline'><strong>Devin</strong><p>Choose number of points to send.</font><div class='respPicDiv'><img src='img/responseButtonOffersNo0L4.png' class='respPic'></div></div>","null","6","Devin","0","Kept","0.8,0.35","12","0.8","trustrating_stim/white_00807_941205_fb_edt.bmp","1.5","113","17"
"html-keyboard-response","187","254108","0.0-19.0-3.16","5edc0583f16dff0c806bdbb6","bdp_trlrn","Sun Mar 12 2023 22:56:47 GMT-0400 (Eastern Daylight Time)","537168","Trustworthy,Untrustworthy","","null","","","","feedback","","<div class='trialDiv'><img src='trustrating_stim/white_00807_941205_fb_edt.bmp'><br><font class='baseline'><strong>Devin</strong><p>Received: <strong>16</strong></font> &nbsp; &nbsp; &nbsp; &nbsp; &nbsp; &nbsp;<font class='negOutcome'>Shared back: <strong>0</strong></font></font><div class='respPicDiv'><img src='img/responseButtonOffersNo0_wht.png' class='respPic'></div></div>","null","6","Devin","0","Kept","0.8,0.35","12","0.8","trustrating_stim/white_00807_941205_fb_edt.bmp","1.5","113","17"
"html-keyboard-response","188","257685","0.0-19.0-1.17","5edc0583f16dff0c806bdbb6","bdp_trlrn","Sun Mar 12 2023 22:56:47 GMT-0400 (Eastern Daylight Time)","537168","Trustworthy,Untrustworthy","","3576","","","","decision","","<div class='trialDiv'><img src='trustrating_stim/white_mw046.bmp'><br><font class='baseline'><strong>Daniel</strong><p>Choose number of points to send.</font><div class='respPicDiv'><img src='img/responseButtonOffersNo0L.png' class='respPic'></div></div>","5","6","Daniel","6","Shared","0.65,0.35","14","0.65","trustrating_stim/white_mw046.bmp","2.5","118","18"
"html-keyboard-response","189","257949","0.0-19.0-2.17","5edc0583f16dff0c806bdbb6","bdp_trlrn","Sun Mar 12 2023 22:56:47 GMT-0400 (Eastern Daylight Time)","537168","Trustworthy,Untrustworthy","","null","","","","decisionFB","","<div class='trialDiv'><img src='trustrating_stim/white_mw046.bmp'><br><font class='baseline'><strong>Daniel</strong><p>Choose number of points to send.</font><div class='respPicDiv'><img src='img/responseButtonOffersNo0L5.png' class='respPic'></div></div>","null","6","Daniel","6","Shared","0.65,0.35","14","0.65","trustrating_stim/white_mw046.bmp","2.5","113","18"
"html-keyboard-response","190","258964","0.0-19.0-3.17","5edc0583f16dff0c806bdbb6","bdp_trlrn","Sun Mar 12 2023 22:56:47 GMT-0400 (Eastern Daylight Time)","537168","Trustworthy,Untrustworthy","","null","","","","feedback","","<div class='trialDiv'><img src='trustrating_stim/white_mw046.bmp'><br><font class='baseline'><strong>Daniel</strong><p>Received: <strong>20</strong></font> &nbsp; &nbsp; &nbsp; &nbsp; &nbsp; &nbsp;<font class='posOutcome'>Shared back: <strong>10</strong></font></font><div class='respPicDiv'><img src='img/responseButtonOffersNo0_wht.png' class='respPic'></div></div>","null","6","Daniel","6","Shared","0.65,0.35","14","0.65","trustrating_stim/white_mw046.bmp","2.5","123","18"
"html-keyboard-response","191","260168","0.0-19.0-1.18","5edc0583f16dff0c806bdbb6","bdp_trlrn","Sun Mar 12 2023 22:56:47 GMT-0400 (Eastern Daylight Time)","537168","Trustworthy,Untrustworthy","","1202","","","","decision","","<div class='trialDiv'><img src='trustrating_stim/white_mw084.bmp'><br><font class='baseline'><strong>Marcus</strong><p>Choose number of points to send.</font><div class='respPicDiv'><img src='img/responseButtonOffersNo0L.png' class='respPic'></div></div>","1","7","Marcus","10","Shared","0.35,0.8","8","0.35","trustrating_stim/white_mw084.bmp","3.5","128","19"
"html-keyboard-response","192","260420","0.0-19.0-2.18","5edc0583f16dff0c806bdbb6","bdp_trlrn","Sun Mar 12 2023 22:56:47 GMT-0400 (Eastern Daylight Time)","537168","Trustworthy,Untrustworthy","","null","","","","decisionFB","","<div class='trialDiv'><img src='trustrating_stim/white_mw084.bmp'><br><font class='baseline'><strong>Marcus</strong><p>Choose number of points to send.</font><div class='respPicDiv'><img src='img/responseButtonOffersNo0L1.png' class='respPic'></div></div>","null","7","Marcus","10","Shared","0.35,0.8","8","0.35","trustrating_stim/white_mw084.bmp","3.5","127","19"
"html-keyboard-response","193","261424","0.0-19.0-3.18","5edc0583f16dff0c806bdbb6","bdp_trlrn","Sun Mar 12 2023 22:56:47 GMT-0400 (Eastern Daylight Time)","537168","Trustworthy,Untrustworthy","","null","","","","feedback","","<div class='trialDiv'><img src='trustrating_stim/white_mw084.bmp'><br><font class='baseline'><strong>Marcus</strong><p>Received: <strong>4</strong></font> &nbsp; &nbsp; &nbsp; &nbsp; &nbsp; &nbsp;<font class='posOutcome'>Shared back: <strong>2</strong></font></font><div class='respPicDiv'><img src='img/responseButtonOffersNo0_wht.png' class='respPic'></div></div>","null","7","Marcus","10","Shared","0.35,0.8","8","0.35","trustrating_stim/white_mw084.bmp","3.5","129","19"
"html-keyboard-response","194","263378","0.0-19.0-1.19","5edc0583f16dff0c806bdbb6","bdp_trlrn","Sun Mar 12 2023 22:56:47 GMT-0400 (Eastern Daylight Time)","537168","Trustworthy,Untrustworthy","","1953","","","","decision","","<div class='trialDiv'><img src='trustrating_stim/white_mw046.bmp'><br><font class='baseline'><strong>Daniel</strong><p>Choose number of points to send.</font><div class='respPicDiv'><img src='img/responseButtonOffersNo0L.png' class='respPic'></div></div>","5","7","Daniel","6","Shared","0.65,0.35","14","0.65","trustrating_stim/white_mw046.bmp","2.5","134","20"
"html-keyboard-response","195","263639","0.0-19.0-2.19","5edc0583f16dff0c806bdbb6","bdp_trlrn","Sun Mar 12 2023 22:56:47 GMT-0400 (Eastern Daylight Time)","537168","Trustworthy,Untrustworthy","","null","","","","decisionFB","","<div class='trialDiv'><img src='trustrating_stim/white_mw046.bmp'><br><font class='baseline'><strong>Daniel</strong><p>Choose number of points to send.</font><div class='respPicDiv'><img src='img/responseButtonOffersNo0L5.png' class='respPic'></div></div>","null","7","Daniel","6","Shared","0.65,0.35","14","0.65","trustrating_stim/white_mw046.bmp","2.5","129","20"
"html-keyboard-response","196","264649","0.0-19.0-3.19","5edc0583f16dff0c806bdbb6","bdp_trlrn","Sun Mar 12 2023 22:56:47 GMT-0400 (Eastern Daylight Time)","537168","Trustworthy,Untrustworthy","","null","","","","feedback","","<div class='trialDiv'><img src='trustrating_stim/white_mw046.bmp'><br><font class='baseline'><strong>Daniel</strong><p>Received: <strong>20</strong></font> &nbsp; &nbsp; &nbsp; &nbsp; &nbsp; &nbsp;<font class='posOutcome'>Shared back: <strong>10</strong></font></font><div class='respPicDiv'><img src='img/responseButtonOffersNo0_wht.png' class='respPic'></div></div>","null","7","Daniel","6","Shared","0.65,0.35","14","0.65","trustrating_stim/white_mw046.bmp","2.5","139","20"
"html-keyboard-response","197","265375","0.0-19.0-1.20","5edc0583f16dff0c806bdbb6","bdp_trlrn","Sun Mar 12 2023 22:56:47 GMT-0400 (Eastern Daylight Time)","537168","Trustworthy,Untrustworthy","","725","","","","decision","","<div class='trialDiv'><img src='trustrating_stim/white_00807_941205_fb_edt.bmp'><br><font class='baseline'><strong>Devin</strong><p>Choose number of points to send.</font><div class='respPicDiv'><img src='img/responseButtonOffersNo0L.png' class='respPic'></div></div>","5","7","Devin","0","Shared","0.8,0.35","12","0.8","trustrating_stim/white_00807_941205_fb_edt.bmp","1.5","144","21"
"html-keyboard-response","198","265636","0.0-19.0-2.20","5edc0583f16dff0c806bdbb6","bdp_trlrn","Sun Mar 12 2023 22:56:47 GMT-0400 (Eastern Daylight Time)","537168","Trustworthy,Untrustworthy","","null","","","","decisionFB","","<div class='trialDiv'><img src='trustrating_stim/white_00807_941205_fb_edt.bmp'><br><font class='baseline'><strong>Devin</strong><p>Choose number of points to send.</font><div class='respPicDiv'><img src='img/responseButtonOffersNo0L5.png' class='respPic'></div></div>","null","7","Devin","0","Shared","0.8,0.35","12","0.8","trustrating_stim/white_00807_941205_fb_edt.bmp","1.5","139","21"
"html-keyboard-response","199","266641","0.0-19.0-3.20","5edc0583f16dff0c806bdbb6","bdp_trlrn","Sun Mar 12 2023 22:56:47 GMT-0400 (Eastern Daylight Time)","537168","Trustworthy,Untrustworthy","","null","","","","feedback","","<div class='trialDiv'><img src='trustrating_stim/white_00807_941205_fb_edt.bmp'><br><font class='baseline'><strong>Devin</strong><p>Received: <strong>20</strong></font> &nbsp; &nbsp; &nbsp; &nbsp; &nbsp; &nbsp;<font class='posOutcome'>Shared back: <strong>10</strong></font></font><div class='respPicDiv'><img src='img/responseButtonOffersNo0_wht.png' class='respPic'></div></div>","null","7","Devin","0","Shared","0.8,0.35","12","0.8","trustrating_stim/white_00807_941205_fb_edt.bmp","1.5","149","21"
"html-keyboard-response","200","267052","0.0-19.0-1.21","5edc0583f16dff0c806bdbb6","bdp_trlrn","Sun Mar 12 2023 22:56:47 GMT-0400 (Eastern Daylight Time)","537168","Trustworthy,Untrustworthy","","410","","","","decision","","<div class='trialDiv'><img src='trustrating_stim/white_mw046.bmp'><br><font class='baseline'><strong>Daniel</strong><p>Choose number of points to send.</font><div class='respPicDiv'><img src='img/responseButtonOffersNo0L.png' class='respPic'></div></div>","5","8","Daniel","6","Kept","0.65,0.35","14","0.65","trustrating_stim/white_mw046.bmp","2.5","154","22"
"html-keyboard-response","201","267315","0.0-19.0-2.21","5edc0583f16dff0c806bdbb6","bdp_trlrn","Sun Mar 12 2023 22:56:47 GMT-0400 (Eastern Daylight Time)","537168","Trustworthy,Untrustworthy","","null","","","","decisionFB","","<div class='trialDiv'><img src='trustrating_stim/white_mw046.bmp'><br><font class='baseline'><strong>Daniel</strong><p>Choose number of points to send.</font><div class='respPicDiv'><img src='img/responseButtonOffersNo0L5.png' class='respPic'></div></div>","null","8","Daniel","6","Kept","0.65,0.35","14","0.65","trustrating_stim/white_mw046.bmp","2.5","149","22"
"html-keyboard-response","202","268331","0.0-19.0-3.21","5edc0583f16dff0c806bdbb6","bdp_trlrn","Sun Mar 12 2023 22:56:47 GMT-0400 (Eastern Daylight Time)","537168","Trustworthy,Untrustworthy","","null","","","","feedback","","<div class='trialDiv'><img src='trustrating_stim/white_mw046.bmp'><br><font class='baseline'><strong>Daniel</strong><p>Received: <strong>20</strong></font> &nbsp; &nbsp; &nbsp; &nbsp; &nbsp; &nbsp;<font class='negOutcome'>Shared back: <strong>0</strong></font></font><div class='respPicDiv'><img src='img/responseButtonOffersNo0_wht.png' class='respPic'></div></div>","null","8","Daniel","6","Kept","0.65,0.35","14","0.65","trustrating_stim/white_mw046.bmp","2.5","149","22"
"html-keyboard-response","203","270321","0.0-19.0-1.22","5edc0583f16dff0c806bdbb6","bdp_trlrn","Sun Mar 12 2023 22:56:47 GMT-0400 (Eastern Daylight Time)","537168","Trustworthy,Untrustworthy","","1989","","","","decision","","<div class='trialDiv'><img src='trustrating_stim/white_mw084.bmp'><br><font class='baseline'><strong>Marcus</strong><p>Choose number of points to send.</font><div class='respPicDiv'><img src='img/responseButtonOffersNo0L.png' class='respPic'></div></div>","2","8","Marcus","10","Kept","0.35,0.8","8","0.35","trustrating_stim/white_mw084.bmp","3.5","154","23"
"html-keyboard-response","204","270584","0.0-19.0-2.22","5edc0583f16dff0c806bdbb6","bdp_trlrn","Sun Mar 12 2023 22:56:47 GMT-0400 (Eastern Daylight Time)","537168","Trustworthy,Untrustworthy","","null","","","","decisionFB","","<div class='trialDiv'><img src='trustrating_stim/white_mw084.bmp'><br><font class='baseline'><strong>Marcus</strong><p>Choose number of points to send.</font><div class='respPicDiv'><img src='img/responseButtonOffersNo0L2.png' class='respPic'></div></div>","null","8","Marcus","10","Kept","0.35,0.8","8","0.35","trustrating_stim/white_mw084.bmp","3.5","152","23"
"html-keyboard-response","205","271597","0.0-19.0-3.22","5edc0583f16dff0c806bdbb6","bdp_trlrn","Sun Mar 12 2023 22:56:47 GMT-0400 (Eastern Daylight Time)","537168","Trustworthy,Untrustworthy","","null","","","","feedback","","<div class='trialDiv'><img src='trustrating_stim/white_mw084.bmp'><br><font class='baseline'><strong>Marcus</strong><p>Received: <strong>8</strong></font> &nbsp; &nbsp; &nbsp; &nbsp; &nbsp; &nbsp;<font class='negOutcome'>Shared back: <strong>0</strong></font></font><div class='respPicDiv'><img src='img/responseButtonOffersNo0_wht.png' class='respPic'></div></div>","null","8","Marcus","10","Kept","0.35,0.8","8","0.35","trustrating_stim/white_mw084.bmp","3.5","152","23"
"html-keyboard-response","206","275072","0.0-19.0-1.23","5edc0583f16dff0c806bdbb6","bdp_trlrn","Sun Mar 12 2023 22:56:47 GMT-0400 (Eastern Daylight Time)","537168","Trustworthy,Untrustworthy","","3474","","","","decision","","<div class='trialDiv'><img src='trustrating_stim/white_00807_941205_fb_edt.bmp'><br><font class='baseline'><strong>Devin</strong><p>Choose number of points to send.</font><div class='respPicDiv'><img src='img/responseButtonOffersNo0L.png' class='respPic'></div></div>","5","8","Devin","0","Shared","0.8,0.35","12","0.8","trustrating_stim/white_00807_941205_fb_edt.bmp","1.5","157","24"
"html-keyboard-response","207","275324","0.0-19.0-2.23","5edc0583f16dff0c806bdbb6","bdp_trlrn","Sun Mar 12 2023 22:56:47 GMT-0400 (Eastern Daylight Time)","537168","Trustworthy,Untrustworthy","","null","","","","decisionFB","","<div class='trialDiv'><img src='trustrating_stim/white_00807_941205_fb_edt.bmp'><br><font class='baseline'><strong>Devin</strong><p>Choose number of points to send.</font><div class='respPicDiv'><img src='img/responseButtonOffersNo0L5.png' class='respPic'></div></div>","null","8","Devin","0","Shared","0.8,0.35","12","0.8","trustrating_stim/white_00807_941205_fb_edt.bmp","1.5","152","24"
"html-keyboard-response","208","276335","0.0-19.0-3.23","5edc0583f16dff0c806bdbb6","bdp_trlrn","Sun Mar 12 2023 22:56:47 GMT-0400 (Eastern Daylight Time)","537168","Trustworthy,Untrustworthy","","null","","","","feedback","","<div class='trialDiv'><img src='trustrating_stim/white_00807_941205_fb_edt.bmp'><br><font class='baseline'><strong>Devin</strong><p>Received: <strong>20</strong></font> &nbsp; &nbsp; &nbsp; &nbsp; &nbsp; &nbsp;<font class='posOutcome'>Shared back: <strong>10</strong></font></font><div class='respPicDiv'><img src='img/responseButtonOffersNo0_wht.png' class='respPic'></div></div>","null","8","Devin","0","Shared","0.8,0.35","12","0.8","trustrating_stim/white_00807_941205_fb_edt.bmp","1.5","162","24"
"html-keyboard-response","209","277282","0.0-19.0-1.24","5edc0583f16dff0c806bdbb6","bdp_trlrn","Sun Mar 12 2023 22:56:47 GMT-0400 (Eastern Daylight Time)","537168","Trustworthy,Untrustworthy","","946","","","","decision","","<div class='trialDiv'><img src='trustrating_stim/white_mw084.bmp'><br><font class='baseline'><strong>Marcus</strong><p>Choose number of points to send.</font><div class='respPicDiv'><img src='img/responseButtonOffersNo0L.png' class='respPic'></div></div>","1","9","Marcus","10","Kept","0.35,0.8","8","0.35","trustrating_stim/white_mw084.bmp","3.5","167","25"
"html-keyboard-response","210","277539","0.0-19.0-2.24","5edc0583f16dff0c806bdbb6","bdp_trlrn","Sun Mar 12 2023 22:56:47 GMT-0400 (Eastern Daylight Time)","537168","Trustworthy,Untrustworthy","","null","","","","decisionFB","","<div class='trialDiv'><img src='trustrating_stim/white_mw084.bmp'><br><font class='baseline'><strong>Marcus</strong><p>Choose number of points to send.</font><div class='respPicDiv'><img src='img/responseButtonOffersNo0L1.png' class='respPic'></div></div>","null","9","Marcus","10","Kept","0.35,0.8","8","0.35","trustrating_stim/white_mw084.bmp","3.5","166","25"
"html-keyboard-response","211","278552","0.0-19.0-3.24","5edc0583f16dff0c806bdbb6","bdp_trlrn","Sun Mar 12 2023 22:56:47 GMT-0400 (Eastern Daylight Time)","537168","Trustworthy,Untrustworthy","","null","","","","feedback","","<div class='trialDiv'><img src='trustrating_stim/white_mw084.bmp'><br><font class='baseline'><strong>Marcus</strong><p>Received: <strong>4</strong></font> &nbsp; &nbsp; &nbsp; &nbsp; &nbsp; &nbsp;<font class='negOutcome'>Shared back: <strong>0</strong></font></font><div class='respPicDiv'><img src='img/responseButtonOffersNo0_wht.png' class='respPic'></div></div>","null","9","Marcus","10","Kept","0.35,0.8","8","0.35","trustrating_stim/white_mw084.bmp","3.5","166","25"
"html-keyboard-response","212","280623","0.0-19.0-1.25","5edc0583f16dff0c806bdbb6","bdp_trlrn","Sun Mar 12 2023 22:56:47 GMT-0400 (Eastern Daylight Time)","537168","Trustworthy,Untrustworthy","","2069","","","","decision","","<div class='trialDiv'><img src='trustrating_stim/white_00807_941205_fb_edt.bmp'><br><font class='baseline'><strong>Devin</strong><p>Choose number of points to send.</font><div class='respPicDiv'><img src='img/responseButtonOffersNo0L.png' class='respPic'></div></div>","4","9","Devin","0","Shared","0.8,0.35","12","0.8","trustrating_stim/white_00807_941205_fb_edt.bmp","1.5","171","26"
"html-keyboard-response","213","280886","0.0-19.0-2.25","5edc0583f16dff0c806bdbb6","bdp_trlrn","Sun Mar 12 2023 22:56:47 GMT-0400 (Eastern Daylight Time)","537168","Trustworthy,Untrustworthy","","null","","","","decisionFB","","<div class='trialDiv'><img src='trustrating_stim/white_00807_941205_fb_edt.bmp'><br><font class='baseline'><strong>Devin</strong><p>Choose number of points to send.</font><div class='respPicDiv'><img src='img/responseButtonOffersNo0L4.png' class='respPic'></div></div>","null","9","Devin","0","Shared","0.8,0.35","12","0.8","trustrating_stim/white_00807_941205_fb_edt.bmp","1.5","167","26"
"html-keyboard-response","214","281888","0.0-19.0-3.25","5edc0583f16dff0c806bdbb6","bdp_trlrn","Sun Mar 12 2023 22:56:47 GMT-0400 (Eastern Daylight Time)","537168","Trustworthy,Untrustworthy","","null","","","","feedback","","<div class='trialDiv'><img src='trustrating_stim/white_00807_941205_fb_edt.bmp'><br><font class='baseline'><strong>Devin</strong><p>Received: <strong>16</strong></font> &nbsp; &nbsp; &nbsp; &nbsp; &nbsp; &nbsp;<font class='posOutcome'>Shared back: <strong>8</strong></font></font><div class='respPicDiv'><img src='img/responseButtonOffersNo0_wht.png' class='respPic'></div></div>","null","9","Devin","0","Shared","0.8,0.35","12","0.8","trustrating_stim/white_00807_941205_fb_edt.bmp","1.5","175","26"
"html-keyboard-response","215","283437","0.0-19.0-1.26","5edc0583f16dff0c806bdbb6","bdp_trlrn","Sun Mar 12 2023 22:56:47 GMT-0400 (Eastern Daylight Time)","537168","Trustworthy,Untrustworthy","","1547","","","","decision","","<div class='trialDiv'><img src='trustrating_stim/white_mw046.bmp'><br><font class='baseline'><strong>Daniel</strong><p>Choose number of points to send.</font><div class='respPicDiv'><img src='img/responseButtonOffersNo0L.png' class='respPic'></div></div>","5","9","Daniel","6","Kept","0.65,0.35","14","0.65","trustrating_stim/white_mw046.bmp","2.5","180","27"
"html-keyboard-response","216","283696","0.0-19.0-2.26","5edc0583f16dff0c806bdbb6","bdp_trlrn","Sun Mar 12 2023 22:56:47 GMT-0400 (Eastern Daylight Time)","537168","Trustworthy,Untrustworthy","","null","","","","decisionFB","","<div class='trialDiv'><img src='trustrating_stim/white_mw046.bmp'><br><font class='baseline'><strong>Daniel</strong><p>Choose number of points to send.</font><div class='respPicDiv'><img src='img/responseButtonOffersNo0L5.png' class='respPic'></div></div>","null","9","Daniel","6","Kept","0.65,0.35","14","0.65","trustrating_stim/white_mw046.bmp","2.5","175","27"
"html-keyboard-response","217","284709","0.0-19.0-3.26","5edc0583f16dff0c806bdbb6","bdp_trlrn","Sun Mar 12 2023 22:56:47 GMT-0400 (Eastern Daylight Time)","537168","Trustworthy,Untrustworthy","","null","","","","feedback","","<div class='trialDiv'><img src='trustrating_stim/white_mw046.bmp'><br><font class='baseline'><strong>Daniel</strong><p>Received: <strong>20</strong></font> &nbsp; &nbsp; &nbsp; &nbsp; &nbsp; &nbsp;<font class='negOutcome'>Shared back: <strong>0</strong></font></font><div class='respPicDiv'><img src='img/responseButtonOffersNo0_wht.png' class='respPic'></div></div>","null","9","Daniel","6","Kept","0.65,0.35","14","0.65","trustrating_stim/white_mw046.bmp","2.5","175","27"
"html-keyboard-response","218","286035","0.0-19.0-1.27","5edc0583f16dff0c806bdbb6","bdp_trlrn","Sun Mar 12 2023 22:56:47 GMT-0400 (Eastern Daylight Time)","537168","Trustworthy,Untrustworthy","","1324","","","","decision","","<div class='trialDiv'><img src='trustrating_stim/white_00807_941205_fb_edt.bmp'><br><font class='baseline'><strong>Devin</strong><p>Choose number of points to send.</font><div class='respPicDiv'><img src='img/responseButtonOffersNo0L.png' class='respPic'></div></div>","3","10","Devin","0","Shared","0.8,0.35","12","0.8","trustrating_stim/white_00807_941205_fb_edt.bmp","1.5","180","28"
"html-keyboard-response","219","286298","0.0-19.0-2.27","5edc0583f16dff0c806bdbb6","bdp_trlrn","Sun Mar 12 2023 22:56:47 GMT-0400 (Eastern Daylight Time)","537168","Trustworthy,Untrustworthy","","null","","","","decisionFB","","<div class='trialDiv'><img src='trustrating_stim/white_00807_941205_fb_edt.bmp'><br><font class='baseline'><strong>Devin</strong><p>Choose number of points to send.</font><div class='respPicDiv'><img src='img/responseButtonOffersNo0L3.png' class='respPic'></div></div>","null","10","Devin","0","Shared","0.8,0.35","12","0.8","trustrating_stim/white_00807_941205_fb_edt.bmp","1.5","177","28"
"html-keyboard-response","220","287307","0.0-19.0-3.27","5edc0583f16dff0c806bdbb6","bdp_trlrn","Sun Mar 12 2023 22:56:47 GMT-0400 (Eastern Daylight Time)","537168","Trustworthy,Untrustworthy","","null","","","","feedback","","<div class='trialDiv'><img src='trustrating_stim/white_00807_941205_fb_edt.bmp'><br><font class='baseline'><strong>Devin</strong><p>Received: <strong>12</strong></font> &nbsp; &nbsp; &nbsp; &nbsp; &nbsp; &nbsp;<font class='posOutcome'>Shared back: <strong>6</strong></font></font><div class='respPicDiv'><img src='img/responseButtonOffersNo0_wht.png' class='respPic'></div></div>","null","10","Devin","0","Shared","0.8,0.35","12","0.8","trustrating_stim/white_00807_941205_fb_edt.bmp","1.5","183","28"
