"trial_type","trial_index","time_elapsed","internal_node_id","subject_id","task","startTime","totalTime","labels","view_history","rt","event","trial","time","trialtype","success","stimulus","key_press","aground","name","faceID","outcome","agenttype","agentswpt","agentcurrpshare","face","avgRating","point_total","round"
"pavlovia","0","6","0.0-0.0","5fcecd70db3ccb1a7f9331c9","bdp_trlrn","Mon Mar 13 2023 13:54:30 GMT-0400 (Eastern Daylight Time)","630556","Untrustworthy,Trustworthy","","","","","","","","","","","","","","","","","","","",""
"instructions","1","2865","0.0-1.0","5fcecd70db3ccb1a7f9331c9","bdp_trlrn","Mon Mar 13 2023 13:54:30 GMT-0400 (Eastern Daylight Time)","630556","Untrustworthy,Trustworthy","[{""page_index"":0,""viewing_time"":2857}]","2857","","","","","","","","","","","","","","","","","",""
"","","","","5fcecd70db3ccb1a7f9331c9","bdp_trlrn","Mon Mar 13 2023 13:54:30 GMT-0400 (Eastern Daylight Time)","630556","Untrustworthy,Trustworthy","","","fullscreenenter","2","6327","fullscreenenter","","","","","","","","","","","","","",""
"fullscreen","2","7253","0.0-2.0","5fcecd70db3ccb1a7f9331c9","bdp_trlrn","Mon Mar 13 2023 13:54:30 GMT-0400 (Eastern Daylight Time)","630556","Untrustworthy,Trustworthy","","","","","","","true","","","","","","","","","","","","",""
"instructions","3","31621","0.0-4.0","5fcecd70db3ccb1a7f9331c9","bdp_trlrn","Mon Mar 13 2023 13:54:30 GMT-0400 (Eastern Daylight Time)","630556","Untrustworthy,Trustworthy","[{""page_index"":0,""viewing_time"":20929},{""page_index"":1,""viewing_time"":3438}]","24367","","","","","","","","","","","","","","","","","",""
"instructions","4","32706","0.0-5.0","5fcecd70db3ccb1a7f9331c9","bdp_trlrn","Mon Mar 13 2023 13:54:30 GMT-0400 (Eastern Daylight Time)","630556","Untrustworthy,Trustworthy","[{""page_index"":0,""viewing_time"":1085}]","1085","","","","","","","","","","","","","","","","","",""
"image-keyboard-response","5","36267","0.0-6.0-1.0","5fcecd70db3ccb1a7f9331c9","bdp_trlrn","Mon Mar 13 2023 13:54:30 GMT-0400 (Eastern Daylight Time)","630556","Untrustworthy,Trustworthy","","3454","","","","rating","","trustrating_stim/white_mw060.bmp","4","","","","","","","","","","",""
"image-keyboard-response","6","36476","0.0-6.0-2.0","5fcecd70db3ccb1a7f9331c9","bdp_trlrn","Mon Mar 13 2023 13:54:30 GMT-0400 (Eastern Daylight Time)","630556","Untrustworthy,Trustworthy","","null","","","","ratingFB","","trustrating_stim/white_mw060.bmp","null","","","","","","","","","","",""
"image-keyboard-response","7","37755","0.0-6.0-1.1","5fcecd70db3ccb1a7f9331c9","bdp_trlrn","Mon Mar 13 2023 13:54:30 GMT-0400 (Eastern Daylight Time)","630556","Untrustworthy,Trustworthy","","1173","","","","rating","","trustrating_stim/white_mw099.bmp","2","","","","","","","","","","",""
"image-keyboard-response","8","37964","0.0-6.0-2.1","5fcecd70db3ccb1a7f9331c9","bdp_trlrn","Mon Mar 13 2023 13:54:30 GMT-0400 (Eastern Daylight Time)","630556","Untrustworthy,Trustworthy","","null","","","","ratingFB","","trustrating_stim/white_mw099.bmp","null","","","","","","","","","","",""
"image-keyboard-response","9","39133","0.0-6.0-1.2","5fcecd70db3ccb1a7f9331c9","bdp_trlrn","Mon Mar 13 2023 13:54:30 GMT-0400 (Eastern Daylight Time)","630556","Untrustworthy,Trustworthy","","1064","","","","rating","","trustrating_stim/white_mw066.bmp","2","","","","","","","","","","",""
"image-keyboard-response","10","39340","0.0-6.0-2.2","5fcecd70db3ccb1a7f9331c9","bdp_trlrn","Mon Mar 13 2023 13:54:30 GMT-0400 (Eastern Daylight Time)","630556","Untrustworthy,Trustworthy","","null","","","","ratingFB","","trustrating_stim/white_mw066.bmp","null","","","","","","","","","","",""
"image-keyboard-response","11","40604","0.0-6.0-1.3","5fcecd70db3ccb1a7f9331c9","bdp_trlrn","Mon Mar 13 2023 13:54:30 GMT-0400 (Eastern Daylight Time)","630556","Untrustworthy,Trustworthy","","1158","","","","rating","","trustrating_stim/white_00577_940928_fa_edt.bmp","2","","","","","","","","","","",""
"image-keyboard-response","12","40812","0.0-6.0-2.3","5fcecd70db3ccb1a7f9331c9","bdp_trlrn","Mon Mar 13 2023 13:54:30 GMT-0400 (Eastern Daylight Time)","630556","Untrustworthy,Trustworthy","","null","","","","ratingFB","","trustrating_stim/white_00577_940928_fa_edt.bmp","null","","","","","","","","","","",""
"image-keyboard-response","13","42346","0.0-6.0-1.4","5fcecd70db3ccb1a7f9331c9","bdp_trlrn","Mon Mar 13 2023 13:54:30 GMT-0400 (Eastern Daylight Time)","630556","Untrustworthy,Trustworthy","","1428","","","","rating","","trustrating_stim/white_00761_941201_fb_edt.bmp","4","","","","","","","","","","",""
"image-keyboard-response","14","42549","0.0-6.0-2.4","5fcecd70db3ccb1a7f9331c9","bdp_trlrn","Mon Mar 13 2023 13:54:30 GMT-0400 (Eastern Daylight Time)","630556","Untrustworthy,Trustworthy","","null","","","","ratingFB","","trustrating_stim/white_00761_941201_fb_edt.bmp","null","","","","","","","","","","",""
"image-keyboard-response","15","43820","0.0-6.0-1.5","5fcecd70db3ccb1a7f9331c9","bdp_trlrn","Mon Mar 13 2023 13:54:30 GMT-0400 (Eastern Daylight Time)","630556","Untrustworthy,Trustworthy","","1168","","","","rating","","trustrating_stim/white_mw063.bmp","3","","","","","","","","","","",""
"image-keyboard-response","16","44028","0.0-6.0-2.5","5fcecd70db3ccb1a7f9331c9","bdp_trlrn","Mon Mar 13 2023 13:54:30 GMT-0400 (Eastern Daylight Time)","630556","Untrustworthy,Trustworthy","","null","","","","ratingFB","","trustrating_stim/white_mw063.bmp","null","","","","","","","","","","",""
"image-keyboard-response","17","45624","0.0-6.0-1.6","5fcecd70db3ccb1a7f9331c9","bdp_trlrn","Mon Mar 13 2023 13:54:30 GMT-0400 (Eastern Daylight Time)","630556","Untrustworthy,Trustworthy","","1490","","","","rating","","trustrating_stim/white_mw056.bmp","6","","","","","","","","","","",""
"image-keyboard-response","18","45829","0.0-6.0-2.6","5fcecd70db3ccb1a7f9331c9","bdp_trlrn","Mon Mar 13 2023 13:54:30 GMT-0400 (Eastern Daylight Time)","630556","Untrustworthy,Trustworthy","","null","","","","ratingFB","","trustrating_stim/white_mw056.bmp","null","","","","","","","","","","",""
"image-keyboard-response","19","47362","0.0-6.0-1.7","5fcecd70db3ccb1a7f9331c9","bdp_trlrn","Mon Mar 13 2023 13:54:30 GMT-0400 (Eastern Daylight Time)","630556","Untrustworthy,Trustworthy","","1430","","","","rating","","trustrating_stim/white_00785_941205_fb_edt.bmp","2","","","","","","","","","","",""
"image-keyboard-response","20","47564","0.0-6.0-2.7","5fcecd70db3ccb1a7f9331c9","bdp_trlrn","Mon Mar 13 2023 13:54:30 GMT-0400 (Eastern Daylight Time)","630556","Untrustworthy,Trustworthy","","null","","","","ratingFB","","trustrating_stim/white_00785_941205_fb_edt.bmp","null","","","","","","","","","","",""
"image-keyboard-response","21","48829","0.0-6.0-1.8","5fcecd70db3ccb1a7f9331c9","bdp_trlrn","Mon Mar 13 2023 13:54:30 GMT-0400 (Eastern Daylight Time)","630556","Untrustworthy,Trustworthy","","1160","","","","rating","","trustrating_stim/white_mw084.bmp","2","","","","","","","","","","",""
"image-keyboard-response","22","49036","0.0-6.0-2.8","5fcecd70db3ccb1a7f9331c9","bdp_trlrn","Mon Mar 13 2023 13:54:30 GMT-0400 (Eastern Daylight Time)","630556","Untrustworthy,Trustworthy","","null","","","","ratingFB","","trustrating_stim/white_mw084.bmp","null","","","","","","","","","","",""
"image-keyboard-response","23","52219","0.0-6.0-1.9","5fcecd70db3ccb1a7f9331c9","bdp_trlrn","Mon Mar 13 2023 13:54:30 GMT-0400 (Eastern Daylight Time)","630556","Untrustworthy,Trustworthy","","3078","","","","rating","","trustrating_stim/white_00659_941121_fa_edt.bmp","3","","","","","","","","","","",""
"image-keyboard-response","24","52429","0.0-6.0-2.9","5fcecd70db3ccb1a7f9331c9","bdp_trlrn","Mon Mar 13 2023 13:54:30 GMT-0400 (Eastern Daylight Time)","630556","Untrustworthy,Trustworthy","","null","","","","ratingFB","","trustrating_stim/white_00659_941121_fa_edt.bmp","null","","","","","","","","","","",""
"image-keyboard-response","25","55027","0.0-6.0-1.10","5fcecd70db3ccb1a7f9331c9","bdp_trlrn","Mon Mar 13 2023 13:54:30 GMT-0400 (Eastern Daylight Time)","630556","Untrustworthy,Trustworthy","","2494","","","","rating","","trustrating_stim/white_00129_931230_fb_edt.bmp","5","","","","","","","","","","",""
"image-keyboard-response","26","55237","0.0-6.0-2.10","5fcecd70db3ccb1a7f9331c9","bdp_trlrn","Mon Mar 13 2023 13:54:30 GMT-0400 (Eastern Daylight Time)","630556","Untrustworthy,Trustworthy","","null","","","","ratingFB","","trustrating_stim/white_00129_931230_fb_edt.bmp","null","","","","","","","","","","",""
"image-keyboard-response","27","57143","0.0-6.0-1.11","5fcecd70db3ccb1a7f9331c9","bdp_trlrn","Mon Mar 13 2023 13:54:30 GMT-0400 (Eastern Daylight Time)","630556","Untrustworthy,Trustworthy","","1803","","","","rating","","trustrating_stim/white_00519_940519_fb_edt.bmp","3","","","","","","","","","","",""
"image-keyboard-response","28","57348","0.0-6.0-2.11","5fcecd70db3ccb1a7f9331c9","bdp_trlrn","Mon Mar 13 2023 13:54:30 GMT-0400 (Eastern Daylight Time)","630556","Untrustworthy,Trustworthy","","null","","","","ratingFB","","trustrating_stim/white_00519_940519_fb_edt.bmp","null","","","","","","","","","","",""
"image-keyboard-response","29","58816","0.0-6.0-1.12","5fcecd70db3ccb1a7f9331c9","bdp_trlrn","Mon Mar 13 2023 13:54:30 GMT-0400 (Eastern Daylight Time)","630556","Untrustworthy,Trustworthy","","1364","","","","rating","","trustrating_stim/white_00120_931230_fa_edt.bmp","7","","","","","","","","","","",""
"image-keyboard-response","30","59020","0.0-6.0-2.12","5fcecd70db3ccb1a7f9331c9","bdp_trlrn","Mon Mar 13 2023 13:54:30 GMT-0400 (Eastern Daylight Time)","630556","Untrustworthy,Trustworthy","","null","","","","ratingFB","","trustrating_stim/white_00120_931230_fa_edt.bmp","null","","","","","","","","","","",""
"image-keyboard-response","31","61117","0.0-6.0-1.13","5fcecd70db3ccb1a7f9331c9","bdp_trlrn","Mon Mar 13 2023 13:54:30 GMT-0400 (Eastern Daylight Time)","630556","Untrustworthy,Trustworthy","","1992","","","","rating","","trustrating_stim/white_00807_941205_fb_edt.bmp","4","","","","","","","","","","",""
"image-keyboard-response","32","61324","0.0-6.0-2.13","5fcecd70db3ccb1a7f9331c9","bdp_trlrn","Mon Mar 13 2023 13:54:30 GMT-0400 (Eastern Daylight Time)","630556","Untrustworthy,Trustworthy","","null","","","","ratingFB","","trustrating_stim/white_00807_941205_fb_edt.bmp","null","","","","","","","","","","",""
"image-keyboard-response","33","62568","0.0-6.0-1.14","5fcecd70db3ccb1a7f9331c9","bdp_trlrn","Mon Mar 13 2023 13:54:30 GMT-0400 (Eastern Daylight Time)","630556","Untrustworthy,Trustworthy","","1139","","","","rating","","trustrating_stim/white_mw046.bmp","2","","","","","","","","","","",""
"image-keyboard-response","34","62772","0.0-6.0-2.14","5fcecd70db3ccb1a7f9331c9","bdp_trlrn","Mon Mar 13 2023 13:54:30 GMT-0400 (Eastern Daylight Time)","630556","Untrustworthy,Trustworthy","","null","","","","ratingFB","","trustrating_stim/white_mw046.bmp","null","","","","","","","","","","",""
"image-keyboard-response","35","63821","0.0-6.0-1.15","5fcecd70db3ccb1a7f9331c9","bdp_trlrn","Mon Mar 13 2023 13:54:30 GMT-0400 (Eastern Daylight Time)","630556","Untrustworthy,Trustworthy","","944","","","","rating","","trustrating_stim/white_00757_941201_fa_edt.bmp","2","","","","","","","","","","",""
"image-keyboard-response","36","64028","0.0-6.0-2.15","5fcecd70db3ccb1a7f9331c9","bdp_trlrn","Mon Mar 13 2023 13:54:30 GMT-0400 (Eastern Daylight Time)","630556","Untrustworthy,Trustworthy","","null","","","","ratingFB","","trustrating_stim/white_00757_941201_fa_edt.bmp","null","","","","","","","","","","",""
"image-keyboard-response","37","66437","0.0-6.0-1.16","5fcecd70db3ccb1a7f9331c9","bdp_trlrn","Mon Mar 13 2023 13:54:30 GMT-0400 (Eastern Daylight Time)","630556","Untrustworthy,Trustworthy","","2304","","","","rating","","trustrating_stim/white_mw049.bmp","7","","","","","","","","","","",""
"image-keyboard-response","38","66644","0.0-6.0-2.16","5fcecd70db3ccb1a7f9331c9","bdp_trlrn","Mon Mar 13 2023 13:54:30 GMT-0400 (Eastern Daylight Time)","630556","Untrustworthy,Trustworthy","","null","","","","ratingFB","","trustrating_stim/white_mw049.bmp","null","","","","","","","","","","",""
"image-keyboard-response","39","68158","0.0-6.0-1.17","5fcecd70db3ccb1a7f9331c9","bdp_trlrn","Mon Mar 13 2023 13:54:30 GMT-0400 (Eastern Daylight Time)","630556","Untrustworthy,Trustworthy","","1408","","","","rating","","trustrating_stim/white_mw035.bmp","3","","","","","","","","","","",""
"image-keyboard-response","40","68363","0.0-6.0-2.17","5fcecd70db3ccb1a7f9331c9","bdp_trlrn","Mon Mar 13 2023 13:54:30 GMT-0400 (Eastern Daylight Time)","630556","Untrustworthy,Trustworthy","","null","","","","ratingFB","","trustrating_stim/white_mw035.bmp","null","","","","","","","","","","",""
"image-keyboard-response","41","70473","0.0-6.0-1.18","5fcecd70db3ccb1a7f9331c9","bdp_trlrn","Mon Mar 13 2023 13:54:30 GMT-0400 (Eastern Daylight Time)","630556","Untrustworthy,Trustworthy","","2005","","","","rating","","trustrating_stim/white_mw053.bmp","3","","","","","","","","","","",""
"image-keyboard-response","42","70676","0.0-6.0-2.18","5fcecd70db3ccb1a7f9331c9","bdp_trlrn","Mon Mar 13 2023 13:54:30 GMT-0400 (Eastern Daylight Time)","630556","Untrustworthy,Trustworthy","","null","","","","ratingFB","","trustrating_stim/white_mw053.bmp","null","","","","","","","","","","",""
"image-keyboard-response","43","72004","0.0-6.0-1.19","5fcecd70db3ccb1a7f9331c9","bdp_trlrn","Mon Mar 13 2023 13:54:30 GMT-0400 (Eastern Daylight Time)","630556","Untrustworthy,Trustworthy","","1222","","","","rating","","trustrating_stim/white_mw097.bmp","2","","","","","","","","","","",""
"image-keyboard-response","44","72212","0.0-6.0-2.19","5fcecd70db3ccb1a7f9331c9","bdp_trlrn","Mon Mar 13 2023 13:54:30 GMT-0400 (Eastern Daylight Time)","630556","Untrustworthy,Trustworthy","","null","","","","ratingFB","","trustrating_stim/white_mw097.bmp","null","","","","","","","","","","",""
"image-keyboard-response","45","73433","0.0-6.0-1.20","5fcecd70db3ccb1a7f9331c9","bdp_trlrn","Mon Mar 13 2023 13:54:30 GMT-0400 (Eastern Daylight Time)","630556","Untrustworthy,Trustworthy","","1117","","","","rating","","trustrating_stim/white_00299_940422_fa_edt.bmp","2","","","","","","","","","","",""
"image-keyboard-response","46","73637","0.0-6.0-2.20","5fcecd70db3ccb1a7f9331c9","bdp_trlrn","Mon Mar 13 2023 13:54:30 GMT-0400 (Eastern Daylight Time)","630556","Untrustworthy,Trustworthy","","null","","","","ratingFB","","trustrating_stim/white_00299_940422_fa_edt.bmp","null","","","","","","","","","","",""
"image-keyboard-response","47","75078","0.0-6.0-1.21","5fcecd70db3ccb1a7f9331c9","bdp_trlrn","Mon Mar 13 2023 13:54:30 GMT-0400 (Eastern Daylight Time)","630556","Untrustworthy,Trustworthy","","1338","","","","rating","","trustrating_stim/white_mw089.bmp","2","","","","","","","","","","",""
"image-keyboard-response","48","75284","0.0-6.0-2.21","5fcecd70db3ccb1a7f9331c9","bdp_trlrn","Mon Mar 13 2023 13:54:30 GMT-0400 (Eastern Daylight Time)","630556","Untrustworthy,Trustworthy","","null","","","","ratingFB","","trustrating_stim/white_mw089.bmp","null","","","","","","","","","","",""
"image-keyboard-response","49","76597","0.0-6.0-1.22","5fcecd70db3ccb1a7f9331c9","bdp_trlrn","Mon Mar 13 2023 13:54:30 GMT-0400 (Eastern Daylight Time)","630556","Untrustworthy,Trustworthy","","1208","","","","rating","","trustrating_stim/white_mw033.bmp","2","","","","","","","","","","",""
"image-keyboard-response","50","76805","0.0-6.0-2.22","5fcecd70db3ccb1a7f9331c9","bdp_trlrn","Mon Mar 13 2023 13:54:30 GMT-0400 (Eastern Daylight Time)","630556","Untrustworthy,Trustworthy","","null","","","","ratingFB","","trustrating_stim/white_mw033.bmp","null","","","","","","","","","","",""
"image-keyboard-response","51","78411","0.0-6.0-1.23","5fcecd70db3ccb1a7f9331c9","bdp_trlrn","Mon Mar 13 2023 13:54:30 GMT-0400 (Eastern Daylight Time)","630556","Untrustworthy,Trustworthy","","1502","","","","rating","","trustrating_stim/white_mw048.bmp","2","","","","","","","","","","",""
"image-keyboard-response","52","78621","0.0-6.0-2.23","5fcecd70db3ccb1a7f9331c9","bdp_trlrn","Mon Mar 13 2023 13:54:30 GMT-0400 (Eastern Daylight Time)","630556","Untrustworthy,Trustworthy","","null","","","","ratingFB","","trustrating_stim/white_mw048.bmp","null","","","","","","","","","","",""
"image-keyboard-response","53","80042","0.0-6.0-1.24","5fcecd70db3ccb1a7f9331c9","bdp_trlrn","Mon Mar 13 2023 13:54:30 GMT-0400 (Eastern Daylight Time)","630556","Untrustworthy,Trustworthy","","1318","","","","rating","","trustrating_stim/white_mw071.bmp","2","","","","","","","","","","",""
"image-keyboard-response","54","80250","0.0-6.0-2.24","5fcecd70db3ccb1a7f9331c9","bdp_trlrn","Mon Mar 13 2023 13:54:30 GMT-0400 (Eastern Daylight Time)","630556","Untrustworthy,Trustworthy","","null","","","","ratingFB","","trustrating_stim/white_mw071.bmp","null","","","","","","","","","","",""
"image-keyboard-response","55","81448","0.0-6.0-1.25","5fcecd70db3ccb1a7f9331c9","bdp_trlrn","Mon Mar 13 2023 13:54:30 GMT-0400 (Eastern Daylight Time)","630556","Untrustworthy,Trustworthy","","1090","","","","rating","","trustrating_stim/white_00223_940128_fb_edt.bmp","2","","","","","","","","","","",""
"image-keyboard-response","56","81652","0.0-6.0-2.25","5fcecd70db3ccb1a7f9331c9","bdp_trlrn","Mon Mar 13 2023 13:54:30 GMT-0400 (Eastern Daylight Time)","630556","Untrustworthy,Trustworthy","","null","","","","ratingFB","","trustrating_stim/white_00223_940128_fb_edt.bmp","null","","","","","","","","","","",""
"image-keyboard-response","57","84928","0.0-6.0-1.26","5fcecd70db3ccb1a7f9331c9","bdp_trlrn","Mon Mar 13 2023 13:54:30 GMT-0400 (Eastern Daylight Time)","630556","Untrustworthy,Trustworthy","","3172","","","","rating","","trustrating_stim/white_00602_940928_fb_edt.bmp","4","","","","","","","","","","",""
"image-keyboard-response","58","85133","0.0-6.0-2.26","5fcecd70db3ccb1a7f9331c9","bdp_trlrn","Mon Mar 13 2023 13:54:30 GMT-0400 (Eastern Daylight Time)","630556","Untrustworthy,Trustworthy","","null","","","","ratingFB","","trustrating_stim/white_00602_940928_fb_edt.bmp","null","","","","","","","","","","",""
"image-keyboard-response","59","88215","0.0-6.0-1.27","5fcecd70db3ccb1a7f9331c9","bdp_trlrn","Mon Mar 13 2023 13:54:30 GMT-0400 (Eastern Daylight Time)","630556","Untrustworthy,Trustworthy","","2979","","","","rating","","trustrating_stim/white_00898_960530_fa_edt.bmp","7","","","","","","","","","","",""
"image-keyboard-response","60","88421","0.0-6.0-2.27","5fcecd70db3ccb1a7f9331c9","bdp_trlrn","Mon Mar 13 2023 13:54:30 GMT-0400 (Eastern Daylight Time)","630556","Untrustworthy,Trustworthy","","null","","","","ratingFB","","trustrating_stim/white_00898_960530_fa_edt.bmp","null","","","","","","","","","","",""
"image-keyboard-response","61","90032","0.0-6.0-1.28","5fcecd70db3ccb1a7f9331c9","bdp_trlrn","Mon Mar 13 2023 13:54:30 GMT-0400 (Eastern Daylight Time)","630556","Untrustworthy,Trustworthy","","1507","","","","rating","","trustrating_stim/white_00340_940422_fa_edt.bmp","5","","","","","","","","","","",""
"image-keyboard-response","62","90236","0.0-6.0-2.28","5fcecd70db3ccb1a7f9331c9","bdp_trlrn","Mon Mar 13 2023 13:54:30 GMT-0400 (Eastern Daylight Time)","630556","Untrustworthy,Trustworthy","","null","","","","ratingFB","","trustrating_stim/white_00340_940422_fa_edt.bmp","null","","","","","","","","","","",""
"image-keyboard-response","63","91709","0.0-6.0-1.29","5fcecd70db3ccb1a7f9331c9","bdp_trlrn","Mon Mar 13 2023 13:54:30 GMT-0400 (Eastern Daylight Time)","630556","Untrustworthy,Trustworthy","","1369","","","","rating","","trustrating_stim/white_00109_931230_fa_edt.bmp","5","","","","","","","","","","",""
"image-keyboard-response","64","91916","0.0-6.0-2.29","5fcecd70db3ccb1a7f9331c9","bdp_trlrn","Mon Mar 13 2023 13:54:30 GMT-0400 (Eastern Daylight Time)","630556","Untrustworthy,Trustworthy","","null","","","","ratingFB","","trustrating_stim/white_00109_931230_fa_edt.bmp","null","","","","","","","","","","",""
"image-keyboard-response","65","93070","0.0-6.0-1.30","5fcecd70db3ccb1a7f9331c9","bdp_trlrn","Mon Mar 13 2023 13:54:30 GMT-0400 (Eastern Daylight Time)","630556","Untrustworthy,Trustworthy","","1050","","","","rating","","trustrating_stim/white_mw066.bmp","2","","","","","","","","","","",""
"image-keyboard-response","66","93277","0.0-6.0-2.30","5fcecd70db3ccb1a7f9331c9","bdp_trlrn","Mon Mar 13 2023 13:54:30 GMT-0400 (Eastern Daylight Time)","630556","Untrustworthy,Trustworthy","","null","","","","ratingFB","","trustrating_stim/white_mw066.bmp","null","","","","","","","","","","",""
"image-keyboard-response","67","94912","0.0-6.0-1.31","5fcecd70db3ccb1a7f9331c9","bdp_trlrn","Mon Mar 13 2023 13:54:30 GMT-0400 (Eastern Daylight Time)","630556","Untrustworthy,Trustworthy","","1532","","","","rating","","trustrating_stim/white_mw035.bmp","2","","","","","","","","","","",""
"image-keyboard-response","68","95116","0.0-6.0-2.31","5fcecd70db3ccb1a7f9331c9","bdp_trlrn","Mon Mar 13 2023 13:54:30 GMT-0400 (Eastern Daylight Time)","630556","Untrustworthy,Trustworthy","","null","","","","ratingFB","","trustrating_stim/white_mw035.bmp","null","","","","","","","","","","",""
"image-keyboard-response","69","96660","0.0-6.0-1.32","5fcecd70db3ccb1a7f9331c9","bdp_trlrn","Mon Mar 13 2023 13:54:30 GMT-0400 (Eastern Daylight Time)","630556","Untrustworthy,Trustworthy","","1440","","","","rating","","trustrating_stim/white_00340_940422_fa_edt.bmp","2","","","","","","","","","","",""
"image-keyboard-response","70","96868","0.0-6.0-2.32","5fcecd70db3ccb1a7f9331c9","bdp_trlrn","Mon Mar 13 2023 13:54:30 GMT-0400 (Eastern Daylight Time)","630556","Untrustworthy,Trustworthy","","null","","","","ratingFB","","trustrating_stim/white_00340_940422_fa_edt.bmp","null","","","","","","","","","","",""
"image-keyboard-response","71","97963","0.0-6.0-1.33","5fcecd70db3ccb1a7f9331c9","bdp_trlrn","Mon Mar 13 2023 13:54:30 GMT-0400 (Eastern Daylight Time)","630556","Untrustworthy,Trustworthy","","991","","","","rating","","trustrating_stim/white_00757_941201_fa_edt.bmp","2","","","","","","","","","","",""
"image-keyboard-response","72","98171","0.0-6.0-2.33","5fcecd70db3ccb1a7f9331c9","bdp_trlrn","Mon Mar 13 2023 13:54:30 GMT-0400 (Eastern Daylight Time)","630556","Untrustworthy,Trustworthy","","null","","","","ratingFB","","trustrating_stim/white_00757_941201_fa_edt.bmp","null","","","","","","","","","","",""
"image-keyboard-response","73","101803","0.0-6.0-1.34","5fcecd70db3ccb1a7f9331c9","bdp_trlrn","Mon Mar 13 2023 13:54:30 GMT-0400 (Eastern Daylight Time)","630556","Untrustworthy,Trustworthy","","3526","","","","rating","","trustrating_stim/white_00602_940928_fb_edt.bmp","5","","","","","","","","","","",""
"image-keyboard-response","74","102012","0.0-6.0-2.34","5fcecd70db3ccb1a7f9331c9","bdp_trlrn","Mon Mar 13 2023 13:54:30 GMT-0400 (Eastern Daylight Time)","630556","Untrustworthy,Trustworthy","","null","","","","ratingFB","","trustrating_stim/white_00602_940928_fb_edt.bmp","null","","","","","","","","","","",""
"image-keyboard-response","75","103003","0.0-6.0-1.35","5fcecd70db3ccb1a7f9331c9","bdp_trlrn","Mon Mar 13 2023 13:54:30 GMT-0400 (Eastern Daylight Time)","630556","Untrustworthy,Trustworthy","","886","","","","rating","","trustrating_stim/white_mw071.bmp","2","","","","","","","","","","",""
"image-keyboard-response","76","103211","0.0-6.0-2.35","5fcecd70db3ccb1a7f9331c9","bdp_trlrn","Mon Mar 13 2023 13:54:30 GMT-0400 (Eastern Daylight Time)","630556","Untrustworthy,Trustworthy","","null","","","","ratingFB","","trustrating_stim/white_mw071.bmp","null","","","","","","","","","","",""
"image-keyboard-response","77","105791","0.0-6.0-1.36","5fcecd70db3ccb1a7f9331c9","bdp_trlrn","Mon Mar 13 2023 13:54:30 GMT-0400 (Eastern Daylight Time)","630556","Untrustworthy,Trustworthy","","2475","","","","rating","","trustrating_stim/white_mw049.bmp","2","","","","","","","","","","",""
"image-keyboard-response","78","105996","0.0-6.0-2.36","5fcecd70db3ccb1a7f9331c9","bdp_trlrn","Mon Mar 13 2023 13:54:30 GMT-0400 (Eastern Daylight Time)","630556","Untrustworthy,Trustworthy","","null","","","","ratingFB","","trustrating_stim/white_mw049.bmp","null","","","","","","","","","","",""
"image-keyboard-response","79","107355","0.0-6.0-1.37","5fcecd70db3ccb1a7f9331c9","bdp_trlrn","Mon Mar 13 2023 13:54:30 GMT-0400 (Eastern Daylight Time)","630556","Untrustworthy,Trustworthy","","1254","","","","rating","","trustrating_stim/white_00807_941205_fb_edt.bmp","2","","","","","","","","","","",""
"image-keyboard-response","80","107565","0.0-6.0-2.37","5fcecd70db3ccb1a7f9331c9","bdp_trlrn","Mon Mar 13 2023 13:54:30 GMT-0400 (Eastern Daylight Time)","630556","Untrustworthy,Trustworthy","","null","","","","ratingFB","","trustrating_stim/white_00807_941205_fb_edt.bmp","null","","","","","","","","","","",""
"image-keyboard-response","81","110200","0.0-6.0-1.38","5fcecd70db3ccb1a7f9331c9","bdp_trlrn","Mon Mar 13 2023 13:54:30 GMT-0400 (Eastern Daylight Time)","630556","Untrustworthy,Trustworthy","","2532","","","","rating","","trustrating_stim/white_mw048.bmp","2","","","","","","","","","","",""
"image-keyboard-response","82","110404","0.0-6.0-2.38","5fcecd70db3ccb1a7f9331c9","bdp_trlrn","Mon Mar 13 2023 13:54:30 GMT-0400 (Eastern Daylight Time)","630556","Untrustworthy,Trustworthy","","null","","","","ratingFB","","trustrating_stim/white_mw048.bmp","null","","","","","","","","","","",""
"image-keyboard-response","83","112175","0.0-6.0-1.39","5fcecd70db3ccb1a7f9331c9","bdp_trlrn","Mon Mar 13 2023 13:54:30 GMT-0400 (Eastern Daylight Time)","630556","Untrustworthy,Trustworthy","","1666","","","","rating","","trustrating_stim/white_00299_940422_fa_edt.bmp","2","","","","","","","","","","",""
"image-keyboard-response","84","112380","0.0-6.0-2.39","5fcecd70db3ccb1a7f9331c9","bdp_trlrn","Mon Mar 13 2023 13:54:30 GMT-0400 (Eastern Daylight Time)","630556","Untrustworthy,Trustworthy","","null","","","","ratingFB","","trustrating_stim/white_00299_940422_fa_edt.bmp","null","","","","","","","","","","",""
"image-keyboard-response","85","114178","0.0-6.0-1.40","5fcecd70db3ccb1a7f9331c9","bdp_trlrn","Mon Mar 13 2023 13:54:30 GMT-0400 (Eastern Daylight Time)","630556","Untrustworthy,Trustworthy","","1694","","","","rating","","trustrating_stim/white_mw060.bmp","3","","","","","","","","","","",""
"image-keyboard-response","86","114380","0.0-6.0-2.40","5fcecd70db3ccb1a7f9331c9","bdp_trlrn","Mon Mar 13 2023 13:54:30 GMT-0400 (Eastern Daylight Time)","630556","Untrustworthy,Trustworthy","","null","","","","ratingFB","","trustrating_stim/white_mw060.bmp","null","","","","","","","","","","",""
"image-keyboard-response","87","120839","0.0-6.0-1.41","5fcecd70db3ccb1a7f9331c9","bdp_trlrn","Mon Mar 13 2023 13:54:30 GMT-0400 (Eastern Daylight Time)","630556","Untrustworthy,Trustworthy","","6355","","","","rating","","trustrating_stim/white_00129_931230_fb_edt.bmp","5","","","","","","","","","","",""
"image-keyboard-response","88","121044","0.0-6.0-2.41","5fcecd70db3ccb1a7f9331c9","bdp_trlrn","Mon Mar 13 2023 13:54:30 GMT-0400 (Eastern Daylight Time)","630556","Untrustworthy,Trustworthy","","null","","","","ratingFB","","trustrating_stim/white_00129_931230_fb_edt.bmp","null","","","","","","","","","","",""
"image-keyboard-response","89","124045","0.0-6.0-1.42","5fcecd70db3ccb1a7f9331c9","bdp_trlrn","Mon Mar 13 2023 13:54:30 GMT-0400 (Eastern Daylight Time)","630556","Untrustworthy,Trustworthy","","2897","","","","rating","","trustrating_stim/white_mw053.bmp","5","","","","","","","","","","",""
"image-keyboard-response","90","124252","0.0-6.0-2.42","5fcecd70db3ccb1a7f9331c9","bdp_trlrn","Mon Mar 13 2023 13:54:30 GMT-0400 (Eastern Daylight Time)","630556","Untrustworthy,Trustworthy","","null","","","","ratingFB","","trustrating_stim/white_mw053.bmp","null","","","","","","","","","","",""
"image-keyboard-response","91","125466","0.0-6.0-1.43","5fcecd70db3ccb1a7f9331c9","bdp_trlrn","Mon Mar 13 2023 13:54:30 GMT-0400 (Eastern Daylight Time)","630556","Untrustworthy,Trustworthy","","1109","","","","rating","","trustrating_stim/white_00785_941205_fb_edt.bmp","1","","","","","","","","","","",""
"image-keyboard-response","92","125668","0.0-6.0-2.43","5fcecd70db3ccb1a7f9331c9","bdp_trlrn","Mon Mar 13 2023 13:54:30 GMT-0400 (Eastern Daylight Time)","630556","Untrustworthy,Trustworthy","","null","","","","ratingFB","","trustrating_stim/white_00785_941205_fb_edt.bmp","null","","","","","","","","","","",""
"image-keyboard-response","93","130740","0.0-6.0-1.44","5fcecd70db3ccb1a7f9331c9","bdp_trlrn","Mon Mar 13 2023 13:54:30 GMT-0400 (Eastern Daylight Time)","630556","Untrustworthy,Trustworthy","","4968","","","","rating","","trustrating_stim/white_mw099.bmp","3","","","","","","","","","","",""
"image-keyboard-response","94","130948","0.0-6.0-2.44","5fcecd70db3ccb1a7f9331c9","bdp_trlrn","Mon Mar 13 2023 13:54:30 GMT-0400 (Eastern Daylight Time)","630556","Untrustworthy,Trustworthy","","null","","","","ratingFB","","trustrating_stim/white_mw099.bmp","null","","","","","","","","","","",""
"image-keyboard-response","95","132998","0.0-6.0-1.45","5fcecd70db3ccb1a7f9331c9","bdp_trlrn","Mon Mar 13 2023 13:54:30 GMT-0400 (Eastern Daylight Time)","630556","Untrustworthy,Trustworthy","","1944","","","","rating","","trustrating_stim/white_00120_931230_fa_edt.bmp","7","","","","","","","","","","",""
"image-keyboard-response","96","133204","0.0-6.0-2.45","5fcecd70db3ccb1a7f9331c9","bdp_trlrn","Mon Mar 13 2023 13:54:30 GMT-0400 (Eastern Daylight Time)","630556","Untrustworthy,Trustworthy","","null","","","","ratingFB","","trustrating_stim/white_00120_931230_fa_edt.bmp","null","","","","","","","","","","",""
"image-keyboard-response","97","134454","0.0-6.0-1.46","5fcecd70db3ccb1a7f9331c9","bdp_trlrn","Mon Mar 13 2023 13:54:30 GMT-0400 (Eastern Daylight Time)","630556","Untrustworthy,Trustworthy","","1147","","","","rating","","trustrating_stim/white_mw063.bmp","3","","","","","","","","","","",""
"image-keyboard-response","98","134660","0.0-6.0-2.46","5fcecd70db3ccb1a7f9331c9","bdp_trlrn","Mon Mar 13 2023 13:54:30 GMT-0400 (Eastern Daylight Time)","630556","Untrustworthy,Trustworthy","","null","","","","ratingFB","","trustrating_stim/white_mw063.bmp","null","","","","","","","","","","",""
"image-keyboard-response","99","136452","0.0-6.0-1.47","5fcecd70db3ccb1a7f9331c9","bdp_trlrn","Mon Mar 13 2023 13:54:30 GMT-0400 (Eastern Daylight Time)","630556","Untrustworthy,Trustworthy","","1686","","","","rating","","trustrating_stim/white_mw056.bmp","6","","","","","","","","","","",""
"image-keyboard-response","100","136660","0.0-6.0-2.47","5fcecd70db3ccb1a7f9331c9","bdp_trlrn","Mon Mar 13 2023 13:54:30 GMT-0400 (Eastern Daylight Time)","630556","Untrustworthy,Trustworthy","","null","","","","ratingFB","","trustrating_stim/white_mw056.bmp","null","","","","","","","","","","",""
"image-keyboard-response","101","137868","0.0-6.0-1.48","5fcecd70db3ccb1a7f9331c9","bdp_trlrn","Mon Mar 13 2023 13:54:30 GMT-0400 (Eastern Daylight Time)","630556","Untrustworthy,Trustworthy","","1104","","","","rating","","trustrating_stim/white_00223_940128_fb_edt.bmp","2","","","","","","","","","","",""
"image-keyboard-response","102","138076","0.0-6.0-2.48","5fcecd70db3ccb1a7f9331c9","bdp_trlrn","Mon Mar 13 2023 13:54:30 GMT-0400 (Eastern Daylight Time)","630556","Untrustworthy,Trustworthy","","null","","","","ratingFB","","trustrating_stim/white_00223_940128_fb_edt.bmp","null","","","","","","","","","","",""
"image-keyboard-response","103","139395","0.0-6.0-1.49","5fcecd70db3ccb1a7f9331c9","bdp_trlrn","Mon Mar 13 2023 13:54:30 GMT-0400 (Eastern Daylight Time)","630556","Untrustworthy,Trustworthy","","1215","","","","rating","","trustrating_stim/white_mw097.bmp","1","","","","","","","","","","",""
"image-keyboard-response","104","139605","0.0-6.0-2.49","5fcecd70db3ccb1a7f9331c9","bdp_trlrn","Mon Mar 13 2023 13:54:30 GMT-0400 (Eastern Daylight Time)","630556","Untrustworthy,Trustworthy","","null","","","","ratingFB","","trustrating_stim/white_mw097.bmp","null","","","","","","","","","","",""
"image-keyboard-response","105","144806","0.0-6.0-1.50","5fcecd70db3ccb1a7f9331c9","bdp_trlrn","Mon Mar 13 2023 13:54:30 GMT-0400 (Eastern Daylight Time)","630556","Untrustworthy,Trustworthy","","5097","","","","rating","","trustrating_stim/white_mw084.bmp","2","","","","","","","","","","",""
"image-keyboard-response","106","145012","0.0-6.0-2.50","5fcecd70db3ccb1a7f9331c9","bdp_trlrn","Mon Mar 13 2023 13:54:30 GMT-0400 (Eastern Daylight Time)","630556","Untrustworthy,Trustworthy","","null","","","","ratingFB","","trustrating_stim/white_mw084.bmp","null","","","","","","","","","","",""
"image-keyboard-response","107","146198","0.0-6.0-1.51","5fcecd70db3ccb1a7f9331c9","bdp_trlrn","Mon Mar 13 2023 13:54:30 GMT-0400 (Eastern Daylight Time)","630556","Untrustworthy,Trustworthy","","1082","","","","rating","","trustrating_stim/white_00519_940519_fb_edt.bmp","1","","","","","","","","","","",""
"image-keyboard-response","108","146404","0.0-6.0-2.51","5fcecd70db3ccb1a7f9331c9","bdp_trlrn","Mon Mar 13 2023 13:54:30 GMT-0400 (Eastern Daylight Time)","630556","Untrustworthy,Trustworthy","","null","","","","ratingFB","","trustrating_stim/white_00519_940519_fb_edt.bmp","null","","","","","","","","","","",""
"image-keyboard-response","109","147804","0.0-6.0-1.52","5fcecd70db3ccb1a7f9331c9","bdp_trlrn","Mon Mar 13 2023 13:54:30 GMT-0400 (Eastern Daylight Time)","630556","Untrustworthy,Trustworthy","","1296","","","","rating","","trustrating_stim/white_00898_960530_fa_edt.bmp","7","","","","","","","","","","",""
"image-keyboard-response","110","148012","0.0-6.0-2.52","5fcecd70db3ccb1a7f9331c9","bdp_trlrn","Mon Mar 13 2023 13:54:30 GMT-0400 (Eastern Daylight Time)","630556","Untrustworthy,Trustworthy","","null","","","","ratingFB","","trustrating_stim/white_00898_960530_fa_edt.bmp","null","","","","","","","","","","",""
"image-keyboard-response","111","150153","0.0-6.0-1.53","5fcecd70db3ccb1a7f9331c9","bdp_trlrn","Mon Mar 13 2023 13:54:30 GMT-0400 (Eastern Daylight Time)","630556","Untrustworthy,Trustworthy","","2037","","","","rating","","trustrating_stim/white_00761_941201_fb_edt.bmp","3","","","","","","","","","","",""
"image-keyboard-response","112","150356","0.0-6.0-2.53","5fcecd70db3ccb1a7f9331c9","bdp_trlrn","Mon Mar 13 2023 13:54:30 GMT-0400 (Eastern Daylight Time)","630556","Untrustworthy,Trustworthy","","null","","","","ratingFB","","trustrating_stim/white_00761_941201_fb_edt.bmp","null","","","","","","","","","","",""
"image-keyboard-response","113","151847","0.0-6.0-1.54","5fcecd70db3ccb1a7f9331c9","bdp_trlrn","Mon Mar 13 2023 13:54:30 GMT-0400 (Eastern Daylight Time)","630556","Untrustworthy,Trustworthy","","1385","","","","rating","","trustrating_stim/white_00659_941121_fa_edt.bmp","2","","","","","","","","","","",""
"image-keyboard-response","114","152051","0.0-6.0-2.54","5fcecd70db3ccb1a7f9331c9","bdp_trlrn","Mon Mar 13 2023 13:54:30 GMT-0400 (Eastern Daylight Time)","630556","Untrustworthy,Trustworthy","","null","","","","ratingFB","","trustrating_stim/white_00659_941121_fa_edt.bmp","null","","","","","","","","","","",""
"image-keyboard-response","115","153182","0.0-6.0-1.55","5fcecd70db3ccb1a7f9331c9","bdp_trlrn","Mon Mar 13 2023 13:54:30 GMT-0400 (Eastern Daylight Time)","630556","Untrustworthy,Trustworthy","","1025","","","","rating","","trustrating_stim/white_mw033.bmp","2","","","","","","","","","","",""
"image-keyboard-response","116","153389","0.0-6.0-2.55","5fcecd70db3ccb1a7f9331c9","bdp_trlrn","Mon Mar 13 2023 13:54:30 GMT-0400 (Eastern Daylight Time)","630556","Untrustworthy,Trustworthy","","null","","","","ratingFB","","trustrating_stim/white_mw033.bmp","null","","","","","","","","","","",""
"image-keyboard-response","117","155248","0.0-6.0-1.56","5fcecd70db3ccb1a7f9331c9","bdp_trlrn","Mon Mar 13 2023 13:54:30 GMT-0400 (Eastern Daylight Time)","630556","Untrustworthy,Trustworthy","","1748","","","","rating","","trustrating_stim/white_mw046.bmp","2","","","","","","","","","","",""
"image-keyboard-response","118","155452","0.0-6.0-2.56","5fcecd70db3ccb1a7f9331c9","bdp_trlrn","Mon Mar 13 2023 13:54:30 GMT-0400 (Eastern Daylight Time)","630556","Untrustworthy,Trustworthy","","null","","","","ratingFB","","trustrating_stim/white_mw046.bmp","null","","","","","","","","","","",""
"image-keyboard-response","119","156631","0.0-6.0-1.57","5fcecd70db3ccb1a7f9331c9","bdp_trlrn","Mon Mar 13 2023 13:54:30 GMT-0400 (Eastern Daylight Time)","630556","Untrustworthy,Trustworthy","","1075","","","","rating","","trustrating_stim/white_mw089.bmp","2","","","","","","","","","","",""
"image-keyboard-response","120","156835","0.0-6.0-2.57","5fcecd70db3ccb1a7f9331c9","bdp_trlrn","Mon Mar 13 2023 13:54:30 GMT-0400 (Eastern Daylight Time)","630556","Untrustworthy,Trustworthy","","null","","","","ratingFB","","trustrating_stim/white_mw089.bmp","null","","","","","","","","","","",""
"image-keyboard-response","121","157868","0.0-6.0-1.58","5fcecd70db3ccb1a7f9331c9","bdp_trlrn","Mon Mar 13 2023 13:54:30 GMT-0400 (Eastern Daylight Time)","630556","Untrustworthy,Trustworthy","","927","","","","rating","","trustrating_stim/white_00577_940928_fa_edt.bmp","3","","","","","","","","","","",""
"image-keyboard-response","122","158076","0.0-6.0-2.58","5fcecd70db3ccb1a7f9331c9","bdp_trlrn","Mon Mar 13 2023 13:54:30 GMT-0400 (Eastern Daylight Time)","630556","Untrustworthy,Trustworthy","","null","","","","ratingFB","","trustrating_stim/white_00577_940928_fa_edt.bmp","null","","","","","","","","","","",""
"image-keyboard-response","123","159089","0.0-6.0-1.59","5fcecd70db3ccb1a7f9331c9","bdp_trlrn","Mon Mar 13 2023 13:54:30 GMT-0400 (Eastern Daylight Time)","630556","Untrustworthy,Trustworthy","","908","","","","rating","","trustrating_stim/white_00109_931230_fa_edt.bmp","3","","","","","","","","","","",""
"image-keyboard-response","124","159293","0.0-6.0-2.59","5fcecd70db3ccb1a7f9331c9","bdp_trlrn","Mon Mar 13 2023 13:54:30 GMT-0400 (Eastern Daylight Time)","630556","Untrustworthy,Trustworthy","","null","","","","ratingFB","","trustrating_stim/white_00109_931230_fa_edt.bmp","null","","","","","","","","","","",""
"instructions","125","160911","0.0-7.0","5fcecd70db3ccb1a7f9331c9","bdp_trlrn","Mon Mar 13 2023 13:54:30 GMT-0400 (Eastern Daylight Time)","630556","Untrustworthy,Trustworthy","[{""page_index"":0,""viewing_time"":1516}]","1516","","","","","","","","","","","","","","","","","",""
"instructions","126","265913","0.0-8.0","5fcecd70db3ccb1a7f9331c9","bdp_trlrn","Mon Mar 13 2023 13:54:30 GMT-0400 (Eastern Daylight Time)","630556","Untrustworthy,Trustworthy","[{""page_index"":0,""viewing_time"":26022},{""page_index"":1,""viewing_time"":20709},{""page_index"":2,""viewing_time"":12673},{""page_index"":3,""viewing_time"":10052},{""page_index"":4,""viewing_time"":3137},{""page_index"":5,""viewing_time"":10477},{""page_index"":6,""viewing_time"":19234},{""page_index"":7,""viewing_time"":2589}]","104893","","","","","","","","","","","","","","","","","",""
"html-keyboard-response","127","269939","0.0-9.0","5fcecd70db3ccb1a7f9331c9","bdp_trlrn","Mon Mar 13 2023 13:54:30 GMT-0400 (Eastern Daylight Time)","630556","Untrustworthy,Trustworthy","","4025","","","","","","<div class='header' style='text-align:left; position: absolute; top: 5%; left: 5%;'><small>Task 3 of 5</small></div><div class='instruxDiv'><p><strong>1) What is the minimum number of points you can choose to send to your partner?</strong></p><p>a) 0</p><p>b) 1</p><p>c) 5</p>","B","","","","","","","","","","",""
"html-keyboard-response","128","271249","0.0-10.0","5fcecd70db3ccb1a7f9331c9","bdp_trlrn","Mon Mar 13 2023 13:54:30 GMT-0400 (Eastern Daylight Time)","630556","Untrustworthy,Trustworthy","","1205","","","","","","<div class='header' style='text-align:left; position: absolute; top: 5%; left: 5%;'><small>Task 3 of 5</small></div><div class='instruxDiv'><p><strong>1) What is the minimum number of points you can choose to send to your partner?</strong></p><p>a) 0</p><p style='color:#00FF00'>b) 1</p><p>c) 5</p><h3 style='color:#00FF00'>Correct!</h3><h3 class='center-content'>The correct response is b).</h3><h3 class='center-content'>The minimum number of points you can choose to send to your partner is 1 point.</h3><p><em>Press SPACEBAR to continue</em></p></div>"," ","","","","","","","","","","",""
"html-keyboard-response","129","275347","0.0-11.0","5fcecd70db3ccb1a7f9331c9","bdp_trlrn","Mon Mar 13 2023 13:54:30 GMT-0400 (Eastern Daylight Time)","630556","Untrustworthy,Trustworthy","","3992","","","","","","<div class='header' style='text-align:left; position: absolute; top: 5%; left: 5%;'><small>Task 3 of 5</small></div><div class='instruxDiv'><p><strong>2) What is the maximum number of points you can choose to send to your partner?</strong></p><p>a) 8</p><p>b) 5</p><p>c) 3</p>","B","","","","","","","","","","",""
"html-keyboard-response","130","276310","0.0-12.0","5fcecd70db3ccb1a7f9331c9","bdp_trlrn","Mon Mar 13 2023 13:54:30 GMT-0400 (Eastern Daylight Time)","630556","Untrustworthy,Trustworthy","","857","","","","","","<div class='header' style='text-align:left; position: absolute; top: 5%; left: 5%;'><small>Task 3 of 5</small></div><div class='instruxDiv'><p><strong>2) What is the maximum number of points you can choose to send to your partner?</strong></p><p>a) 8</p><p style='color:#00FF00'>b) 5</p><p>c) 3</p><h3 style='color:#00FF00'>Correct!</h3><h3 class='center-content'>The correct response is b).</h3><h3 class='center-content'>The maximum number of points you can choose to send to your partner is 5 points.</h3><p><em>Press SPACEBAR to continue</em></p></div>"," ","","","","","","","","","","",""
"html-keyboard-response","131","280084","0.0-13.0","5fcecd70db3ccb1a7f9331c9","bdp_trlrn","Mon Mar 13 2023 13:54:30 GMT-0400 (Eastern Daylight Time)","630556","Untrustworthy,Trustworthy","","3672","","","","","","<div class='header' style='text-align:left; position: absolute; top: 5%; left: 5%;'><small>Task 3 of 5</small></div><div class='instruxDiv'><p><strong>3) What happens to the amount of points you send to your partner?</strong></p><p>a) Nothing</p><p>b) It doubles</p><p>c) It quadruples</p>","B","","","","","","","","","","",""
"html-keyboard-response","132","283445","0.0-14.0","5fcecd70db3ccb1a7f9331c9","bdp_trlrn","Mon Mar 13 2023 13:54:30 GMT-0400 (Eastern Daylight Time)","630556","Untrustworthy,Trustworthy","","3256","","","","","","<div class='header' style='text-align:left; position: absolute; top: 5%; left: 5%;'><small>Task 3 of 5</small></div><div class='instruxDiv'><p><strong>3) What happens to the amount of points you send to your partner?</strong></p><p>a) Nothing</p><p style='color:#FF0000'>b) It doubles</p><p>c) It quadruples</p><h3 style='color:#FF0000'>Incorrect!</h3><h3 class='center-content'>The correct response is c).</h3><h3 class='center-content'>The amount of points you send to your partner quadruples.</h3><p><em>Press SPACEBAR to continue</em></p></div>"," ","","","","","","","","","","",""
"html-keyboard-response","133","298791","0.0-15.0","5fcecd70db3ccb1a7f9331c9","bdp_trlrn","Mon Mar 13 2023 13:54:30 GMT-0400 (Eastern Daylight Time)","630556","Untrustworthy,Trustworthy","","15244","","","","","","<div class='header' style='text-align:left; position: absolute; top: 5%; left: 5%;'><small>Task 3 of 5</small></div><div class='instruxDiv'><p><strong>4) If you decided to share 4 out of 5 points with your partner, and they decided to share half of the amount they received with you, how many points would you receive back from them on this round?</strong></p><p>a) 16</p><p>b) 0</p><p>c) 8</p>","C","","","","","","","","","","",""
"html-keyboard-response","134","300191","0.0-16.0","5fcecd70db3ccb1a7f9331c9","bdp_trlrn","Mon Mar 13 2023 13:54:30 GMT-0400 (Eastern Daylight Time)","630556","Untrustworthy,Trustworthy","","1290","","","","","","<div class='header' style='text-align:left; position: absolute; top: 5%; left: 5%;'><small>Task 3 of 5</small></div><div class='instruxDiv'><p><strong>4) If you decided to share 4 out of 5 points with your partner, and they decided to share half of the amount they received with you, how many points would you receive back from them on this round?</strong></p><p>a) 16</p><p>b) 0</p><p style='color:#00FF00'>c) 8</p><h3 style='color:#00FF00'>Correct!</h3><h3 class='center-content'>The correct response is c).</h3><h3 class='center-content'>If you shared 4 out of 5 points with your partner and they decided to share half of the amount they received with you, you would receive 8 points back (i.e. (4 x 4)/2 = 8).</h3><p><em>Press SPACEBAR to continue</em></p></div>"," ","","","","","","","","","","",""
"html-keyboard-response","135","305300","0.0-17.0","5fcecd70db3ccb1a7f9331c9","bdp_trlrn","Mon Mar 13 2023 13:54:30 GMT-0400 (Eastern Daylight Time)","630556","Untrustworthy,Trustworthy","","null","","","","","","<div class='header' style='text-align:left; position: absolute; top: 5%; left: 5%;'><small>Task 3 of 5</small></div><div class='instruxDiv'><p>Thank you for completing the quiz<p>These are the actual partners you will be interacting with in the next block:<p><div class='tc' align='center'><img class='introPic' src='trustrating_stim/white_00757_941201_fa_edt.bmp'><br><strong>Timothy</strong></div><div class='bl' align='center'><img class='introPic' src='trustrating_stim/white_mw099.bmp'><br><strong>Jordan</strong></div><div class='br' align='center'><img class='introPic' src='trustrating_stim/white_mw056.bmp'><br><strong>Gavin</strong></div></div><p>Across <strong>66 rounds</strong> you will interact with each partner <strong>22 times</strong> (in random order).<p style='align:center; color:white'><font <em>Press SPACEBAR to continue</em></p>","null","","","","","","","","","","",""
"instructions","136","316190","0.0-18.0","5fcecd70db3ccb1a7f9331c9","bdp_trlrn","Mon Mar 13 2023 13:54:30 GMT-0400 (Eastern Daylight Time)","630556","Untrustworthy,Trustworthy","[{""page_index"":0,""viewing_time"":9081},{""page_index"":1,""viewing_time"":1808}]","10889","","","","","","","","","","","","","","","","","",""
"html-keyboard-response","137","318055","0.0-19.0-1.0","5fcecd70db3ccb1a7f9331c9","bdp_trlrn","Mon Mar 13 2023 13:54:30 GMT-0400 (Eastern Daylight Time)","630556","Untrustworthy,Trustworthy","","1761","","","","decision","","<div class='trialDiv'><img src='trustrating_stim/white_mw056.bmp'><br><font class='baseline'><strong>Gavin</strong><p>Choose number of points to send.</font><div class='respPicDiv'><img src='img/responseButtonOffersNo0L.png' class='respPic'></div></div>","3","1","Gavin","9","Shared","0.35,0.65","9","0.35","trustrating_stim/white_mw056.bmp","6","5","1"
"html-keyboard-response","138","318308","0.0-19.0-2.0","5fcecd70db3ccb1a7f9331c9","bdp_trlrn","Mon Mar 13 2023 13:54:30 GMT-0400 (Eastern Daylight Time)","630556","Untrustworthy,Trustworthy","","null","","","","decisionFB","","<div class='trialDiv'><img src='trustrating_stim/white_mw056.bmp'><br><font class='baseline'><strong>Gavin</strong><p>Choose number of points to send.</font><div class='respPicDiv'><img src='img/responseButtonOffersNo0L3.png' class='respPic'></div></div>","null","1","Gavin","9","Shared","0.35,0.65","9","0.35","trustrating_stim/white_mw056.bmp","6","2","1"
"html-keyboard-response","139","319316","0.0-19.0-3.0","5fcecd70db3ccb1a7f9331c9","bdp_trlrn","Mon Mar 13 2023 13:54:30 GMT-0400 (Eastern Daylight Time)","630556","Untrustworthy,Trustworthy","","null","","","","feedback","","<div class='trialDiv'><img src='trustrating_stim/white_mw056.bmp'><br><font class='baseline'><strong>Gavin</strong><p>Received: <strong>12</strong></font> &nbsp; &nbsp; &nbsp; &nbsp; &nbsp; &nbsp;<font class='posOutcome'>Shared back: <strong>6</strong></font></font><div class='respPicDiv'><img src='img/responseButtonOffersNo0_wht.png' class='respPic'></div></div>","null","1","Gavin","9","Shared","0.35,0.65","9","0.35","trustrating_stim/white_mw056.bmp","6","8","1"
"html-keyboard-response","140","320984","0.0-19.0-1.1","5fcecd70db3ccb1a7f9331c9","bdp_trlrn","Mon Mar 13 2023 13:54:30 GMT-0400 (Eastern Daylight Time)","630556","Untrustworthy,Trustworthy","","1667","","","","decision","","<div class='trialDiv'><img src='trustrating_stim/white_mw099.bmp'><br><font class='baseline'><strong>Jordan</strong><p>Choose number of points to send.</font><div class='respPicDiv'><img src='img/responseButtonOffersNo0L.png' class='respPic'></div></div>","3","1","Jordan","7","Shared","0.35,0.8","9","0.35","trustrating_stim/white_mw099.bmp","2.5","13","2"
"html-keyboard-response","141","321237","0.0-19.0-2.1","5fcecd70db3ccb1a7f9331c9","bdp_trlrn","Mon Mar 13 2023 13:54:30 GMT-0400 (Eastern Daylight Time)","630556","Untrustworthy,Trustworthy","","null","","","","decisionFB","","<div class='trialDiv'><img src='trustrating_stim/white_mw099.bmp'><br><font class='baseline'><strong>Jordan</strong><p>Choose number of points to send.</font><div class='respPicDiv'><img src='img/responseButtonOffersNo0L3.png' class='respPic'></div></div>","null","1","Jordan","7","Shared","0.35,0.8","9","0.35","trustrating_stim/white_mw099.bmp","2.5","10","2"
"html-keyboard-response","142","322244","0.0-19.0-3.1","5fcecd70db3ccb1a7f9331c9","bdp_trlrn","Mon Mar 13 2023 13:54:30 GMT-0400 (Eastern Daylight Time)","630556","Untrustworthy,Trustworthy","","null","","","","feedback","","<div class='trialDiv'><img src='trustrating_stim/white_mw099.bmp'><br><font class='baseline'><strong>Jordan</strong><p>Received: <strong>12</strong></font> &nbsp; &nbsp; &nbsp; &nbsp; &nbsp; &nbsp;<font class='posOutcome'>Shared back: <strong>6</strong></font></font><div class='respPicDiv'><img src='img/responseButtonOffersNo0_wht.png' class='respPic'></div></div>","null","1","Jordan","7","Shared","0.35,0.8","9","0.35","trustrating_stim/white_mw099.bmp","2.5","16","2"
"html-keyboard-response","143","323196","0.0-19.0-1.2","5fcecd70db3ccb1a7f9331c9","bdp_trlrn","Mon Mar 13 2023 13:54:30 GMT-0400 (Eastern Daylight Time)","630556","Untrustworthy,Trustworthy","","951","","","","decision","","<div class='trialDiv'><img src='trustrating_stim/white_00757_941201_fa_edt.bmp'><br><font class='baseline'><strong>Timothy</strong><p>Choose number of points to send.</font><div class='respPicDiv'><img src='img/responseButtonOffersNo0L.png' class='respPic'></div></div>","3","1","Timothy","2","Shared","0.65,0.2","9","0.65","trustrating_stim/white_00757_941201_fa_edt.bmp","2","21","3"
"html-keyboard-response","144","323452","0.0-19.0-2.2","5fcecd70db3ccb1a7f9331c9","bdp_trlrn","Mon Mar 13 2023 13:54:30 GMT-0400 (Eastern Daylight Time)","630556","Untrustworthy,Trustworthy","","null","","","","decisionFB","","<div class='trialDiv'><img src='trustrating_stim/white_00757_941201_fa_edt.bmp'><br><font class='baseline'><strong>Timothy</strong><p>Choose number of points to send.</font><div class='respPicDiv'><img src='img/responseButtonOffersNo0L3.png' class='respPic'></div></div>","null","1","Timothy","2","Shared","0.65,0.2","9","0.65","trustrating_stim/white_00757_941201_fa_edt.bmp","2","18","3"
"html-keyboard-response","145","324460","0.0-19.0-3.2","5fcecd70db3ccb1a7f9331c9","bdp_trlrn","Mon Mar 13 2023 13:54:30 GMT-0400 (Eastern Daylight Time)","630556","Untrustworthy,Trustworthy","","null","","","","feedback","","<div class='trialDiv'><img src='trustrating_stim/white_00757_941201_fa_edt.bmp'><br><font class='baseline'><strong>Timothy</strong><p>Received: <strong>12</strong></font> &nbsp; &nbsp; &nbsp; &nbsp; &nbsp; &nbsp;<font class='posOutcome'>Shared back: <strong>6</strong></font></font><div class='respPicDiv'><img src='img/responseButtonOffersNo0_wht.png' class='respPic'></div></div>","null","1","Timothy","2","Shared","0.65,0.2","9","0.65","trustrating_stim/white_00757_941201_fa_edt.bmp","2","24","3"
"html-keyboard-response","146","325510","0.0-19.0-1.3","5fcecd70db3ccb1a7f9331c9","bdp_trlrn","Mon Mar 13 2023 13:54:30 GMT-0400 (Eastern Daylight Time)","630556","Untrustworthy,Trustworthy","","1048","","","","decision","","<div class='trialDiv'><img src='trustrating_stim/white_mw056.bmp'><br><font class='baseline'><strong>Gavin</strong><p>Choose number of points to send.</font><div class='respPicDiv'><img src='img/responseButtonOffersNo0L.png' class='respPic'></div></div>","3","2","Gavin","9","Shared","0.35,0.65","9","0.35","trustrating_stim/white_mw056.bmp","6","29","4"
"html-keyboard-response","147","325764","0.0-19.0-2.3","5fcecd70db3ccb1a7f9331c9","bdp_trlrn","Mon Mar 13 2023 13:54:30 GMT-0400 (Eastern Daylight Time)","630556","Untrustworthy,Trustworthy","","null","","","","decisionFB","","<div class='trialDiv'><img src='trustrating_stim/white_mw056.bmp'><br><font class='baseline'><strong>Gavin</strong><p>Choose number of points to send.</font><div class='respPicDiv'><img src='img/responseButtonOffersNo0L3.png' class='respPic'></div></div>","null","2","Gavin","9","Shared","0.35,0.65","9","0.35","trustrating_stim/white_mw056.bmp","6","26","4"
"html-keyboard-response","148","326771","0.0-19.0-3.3","5fcecd70db3ccb1a7f9331c9","bdp_trlrn","Mon Mar 13 2023 13:54:30 GMT-0400 (Eastern Daylight Time)","630556","Untrustworthy,Trustworthy","","null","","","","feedback","","<div class='trialDiv'><img src='trustrating_stim/white_mw056.bmp'><br><font class='baseline'><strong>Gavin</strong><p>Received: <strong>12</strong></font> &nbsp; &nbsp; &nbsp; &nbsp; &nbsp; &nbsp;<font class='posOutcome'>Shared back: <strong>6</strong></font></font><div class='respPicDiv'><img src='img/responseButtonOffersNo0_wht.png' class='respPic'></div></div>","null","2","Gavin","9","Shared","0.35,0.65","9","0.35","trustrating_stim/white_mw056.bmp","6","32","4"
"html-keyboard-response","149","327288","0.0-19.0-1.4","5fcecd70db3ccb1a7f9331c9","bdp_trlrn","Mon Mar 13 2023 13:54:30 GMT-0400 (Eastern Daylight Time)","630556","Untrustworthy,Trustworthy","","516","","","","decision","","<div class='trialDiv'><img src='trustrating_stim/white_mw099.bmp'><br><font class='baseline'><strong>Jordan</strong><p>Choose number of points to send.</font><div class='respPicDiv'><img src='img/responseButtonOffersNo0L.png' class='respPic'></div></div>","3","2","Jordan","7","Shared","0.35,0.8","9","0.35","trustrating_stim/white_mw099.bmp","2.5","37","5"
"html-keyboard-response","150","327548","0.0-19.0-2.4","5fcecd70db3ccb1a7f9331c9","bdp_trlrn","Mon Mar 13 2023 13:54:30 GMT-0400 (Eastern Daylight Time)","630556","Untrustworthy,Trustworthy","","null","","","","decisionFB","","<div class='trialDiv'><img src='trustrating_stim/white_mw099.bmp'><br><font class='baseline'><strong>Jordan</strong><p>Choose number of points to send.</font><div class='respPicDiv'><img src='img/responseButtonOffersNo0L3.png' class='respPic'></div></div>","null","2","Jordan","7","Shared","0.35,0.8","9","0.35","trustrating_stim/white_mw099.bmp","2.5","34","5"
"html-keyboard-response","151","328555","0.0-19.0-3.4","5fcecd70db3ccb1a7f9331c9","bdp_trlrn","Mon Mar 13 2023 13:54:30 GMT-0400 (Eastern Daylight Time)","630556","Untrustworthy,Trustworthy","","null","","","","feedback","","<div class='trialDiv'><img src='trustrating_stim/white_mw099.bmp'><br><font class='baseline'><strong>Jordan</strong><p>Received: <strong>12</strong></font> &nbsp; &nbsp; &nbsp; &nbsp; &nbsp; &nbsp;<font class='posOutcome'>Shared back: <strong>6</strong></font></font><div class='respPicDiv'><img src='img/responseButtonOffersNo0_wht.png' class='respPic'></div></div>","null","2","Jordan","7","Shared","0.35,0.8","9","0.35","trustrating_stim/white_mw099.bmp","2.5","40","5"
"html-keyboard-response","152","328843","0.0-19.0-1.5","5fcecd70db3ccb1a7f9331c9","bdp_trlrn","Mon Mar 13 2023 13:54:30 GMT-0400 (Eastern Daylight Time)","630556","Untrustworthy,Trustworthy","","287","","","","decision","","<div class='trialDiv'><img src='trustrating_stim/white_00757_941201_fa_edt.bmp'><br><font class='baseline'><strong>Timothy</strong><p>Choose number of points to send.</font><div class='respPicDiv'><img src='img/responseButtonOffersNo0L.png' class='respPic'></div></div>","3","2","Timothy","2","Shared","0.65,0.2","9","0.65","trustrating_stim/white_00757_941201_fa_edt.bmp","2","45","6"
"html-keyboard-response","153","329100","0.0-19.0-2.5","5fcecd70db3ccb1a7f9331c9","bdp_trlrn","Mon Mar 13 2023 13:54:30 GMT-0400 (Eastern Daylight Time)","630556","Untrustworthy,Trustworthy","","null","","","","decisionFB","","<div class='trialDiv'><img src='trustrating_stim/white_00757_941201_fa_edt.bmp'><br><font class='baseline'><strong>Timothy</strong><p>Choose number of points to send.</font><div class='respPicDiv'><img src='img/responseButtonOffersNo0L3.png' class='respPic'></div></div>","null","2","Timothy","2","Shared","0.65,0.2","9","0.65","trustrating_stim/white_00757_941201_fa_edt.bmp","2","42","6"
"html-keyboard-response","154","330108","0.0-19.0-3.5","5fcecd70db3ccb1a7f9331c9","bdp_trlrn","Mon Mar 13 2023 13:54:30 GMT-0400 (Eastern Daylight Time)","630556","Untrustworthy,Trustworthy","","null","","","","feedback","","<div class='trialDiv'><img src='trustrating_stim/white_00757_941201_fa_edt.bmp'><br><font class='baseline'><strong>Timothy</strong><p>Received: <strong>12</strong></font> &nbsp; &nbsp; &nbsp; &nbsp; &nbsp; &nbsp;<font class='posOutcome'>Shared back: <strong>6</strong></font></font><div class='respPicDiv'><img src='img/responseButtonOffersNo0_wht.png' class='respPic'></div></div>","null","2","Timothy","2","Shared","0.65,0.2","9","0.65","trustrating_stim/white_00757_941201_fa_edt.bmp","2","48","6"
"html-keyboard-response","155","330829","0.0-19.0-1.6","5fcecd70db3ccb1a7f9331c9","bdp_trlrn","Mon Mar 13 2023 13:54:30 GMT-0400 (Eastern Daylight Time)","630556","Untrustworthy,Trustworthy","","719","","","","decision","","<div class='trialDiv'><img src='trustrating_stim/white_mw056.bmp'><br><font class='baseline'><strong>Gavin</strong><p>Choose number of points to send.</font><div class='respPicDiv'><img src='img/responseButtonOffersNo0L.png' class='respPic'></div></div>","5","3","Gavin","9","Shared","0.35,0.65","9","0.35","trustrating_stim/white_mw056.bmp","6","53","7"
"html-keyboard-response","156","331084","0.0-19.0-2.6","5fcecd70db3ccb1a7f9331c9","bdp_trlrn","Mon Mar 13 2023 13:54:30 GMT-0400 (Eastern Daylight Time)","630556","Untrustworthy,Trustworthy","","null","","","","decisionFB","","<div class='trialDiv'><img src='trustrating_stim/white_mw056.bmp'><br><font class='baseline'><strong>Gavin</strong><p>Choose number of points to send.</font><div class='respPicDiv'><img src='img/responseButtonOffersNo0L5.png' class='respPic'></div></div>","null","3","Gavin","9","Shared","0.35,0.65","9","0.35","trustrating_stim/white_mw056.bmp","6","48","7"
"html-keyboard-response","157","332091","0.0-19.0-3.6","5fcecd70db3ccb1a7f9331c9","bdp_trlrn","Mon Mar 13 2023 13:54:30 GMT-0400 (Eastern Daylight Time)","630556","Untrustworthy,Trustworthy","","null","","","","feedback","","<div class='trialDiv'><img src='trustrating_stim/white_mw056.bmp'><br><font class='baseline'><strong>Gavin</strong><p>Received: <strong>20</strong></font> &nbsp; &nbsp; &nbsp; &nbsp; &nbsp; &nbsp;<font class='posOutcome'>Shared back: <strong>10</strong></font></font><div class='respPicDiv'><img src='img/responseButtonOffersNo0_wht.png' class='respPic'></div></div>","null","3","Gavin","9","Shared","0.35,0.65","9","0.35","trustrating_stim/white_mw056.bmp","6","58","7"
"html-keyboard-response","158","333310","0.0-19.0-1.7","5fcecd70db3ccb1a7f9331c9","bdp_trlrn","Mon Mar 13 2023 13:54:30 GMT-0400 (Eastern Daylight Time)","630556","Untrustworthy,Trustworthy","","1218","","","","decision","","<div class='trialDiv'><img src='trustrating_stim/white_mw099.bmp'><br><font class='baseline'><strong>Jordan</strong><p>Choose number of points to send.</font><div class='respPicDiv'><img src='img/responseButtonOffersNo0L.png' class='respPic'></div></div>","5","3","Jordan","7","Kept","0.35,0.8","9","0.35","trustrating_stim/white_mw099.bmp","2.5","63","8"
"html-keyboard-response","159","333564","0.0-19.0-2.7","5fcecd70db3ccb1a7f9331c9","bdp_trlrn","Mon Mar 13 2023 13:54:30 GMT-0400 (Eastern Daylight Time)","630556","Untrustworthy,Trustworthy","","null","","","","decisionFB","","<div class='trialDiv'><img src='trustrating_stim/white_mw099.bmp'><br><font class='baseline'><strong>Jordan</strong><p>Choose number of points to send.</font><div class='respPicDiv'><img src='img/responseButtonOffersNo0L5.png' class='respPic'></div></div>","null","3","Jordan","7","Kept","0.35,0.8","9","0.35","trustrating_stim/white_mw099.bmp","2.5","58","8"
"html-keyboard-response","160","334571","0.0-19.0-3.7","5fcecd70db3ccb1a7f9331c9","bdp_trlrn","Mon Mar 13 2023 13:54:30 GMT-0400 (Eastern Daylight Time)","630556","Untrustworthy,Trustworthy","","null","","","","feedback","","<div class='trialDiv'><img src='trustrating_stim/white_mw099.bmp'><br><font class='baseline'><strong>Jordan</strong><p>Received: <strong>20</strong></font> &nbsp; &nbsp; &nbsp; &nbsp; &nbsp; &nbsp;<font class='negOutcome'>Shared back: <strong>0</strong></font></font><div class='respPicDiv'><img src='img/responseButtonOffersNo0_wht.png' class='respPic'></div></div>","null","3","Jordan","7","Kept","0.35,0.8","9","0.35","trustrating_stim/white_mw099.bmp","2.5","58","8"
"html-keyboard-response","161","335024","0.0-19.0-1.8","5fcecd70db3ccb1a7f9331c9","bdp_trlrn","Mon Mar 13 2023 13:54:30 GMT-0400 (Eastern Daylight Time)","630556","Untrustworthy,Trustworthy","","452","","","","decision","","<div class='trialDiv'><img src='trustrating_stim/white_00757_941201_fa_edt.bmp'><br><font class='baseline'><strong>Timothy</strong><p>Choose number of points to send.</font><div class='respPicDiv'><img src='img/responseButtonOffersNo0L.png' class='respPic'></div></div>","5","3","Timothy","2","Kept","0.65,0.2","9","0.65","trustrating_stim/white_00757_941201_fa_edt.bmp","2","63","9"
"html-keyboard-response","162","335283","0.0-19.0-2.8","5fcecd70db3ccb1a7f9331c9","bdp_trlrn","Mon Mar 13 2023 13:54:30 GMT-0400 (Eastern Daylight Time)","630556","Untrustworthy,Trustworthy","","null","","","","decisionFB","","<div class='trialDiv'><img src='trustrating_stim/white_00757_941201_fa_edt.bmp'><br><font class='baseline'><strong>Timothy</strong><p>Choose number of points to send.</font><div class='respPicDiv'><img src='img/responseButtonOffersNo0L5.png' class='respPic'></div></div>","null","3","Timothy","2","Kept","0.65,0.2","9","0.65","trustrating_stim/white_00757_941201_fa_edt.bmp","2","58","9"
"html-keyboard-response","163","336292","0.0-19.0-3.8","5fcecd70db3ccb1a7f9331c9","bdp_trlrn","Mon Mar 13 2023 13:54:30 GMT-0400 (Eastern Daylight Time)","630556","Untrustworthy,Trustworthy","","null","","","","feedback","","<div class='trialDiv'><img src='trustrating_stim/white_00757_941201_fa_edt.bmp'><br><font class='baseline'><strong>Timothy</strong><p>Received: <strong>20</strong></font> &nbsp; &nbsp; &nbsp; &nbsp; &nbsp; &nbsp;<font class='negOutcome'>Shared back: <strong>0</strong></font></font><div class='respPicDiv'><img src='img/responseButtonOffersNo0_wht.png' class='respPic'></div></div>","null","3","Timothy","2","Kept","0.65,0.2","9","0.65","trustrating_stim/white_00757_941201_fa_edt.bmp","2","58","9"
"html-keyboard-response","164","336957","0.0-19.0-1.9","5fcecd70db3ccb1a7f9331c9","bdp_trlrn","Mon Mar 13 2023 13:54:30 GMT-0400 (Eastern Daylight Time)","630556","Untrustworthy,Trustworthy","","663","","","","decision","","<div class='trialDiv'><img src='trustrating_stim/white_mw056.bmp'><br><font class='baseline'><strong>Gavin</strong><p>Choose number of points to send.</font><div class='respPicDiv'><img src='img/responseButtonOffersNo0L.png' class='respPic'></div></div>","5","4","Gavin","9","Shared","0.35,0.65","9","0.35","trustrating_stim/white_mw056.bmp","6","63","10"
"html-keyboard-response","165","337212","0.0-19.0-2.9","5fcecd70db3ccb1a7f9331c9","bdp_trlrn","Mon Mar 13 2023 13:54:30 GMT-0400 (Eastern Daylight Time)","630556","Untrustworthy,Trustworthy","","null","","","","decisionFB","","<div class='trialDiv'><img src='trustrating_stim/white_mw056.bmp'><br><font class='baseline'><strong>Gavin</strong><p>Choose number of points to send.</font><div class='respPicDiv'><img src='img/responseButtonOffersNo0L5.png' class='respPic'></div></div>","null","4","Gavin","9","Shared","0.35,0.65","9","0.35","trustrating_stim/white_mw056.bmp","6","58","10"
"html-keyboard-response","166","338220","0.0-19.0-3.9","5fcecd70db3ccb1a7f9331c9","bdp_trlrn","Mon Mar 13 2023 13:54:30 GMT-0400 (Eastern Daylight Time)","630556","Untrustworthy,Trustworthy","","null","","","","feedback","","<div class='trialDiv'><img src='trustrating_stim/white_mw056.bmp'><br><font class='baseline'><strong>Gavin</strong><p>Received: <strong>20</strong></font> &nbsp; &nbsp; &nbsp; &nbsp; &nbsp; &nbsp;<font class='posOutcome'>Shared back: <strong>10</strong></font></font><div class='respPicDiv'><img src='img/responseButtonOffersNo0_wht.png' class='respPic'></div></div>","null","4","Gavin","9","Shared","0.35,0.65","9","0.35","trustrating_stim/white_mw056.bmp","6","68","10"
"html-keyboard-response","167","338590","0.0-19.0-1.10","5fcecd70db3ccb1a7f9331c9","bdp_trlrn","Mon Mar 13 2023 13:54:30 GMT-0400 (Eastern Daylight Time)","630556","Untrustworthy,Trustworthy","","370","","","","decision","","<div class='trialDiv'><img src='trustrating_stim/white_00757_941201_fa_edt.bmp'><br><font class='baseline'><strong>Timothy</strong><p>Choose number of points to send.</font><div class='respPicDiv'><img src='img/responseButtonOffersNo0L.png' class='respPic'></div></div>","3","4","Timothy","2","Shared","0.65,0.2","9","0.65","trustrating_stim/white_00757_941201_fa_edt.bmp","2","73","11"
"html-keyboard-response","168","338843","0.0-19.0-2.10","5fcecd70db3ccb1a7f9331c9","bdp_trlrn","Mon Mar 13 2023 13:54:30 GMT-0400 (Eastern Daylight Time)","630556","Untrustworthy,Trustworthy","","null","","","","decisionFB","","<div class='trialDiv'><img src='trustrating_stim/white_00757_941201_fa_edt.bmp'><br><font class='baseline'><strong>Timothy</strong><p>Choose number of points to send.</font><div class='respPicDiv'><img src='img/responseButtonOffersNo0L3.png' class='respPic'></div></div>","null","4","Timothy","2","Shared","0.65,0.2","9","0.65","trustrating_stim/white_00757_941201_fa_edt.bmp","2","70","11"
"html-keyboard-response","169","339851","0.0-19.0-3.10","5fcecd70db3ccb1a7f9331c9","bdp_trlrn","Mon Mar 13 2023 13:54:30 GMT-0400 (Eastern Daylight Time)","630556","Untrustworthy,Trustworthy","","null","","","","feedback","","<div class='trialDiv'><img src='trustrating_stim/white_00757_941201_fa_edt.bmp'><br><font class='baseline'><strong>Timothy</strong><p>Received: <strong>12</strong></font> &nbsp; &nbsp; &nbsp; &nbsp; &nbsp; &nbsp;<font class='posOutcome'>Shared back: <strong>6</strong></font></font><div class='respPicDiv'><img src='img/responseButtonOffersNo0_wht.png' class='respPic'></div></div>","null","4","Timothy","2","Shared","0.65,0.2","9","0.65","trustrating_stim/white_00757_941201_fa_edt.bmp","2","76","11"
"html-keyboard-response","170","340176","0.0-19.0-1.11","5fcecd70db3ccb1a7f9331c9","bdp_trlrn","Mon Mar 13 2023 13:54:30 GMT-0400 (Eastern Daylight Time)","630556","Untrustworthy,Trustworthy","","324","","","","decision","","<div class='trialDiv'><img src='trustrating_stim/white_mw099.bmp'><br><font class='baseline'><strong>Jordan</strong><p>Choose number of points to send.</font><div class='respPicDiv'><img src='img/responseButtonOffersNo0L.png' class='respPic'></div></div>","3","4","Jordan","7","Shared","0.35,0.8","9","0.35","trustrating_stim/white_mw099.bmp","2.5","81","12"
"html-keyboard-response","171","340435","0.0-19.0-2.11","5fcecd70db3ccb1a7f9331c9","bdp_trlrn","Mon Mar 13 2023 13:54:30 GMT-0400 (Eastern Daylight Time)","630556","Untrustworthy,Trustworthy","","null","","","","decisionFB","","<div class='trialDiv'><img src='trustrating_stim/white_mw099.bmp'><br><font class='baseline'><strong>Jordan</strong><p>Choose number of points to send.</font><div class='respPicDiv'><img src='img/responseButtonOffersNo0L3.png' class='respPic'></div></div>","null","4","Jordan","7","Shared","0.35,0.8","9","0.35","trustrating_stim/white_mw099.bmp","2.5","78","12"
"html-keyboard-response","172","341444","0.0-19.0-3.11","5fcecd70db3ccb1a7f9331c9","bdp_trlrn","Mon Mar 13 2023 13:54:30 GMT-0400 (Eastern Daylight Time)","630556","Untrustworthy,Trustworthy","","null","","","","feedback","","<div class='trialDiv'><img src='trustrating_stim/white_mw099.bmp'><br><font class='baseline'><strong>Jordan</strong><p>Received: <strong>12</strong></font> &nbsp; &nbsp; &nbsp; &nbsp; &nbsp; &nbsp;<font class='posOutcome'>Shared back: <strong>6</strong></font></font><div class='respPicDiv'><img src='img/responseButtonOffersNo0_wht.png' class='respPic'></div></div>","null","4","Jordan","7","Shared","0.35,0.8","9","0.35","trustrating_stim/white_mw099.bmp","2.5","84","12"
"html-keyboard-response","173","342273","0.0-19.0-1.12","5fcecd70db3ccb1a7f9331c9","bdp_trlrn","Mon Mar 13 2023 13:54:30 GMT-0400 (Eastern Daylight Time)","630556","Untrustworthy,Trustworthy","","828","","","","decision","","<div class='trialDiv'><img src='trustrating_stim/white_00757_941201_fa_edt.bmp'><br><font class='baseline'><strong>Timothy</strong><p>Choose number of points to send.</font><div class='respPicDiv'><img src='img/responseButtonOffersNo0L.png' class='respPic'></div></div>","3","5","Timothy","2","Kept","0.65,0.2","9","0.65","trustrating_stim/white_00757_941201_fa_edt.bmp","2","89","13"
"html-keyboard-response","174","342543","0.0-19.0-2.12","5fcecd70db3ccb1a7f9331c9","bdp_trlrn","Mon Mar 13 2023 13:54:30 GMT-0400 (Eastern Daylight Time)","630556","Untrustworthy,Trustworthy","","null","","","","decisionFB","","<div class='trialDiv'><img src='trustrating_stim/white_00757_941201_fa_edt.bmp'><br><font class='baseline'><strong>Timothy</strong><p>Choose number of points to send.</font><div class='respPicDiv'><img src='img/responseButtonOffersNo0L3.png' class='respPic'></div></div>","null","5","Timothy","2","Kept","0.65,0.2","9","0.65","trustrating_stim/white_00757_941201_fa_edt.bmp","2","86","13"
"html-keyboard-response","175","343548","0.0-19.0-3.12","5fcecd70db3ccb1a7f9331c9","bdp_trlrn","Mon Mar 13 2023 13:54:30 GMT-0400 (Eastern Daylight Time)","630556","Untrustworthy,Trustworthy","","null","","","","feedback","","<div class='trialDiv'><img src='trustrating_stim/white_00757_941201_fa_edt.bmp'><br><font class='baseline'><strong>Timothy</strong><p>Received: <strong>12</strong></font> &nbsp; &nbsp; &nbsp; &nbsp; &nbsp; &nbsp;<font class='negOutcome'>Shared back: <strong>0</strong></font></font><div class='respPicDiv'><img src='img/responseButtonOffersNo0_wht.png' class='respPic'></div></div>","null","5","Timothy","2","Kept","0.65,0.2","9","0.65","trustrating_stim/white_00757_941201_fa_edt.bmp","2","86","13"
"html-keyboard-response","176","343838","0.0-19.0-1.13","5fcecd70db3ccb1a7f9331c9","bdp_trlrn","Mon Mar 13 2023 13:54:30 GMT-0400 (Eastern Daylight Time)","630556","Untrustworthy,Trustworthy","","289","","","","decision","","<div class='trialDiv'><img src='trustrating_stim/white_mw056.bmp'><br><font class='baseline'><strong>Gavin</strong><p>Choose number of points to send.</font><div class='respPicDiv'><img src='img/responseButtonOffersNo0L.png' class='respPic'></div></div>","3","5","Gavin","9","Shared","0.35,0.65","9","0.35","trustrating_stim/white_mw056.bmp","6","91","14"
"html-keyboard-response","177","344093","0.0-19.0-2.13","5fcecd70db3ccb1a7f9331c9","bdp_trlrn","Mon Mar 13 2023 13:54:30 GMT-0400 (Eastern Daylight Time)","630556","Untrustworthy,Trustworthy","","null","","","","decisionFB","","<div class='trialDiv'><img src='trustrating_stim/white_mw056.bmp'><br><font class='baseline'><strong>Gavin</strong><p>Choose number of points to send.</font><div class='respPicDiv'><img src='img/responseButtonOffersNo0L3.png' class='respPic'></div></div>","null","5","Gavin","9","Shared","0.35,0.65","9","0.35","trustrating_stim/white_mw056.bmp","6","88","14"
"html-keyboard-response","178","345100","0.0-19.0-3.13","5fcecd70db3ccb1a7f9331c9","bdp_trlrn","Mon Mar 13 2023 13:54:30 GMT-0400 (Eastern Daylight Time)","630556","Untrustworthy,Trustworthy","","null","","","","feedback","","<div class='trialDiv'><img src='trustrating_stim/white_mw056.bmp'><br><font class='baseline'><strong>Gavin</strong><p>Received: <strong>12</strong></font> &nbsp; &nbsp; &nbsp; &nbsp; &nbsp; &nbsp;<font class='posOutcome'>Shared back: <strong>6</strong></font></font><div class='respPicDiv'><img src='img/responseButtonOffersNo0_wht.png' class='respPic'></div></div>","null","5","Gavin","9","Shared","0.35,0.65","9","0.35","trustrating_stim/white_mw056.bmp","6","94","14"
"html-keyboard-response","179","345408","0.0-19.0-1.14","5fcecd70db3ccb1a7f9331c9","bdp_trlrn","Mon Mar 13 2023 13:54:30 GMT-0400 (Eastern Daylight Time)","630556","Untrustworthy,Trustworthy","","307","","","","decision","","<div class='trialDiv'><img src='trustrating_stim/white_mw099.bmp'><br><font class='baseline'><strong>Jordan</strong><p>Choose number of points to send.</font><div class='respPicDiv'><img src='img/responseButtonOffersNo0L.png' class='respPic'></div></div>","3","5","Jordan","7","Shared","0.35,0.8","9","0.35","trustrating_stim/white_mw099.bmp","2.5","99","15"
"html-keyboard-response","180","345660","0.0-19.0-2.14","5fcecd70db3ccb1a7f9331c9","bdp_trlrn","Mon Mar 13 2023 13:54:30 GMT-0400 (Eastern Daylight Time)","630556","Untrustworthy,Trustworthy","","null","","","","decisionFB","","<div class='trialDiv'><img src='trustrating_stim/white_mw099.bmp'><br><font class='baseline'><strong>Jordan</strong><p>Choose number of points to send.</font><div class='respPicDiv'><img src='img/responseButtonOffersNo0L3.png' class='respPic'></div></div>","null","5","Jordan","7","Shared","0.35,0.8","9","0.35","trustrating_stim/white_mw099.bmp","2.5","96","15"
"html-keyboard-response","181","346668","0.0-19.0-3.14","5fcecd70db3ccb1a7f9331c9","bdp_trlrn","Mon Mar 13 2023 13:54:30 GMT-0400 (Eastern Daylight Time)","630556","Untrustworthy,Trustworthy","","null","","","","feedback","","<div class='trialDiv'><img src='trustrating_stim/white_mw099.bmp'><br><font class='baseline'><strong>Jordan</strong><p>Received: <strong>12</strong></font> &nbsp; &nbsp; &nbsp; &nbsp; &nbsp; &nbsp;<font class='posOutcome'>Shared back: <strong>6</strong></font></font><div class='respPicDiv'><img src='img/responseButtonOffersNo0_wht.png' class='respPic'></div></div>","null","5","Jordan","7","Shared","0.35,0.8","9","0.35","trustrating_stim/white_mw099.bmp","2.5","102","15"
"html-keyboard-response","182","347266","0.0-19.0-1.15","5fcecd70db3ccb1a7f9331c9","bdp_trlrn","Mon Mar 13 2023 13:54:30 GMT-0400 (Eastern Daylight Time)","630556","Untrustworthy,Trustworthy","","597","","","","decision","","<div class='trialDiv'><img src='trustrating_stim/white_mw056.bmp'><br><font class='baseline'><strong>Gavin</strong><p>Choose number of points to send.</font><div class='respPicDiv'><img src='img/responseButtonOffersNo0L.png' class='respPic'></div></div>","5","6","Gavin","9","Kept","0.35,0.65","9","0.35","trustrating_stim/white_mw056.bmp","6","107","16"
"html-keyboard-response","183","347524","0.0-19.0-2.15","5fcecd70db3ccb1a7f9331c9","bdp_trlrn","Mon Mar 13 2023 13:54:30 GMT-0400 (Eastern Daylight Time)","630556","Untrustworthy,Trustworthy","","null","","","","decisionFB","","<div class='trialDiv'><img src='trustrating_stim/white_mw056.bmp'><br><font class='baseline'><strong>Gavin</strong><p>Choose number of points to send.</font><div class='respPicDiv'><img src='img/responseButtonOffersNo0L5.png' class='respPic'></div></div>","null","6","Gavin","9","Kept","0.35,0.65","9","0.35","trustrating_stim/white_mw056.bmp","6","102","16"
"html-keyboard-response","184","348532","0.0-19.0-3.15","5fcecd70db3ccb1a7f9331c9","bdp_trlrn","Mon Mar 13 2023 13:54:30 GMT-0400 (Eastern Daylight Time)","630556","Untrustworthy,Trustworthy","","null","","","","feedback","","<div class='trialDiv'><img src='trustrating_stim/white_mw056.bmp'><br><font class='baseline'><strong>Gavin</strong><p>Received: <strong>20</strong></font> &nbsp; &nbsp; &nbsp; &nbsp; &nbsp; &nbsp;<font class='negOutcome'>Shared back: <strong>0</strong></font></font><div class='respPicDiv'><img src='img/responseButtonOffersNo0_wht.png' class='respPic'></div></div>","null","6","Gavin","9","Kept","0.35,0.65","9","0.35","trustrating_stim/white_mw056.bmp","6","102","16"
"html-keyboard-response","185","349574","0.0-19.0-1.16","5fcecd70db3ccb1a7f9331c9","bdp_trlrn","Mon Mar 13 2023 13:54:30 GMT-0400 (Eastern Daylight Time)","630556","Untrustworthy,Trustworthy","","1041","","","","decision","","<div class='trialDiv'><img src='trustrating_stim/white_00757_941201_fa_edt.bmp'><br><font class='baseline'><strong>Timothy</strong><p>Choose number of points to send.</font><div class='respPicDiv'><img src='img/responseButtonOffersNo0L.png' class='respPic'></div></div>","3","6","Timothy","2","Shared","0.65,0.2","9","0.65","trustrating_stim/white_00757_941201_fa_edt.bmp","2","107","17"
"html-keyboard-response","186","349827","0.0-19.0-2.16","5fcecd70db3ccb1a7f9331c9","bdp_trlrn","Mon Mar 13 2023 13:54:30 GMT-0400 (Eastern Daylight Time)","630556","Untrustworthy,Trustworthy","","null","","","","decisionFB","","<div class='trialDiv'><img src='trustrating_stim/white_00757_941201_fa_edt.bmp'><br><font class='baseline'><strong>Timothy</strong><p>Choose number of points to send.</font><div class='respPicDiv'><img src='img/responseButtonOffersNo0L3.png' class='respPic'></div></div>","null","6","Timothy","2","Shared","0.65,0.2","9","0.65","trustrating_stim/white_00757_941201_fa_edt.bmp","2","104","17"
"html-keyboard-response","187","350836","0.0-19.0-3.16","5fcecd70db3ccb1a7f9331c9","bdp_trlrn","Mon Mar 13 2023 13:54:30 GMT-0400 (Eastern Daylight Time)","630556","Untrustworthy,Trustworthy","","null","","","","feedback","","<div class='trialDiv'><img src='trustrating_stim/white_00757_941201_fa_edt.bmp'><br><font class='baseline'><strong>Timothy</strong><p>Received: <strong>12</strong></font> &nbsp; &nbsp; &nbsp; &nbsp; &nbsp; &nbsp;<font class='posOutcome'>Shared back: <strong>6</strong></font></font><div class='respPicDiv'><img src='img/responseButtonOffersNo0_wht.png' class='respPic'></div></div>","null","6","Timothy","2","Shared","0.65,0.2","9","0.65","trustrating_stim/white_00757_941201_fa_edt.bmp","2","110","17"
"html-keyboard-response","188","351757","0.0-19.0-1.17","5fcecd70db3ccb1a7f9331c9","bdp_trlrn","Mon Mar 13 2023 13:54:30 GMT-0400 (Eastern Daylight Time)","630556","Untrustworthy,Trustworthy","","920","","","","decision","","<div class='trialDiv'><img src='trustrating_stim/white_mw099.bmp'><br><font class='baseline'><strong>Jordan</strong><p>Choose number of points to send.</font><div class='respPicDiv'><img src='img/responseButtonOffersNo0L.png' class='respPic'></div></div>","3","6","Jordan","7","Kept","0.35,0.8","9","0.35","trustrating_stim/white_mw099.bmp","2.5","115","18"
"html-keyboard-response","189","352013","0.0-19.0-2.17","5fcecd70db3ccb1a7f9331c9","bdp_trlrn","Mon Mar 13 2023 13:54:30 GMT-0400 (Eastern Daylight Time)","630556","Untrustworthy,Trustworthy","","null","","","","decisionFB","","<div class='trialDiv'><img src='trustrating_stim/white_mw099.bmp'><br><font class='baseline'><strong>Jordan</strong><p>Choose number of points to send.</font><div class='respPicDiv'><img src='img/responseButtonOffersNo0L3.png' class='respPic'></div></div>","null","6","Jordan","7","Kept","0.35,0.8","9","0.35","trustrating_stim/white_mw099.bmp","2.5","112","18"
"html-keyboard-response","190","353034","0.0-19.0-3.17","5fcecd70db3ccb1a7f9331c9","bdp_trlrn","Mon Mar 13 2023 13:54:30 GMT-0400 (Eastern Daylight Time)","630556","Untrustworthy,Trustworthy","","null","","","","feedback","","<div class='trialDiv'><img src='trustrating_stim/white_mw099.bmp'><br><font class='baseline'><strong>Jordan</strong><p>Received: <strong>12</strong></font> &nbsp; &nbsp; &nbsp; &nbsp; &nbsp; &nbsp;<font class='negOutcome'>Shared back: <strong>0</strong></font></font><div class='respPicDiv'><img src='img/responseButtonOffersNo0_wht.png' class='respPic'></div></div>","null","6","Jordan","7","Kept","0.35,0.8","9","0.35","trustrating_stim/white_mw099.bmp","2.5","112","18"
"html-keyboard-response","191","353689","0.0-19.0-1.18","5fcecd70db3ccb1a7f9331c9","bdp_trlrn","Mon Mar 13 2023 13:54:30 GMT-0400 (Eastern Daylight Time)","630556","Untrustworthy,Trustworthy","","654","","","","decision","","<div class='trialDiv'><img src='trustrating_stim/white_mw056.bmp'><br><font class='baseline'><strong>Gavin</strong><p>Choose number of points to send.</font><div class='respPicDiv'><img src='img/responseButtonOffersNo0L.png' class='respPic'></div></div>","5","7","Gavin","9","Shared","0.35,0.65","9","0.35","trustrating_stim/white_mw056.bmp","6","117","19"
"html-keyboard-response","192","353948","0.0-19.0-2.18","5fcecd70db3ccb1a7f9331c9","bdp_trlrn","Mon Mar 13 2023 13:54:30 GMT-0400 (Eastern Daylight Time)","630556","Untrustworthy,Trustworthy","","null","","","","decisionFB","","<div class='trialDiv'><img src='trustrating_stim/white_mw056.bmp'><br><font class='baseline'><strong>Gavin</strong><p>Choose number of points to send.</font><div class='respPicDiv'><img src='img/responseButtonOffersNo0L5.png' class='respPic'></div></div>","null","7","Gavin","9","Shared","0.35,0.65","9","0.35","trustrating_stim/white_mw056.bmp","6","112","19"
"html-keyboard-response","193","354956","0.0-19.0-3.18","5fcecd70db3ccb1a7f9331c9","bdp_trlrn","Mon Mar 13 2023 13:54:30 GMT-0400 (Eastern Daylight Time)","630556","Untrustworthy,Trustworthy","","null","","","","feedback","","<div class='trialDiv'><img src='trustrating_stim/white_mw056.bmp'><br><font class='baseline'><strong>Gavin</strong><p>Received: <strong>20</strong></font> &nbsp; &nbsp; &nbsp; &nbsp; &nbsp; &nbsp;<font class='posOutcome'>Shared back: <strong>10</strong></font></font><div class='respPicDiv'><img src='img/responseButtonOffersNo0_wht.png' class='respPic'></div></div>","null","7","Gavin","9","Shared","0.35,0.65","9","0.35","trustrating_stim/white_mw056.bmp","6","122","19"
"html-keyboard-response","194","355797","0.0-19.0-1.19","5fcecd70db3ccb1a7f9331c9","bdp_trlrn","Mon Mar 13 2023 13:54:30 GMT-0400 (Eastern Daylight Time)","630556","Untrustworthy,Trustworthy","","841","","","","decision","","<div class='trialDiv'><img src='trustrating_stim/white_mw099.bmp'><br><font class='baseline'><strong>Jordan</strong><p>Choose number of points to send.</font><div class='respPicDiv'><img src='img/responseButtonOffersNo0L.png' class='respPic'></div></div>","1","7","Jordan","7","Shared","0.35,0.8","9","0.35","trustrating_stim/white_mw099.bmp","2.5","127","20"
"html-keyboard-response","195","356053","0.0-19.0-2.19","5fcecd70db3ccb1a7f9331c9","bdp_trlrn","Mon Mar 13 2023 13:54:30 GMT-0400 (Eastern Daylight Time)","630556","Untrustworthy,Trustworthy","","null","","","","decisionFB","","<div class='trialDiv'><img src='trustrating_stim/white_mw099.bmp'><br><font class='baseline'><strong>Jordan</strong><p>Choose number of points to send.</font><div class='respPicDiv'><img src='img/responseButtonOffersNo0L1.png' class='respPic'></div></div>","null","7","Jordan","7","Shared","0.35,0.8","9","0.35","trustrating_stim/white_mw099.bmp","2.5","126","20"
"html-keyboard-response","196","357061","0.0-19.0-3.19","5fcecd70db3ccb1a7f9331c9","bdp_trlrn","Mon Mar 13 2023 13:54:30 GMT-0400 (Eastern Daylight Time)","630556","Untrustworthy,Trustworthy","","null","","","","feedback","","<div class='trialDiv'><img src='trustrating_stim/white_mw099.bmp'><br><font class='baseline'><strong>Jordan</strong><p>Received: <strong>4</strong></font> &nbsp; &nbsp; &nbsp; &nbsp; &nbsp; &nbsp;<font class='posOutcome'>Shared back: <strong>2</strong></font></font><div class='respPicDiv'><img src='img/responseButtonOffersNo0_wht.png' class='respPic'></div></div>","null","7","Jordan","7","Shared","0.35,0.8","9","0.35","trustrating_stim/white_mw099.bmp","2.5","128","20"
"html-keyboard-response","197","358205","0.0-19.0-1.20","5fcecd70db3ccb1a7f9331c9","bdp_trlrn","Mon Mar 13 2023 13:54:30 GMT-0400 (Eastern Daylight Time)","630556","Untrustworthy,Trustworthy","","1143","","","","decision","","<div class='trialDiv'><img src='trustrating_stim/white_00757_941201_fa_edt.bmp'><br><font class='baseline'><strong>Timothy</strong><p>Choose number of points to send.</font><div class='respPicDiv'><img src='img/responseButtonOffersNo0L.png' class='respPic'></div></div>","2","7","Timothy","2","Shared","0.65,0.2","9","0.65","trustrating_stim/white_00757_941201_fa_edt.bmp","2","133","21"
"html-keyboard-response","198","358460","0.0-19.0-2.20","5fcecd70db3ccb1a7f9331c9","bdp_trlrn","Mon Mar 13 2023 13:54:30 GMT-0400 (Eastern Daylight Time)","630556","Untrustworthy,Trustworthy","","null","","","","decisionFB","","<div class='trialDiv'><img src='trustrating_stim/white_00757_941201_fa_edt.bmp'><br><font class='baseline'><strong>Timothy</strong><p>Choose number of points to send.</font><div class='respPicDiv'><img src='img/responseButtonOffersNo0L2.png' class='respPic'></div></div>","null","7","Timothy","2","Shared","0.65,0.2","9","0.65","trustrating_stim/white_00757_941201_fa_edt.bmp","2","131","21"
"html-keyboard-response","199","359467","0.0-19.0-3.20","5fcecd70db3ccb1a7f9331c9","bdp_trlrn","Mon Mar 13 2023 13:54:30 GMT-0400 (Eastern Daylight Time)","630556","Untrustworthy,Trustworthy","","null","","","","feedback","","<div class='trialDiv'><img src='trustrating_stim/white_00757_941201_fa_edt.bmp'><br><font class='baseline'><strong>Timothy</strong><p>Received: <strong>8</strong></font> &nbsp; &nbsp; &nbsp; &nbsp; &nbsp; &nbsp;<font class='posOutcome'>Shared back: <strong>4</strong></font></font><div class='respPicDiv'><img src='img/responseButtonOffersNo0_wht.png' class='respPic'></div></div>","null","7","Timothy","2","Shared","0.65,0.2","9","0.65","trustrating_stim/white_00757_941201_fa_edt.bmp","2","135","21"
"html-keyboard-response","200","360947","0.0-19.0-1.21","5fcecd70db3ccb1a7f9331c9","bdp_trlrn","Mon Mar 13 2023 13:54:30 GMT-0400 (Eastern Daylight Time)","630556","Untrustworthy,Trustworthy","","1479","","","","decision","","<div class='trialDiv'><img src='trustrating_stim/white_mw099.bmp'><br><font class='baseline'><strong>Jordan</strong><p>Choose number of points to send.</font><div class='respPicDiv'><img src='img/responseButtonOffersNo0L.png' class='respPic'></div></div>","2","8","Jordan","7","Kept","0.35,0.8","9","0.35","trustrating_stim/white_mw099.bmp","2.5","140","22"
"html-keyboard-response","201","361205","0.0-19.0-2.21","5fcecd70db3ccb1a7f9331c9","bdp_trlrn","Mon Mar 13 2023 13:54:30 GMT-0400 (Eastern Daylight Time)","630556","Untrustworthy,Trustworthy","","null","","","","decisionFB","","<div class='trialDiv'><img src='trustrating_stim/white_mw099.bmp'><br><font class='baseline'><strong>Jordan</strong><p>Choose number of points to send.</font><div class='respPicDiv'><img src='img/responseButtonOffersNo0L2.png' class='respPic'></div></div>","null","8","Jordan","7","Kept","0.35,0.8","9","0.35","trustrating_stim/white_mw099.bmp","2.5","138","22"
"html-keyboard-response","202","362212","0.0-19.0-3.21","5fcecd70db3ccb1a7f9331c9","bdp_trlrn","Mon Mar 13 2023 13:54:30 GMT-0400 (Eastern Daylight Time)","630556","Untrustworthy,Trustworthy","","null","","","","feedback","","<div class='trialDiv'><img src='trustrating_stim/white_mw099.bmp'><br><font class='baseline'><strong>Jordan</strong><p>Received: <strong>8</strong></font> &nbsp; &nbsp; &nbsp; &nbsp; &nbsp; &nbsp;<font class='negOutcome'>Shared back: <strong>0</strong></font></font><div class='respPicDiv'><img src='img/responseButtonOffersNo0_wht.png' class='respPic'></div></div>","null","8","Jordan","7","Kept","0.35,0.8","9","0.35","trustrating_stim/white_mw099.bmp","2.5","138","22"
"html-keyboard-response","203","362832","0.0-19.0-1.22","5fcecd70db3ccb1a7f9331c9","bdp_trlrn","Mon Mar 13 2023 13:54:30 GMT-0400 (Eastern Daylight Time)","630556","Untrustworthy,Trustworthy","","619","","","","decision","","<div class='trialDiv'><img src='trustrating_stim/white_mw056.bmp'><br><font class='baseline'><strong>Gavin</strong><p>Choose number of points to send.</font><div class='respPicDiv'><img src='img/responseButtonOffersNo0L.png' class='respPic'></div></div>","5","8","Gavin","9","Kept","0.35,0.65","9","0.35","trustrating_stim/white_mw056.bmp","6","143","23"
"html-keyboard-response","204","363097","0.0-19.0-2.22","5fcecd70db3ccb1a7f9331c9","bdp_trlrn","Mon Mar 13 2023 13:54:30 GMT-0400 (Eastern Daylight Time)","630556","Untrustworthy,Trustworthy","","null","","","","decisionFB","","<div class='trialDiv'><img src='trustrating_stim/white_mw056.bmp'><br><font class='baseline'><strong>Gavin</strong><p>Choose number of points to send.</font><div class='respPicDiv'><img src='img/responseButtonOffersNo0L5.png' class='respPic'></div></div>","null","8","Gavin","9","Kept","0.35,0.65","9","0.35","trustrating_stim/white_mw056.bmp","6","138","23"
"html-keyboard-response","205","364099","0.0-19.0-3.22","5fcecd70db3ccb1a7f9331c9","bdp_trlrn","Mon Mar 13 2023 13:54:30 GMT-0400 (Eastern Daylight Time)","630556","Untrustworthy,Trustworthy","","null","","","","feedback","","<div class='trialDiv'><img src='trustrating_stim/white_mw056.bmp'><br><font class='baseline'><strong>Gavin</strong><p>Received: <strong>20</strong></font> &nbsp; &nbsp; &nbsp; &nbsp; &nbsp; &nbsp;<font class='negOutcome'>Shared back: <strong>0</strong></font></font><div class='respPicDiv'><img src='img/responseButtonOffersNo0_wht.png' class='respPic'></div></div>","null","8","Gavin","9","Kept","0.35,0.65","9","0.35","trustrating_stim/white_mw056.bmp","6","138","23"
"html-keyboard-response","206","365253","0.0-19.0-1.23","5fcecd70db3ccb1a7f9331c9","bdp_trlrn","Mon Mar 13 2023 13:54:30 GMT-0400 (Eastern Daylight Time)","630556","Untrustworthy,Trustworthy","","1153","","","","decision","","<div class='trialDiv'><img src='trustrating_stim/white_00757_941201_fa_edt.bmp'><br><font class='baseline'><strong>Timothy</strong><p>Choose number of points to send.</font><div class='respPicDiv'><img src='img/responseButtonOffersNo0L.png' class='respPic'></div></div>","3","8","Timothy","2","Shared","0.65,0.2","9","0.65","trustrating_stim/white_00757_941201_fa_edt.bmp","2","143","24"
"html-keyboard-response","207","365508","0.0-19.0-2.23","5fcecd70db3ccb1a7f9331c9","bdp_trlrn","Mon Mar 13 2023 13:54:30 GMT-0400 (Eastern Daylight Time)","630556","Untrustworthy,Trustworthy","","null","","","","decisionFB","","<div class='trialDiv'><img src='trustrating_stim/white_00757_941201_fa_edt.bmp'><br><font class='baseline'><strong>Timothy</strong><p>Choose number of points to send.</font><div class='respPicDiv'><img src='img/responseButtonOffersNo0L3.png' class='respPic'></div></div>","null","8","Timothy","2","Shared","0.65,0.2","9","0.65","trustrating_stim/white_00757_941201_fa_edt.bmp","2","140","24"
"html-keyboard-response","208","366515","0.0-19.0-3.23","5fcecd70db3ccb1a7f9331c9","bdp_trlrn","Mon Mar 13 2023 13:54:30 GMT-0400 (Eastern Daylight Time)","630556","Untrustworthy,Trustworthy","","null","","","","feedback","","<div class='trialDiv'><img src='trustrating_stim/white_00757_941201_fa_edt.bmp'><br><font class='baseline'><strong>Timothy</strong><p>Received: <strong>12</strong></font> &nbsp; &nbsp; &nbsp; &nbsp; &nbsp; &nbsp;<font class='posOutcome'>Shared back: <strong>6</strong></font></font><div class='respPicDiv'><img src='img/responseButtonOffersNo0_wht.png' class='respPic'></div></div>","null","8","Timothy","2","Shared","0.65,0.2","9","0.65","trustrating_stim/white_00757_941201_fa_edt.bmp","2","146","24"
"html-keyboard-response","209","367145","0.0-19.0-1.24","5fcecd70db3ccb1a7f9331c9","bdp_trlrn","Mon Mar 13 2023 13:54:30 GMT-0400 (Eastern Daylight Time)","630556","Untrustworthy,Trustworthy","","629","","","","decision","","<div class='trialDiv'><img src='trustrating_stim/white_mw056.bmp'><br><font class='baseline'><strong>Gavin</strong><p>Choose number of points to send.</font><div class='respPicDiv'><img src='img/responseButtonOffersNo0L.png' class='respPic'></div></div>","5","9","Gavin","9","Shared","0.35,0.65","9","0.35","trustrating_stim/white_mw056.bmp","6","151","25"
"html-keyboard-response","210","367404","0.0-19.0-2.24","5fcecd70db3ccb1a7f9331c9","bdp_trlrn","Mon Mar 13 2023 13:54:30 GMT-0400 (Eastern Daylight Time)","630556","Untrustworthy,Trustworthy","","null","","","","decisionFB","","<div class='trialDiv'><img src='trustrating_stim/white_mw056.bmp'><br><font class='baseline'><strong>Gavin</strong><p>Choose number of points to send.</font><div class='respPicDiv'><img src='img/responseButtonOffersNo0L5.png' class='respPic'></div></div>","null","9","Gavin","9","Shared","0.35,0.65","9","0.35","trustrating_stim/white_mw056.bmp","6","146","25"
"html-keyboard-response","211","368412","0.0-19.0-3.24","5fcecd70db3ccb1a7f9331c9","bdp_trlrn","Mon Mar 13 2023 13:54:30 GMT-0400 (Eastern Daylight Time)","630556","Untrustworthy,Trustworthy","","null","","","","feedback","","<div class='trialDiv'><img src='trustrating_stim/white_mw056.bmp'><br><font class='baseline'><strong>Gavin</strong><p>Received: <strong>20</strong></font> &nbsp; &nbsp; &nbsp; &nbsp; &nbsp; &nbsp;<font class='posOutcome'>Shared back: <strong>10</strong></font></font><div class='respPicDiv'><img src='img/responseButtonOffersNo0_wht.png' class='respPic'></div></div>","null","9","Gavin","9","Shared","0.35,0.65","9","0.35","trustrating_stim/white_mw056.bmp","6","156","25"
"html-keyboard-response","212","368981","0.0-19.0-1.25","5fcecd70db3ccb1a7f9331c9","bdp_trlrn","Mon Mar 13 2023 13:54:30 GMT-0400 (Eastern Daylight Time)","630556","Untrustworthy,Trustworthy","","567","","","","decision","","<div class='trialDiv'><img src='trustrating_stim/white_mw099.bmp'><br><font class='baseline'><strong>Jordan</strong><p>Choose number of points to send.</font><div class='respPicDiv'><img src='img/responseButtonOffersNo0L.png' class='respPic'></div></div>","1","9","Jordan","7","Kept","0.35,0.8","9","0.35","trustrating_stim/white_mw099.bmp","2.5","161","26"
"html-keyboard-response","213","369236","0.0-19.0-2.25","5fcecd70db3ccb1a7f9331c9","bdp_trlrn","Mon Mar 13 2023 13:54:30 GMT-0400 (Eastern Daylight Time)","630556","Untrustworthy,Trustworthy","","null","","","","decisionFB","","<div class='trialDiv'><img src='trustrating_stim/white_mw099.bmp'><br><font class='baseline'><strong>Jordan</strong><p>Choose number of points to send.</font><div class='respPicDiv'><img src='img/responseButtonOffersNo0L1.png' class='respPic'></div></div>","null","9","Jordan","7","Kept","0.35,0.8","9","0.35","trustrating_stim/white_mw099.bmp","2.5","160","26"
"html-keyboard-response","214","370244","0.0-19.0-3.25","5fcecd70db3ccb1a7f9331c9","bdp_trlrn","Mon Mar 13 2023 13:54:30 GMT-0400 (Eastern Daylight Time)","630556","Untrustworthy,Trustworthy","","null","","","","feedback","","<div class='trialDiv'><img src='trustrating_stim/white_mw099.bmp'><br><font class='baseline'><strong>Jordan</strong><p>Received: <strong>4</strong></font> &nbsp; &nbsp; &nbsp; &nbsp; &nbsp; &nbsp;<font class='negOutcome'>Shared back: <strong>0</strong></font></font><div class='respPicDiv'><img src='img/responseButtonOffersNo0_wht.png' class='respPic'></div></div>","null","9","Jordan","7","Kept","0.35,0.8","9","0.35","trustrating_stim/white_mw099.bmp","2.5","160","26"
"html-keyboard-response","215","370851","0.0-19.0-1.26","5fcecd70db3ccb1a7f9331c9","bdp_trlrn","Mon Mar 13 2023 13:54:30 GMT-0400 (Eastern Daylight Time)","630556","Untrustworthy,Trustworthy","","606","","","","decision","","<div class='trialDiv'><img src='trustrating_stim/white_00757_941201_fa_edt.bmp'><br><font class='baseline'><strong>Timothy</strong><p>Choose number of points to send.</font><div class='respPicDiv'><img src='img/responseButtonOffersNo0L.png' class='respPic'></div></div>","3","9","Timothy","2","Kept","0.65,0.2","9","0.65","trustrating_stim/white_00757_941201_fa_edt.bmp","2","165","27"
"html-keyboard-response","216","371108","0.0-19.0-2.26","5fcecd70db3ccb1a7f9331c9","bdp_trlrn","Mon Mar 13 2023 13:54:30 GMT-0400 (Eastern Daylight Time)","630556","Untrustworthy,Trustworthy","","null","","","","decisionFB","","<div class='trialDiv'><img src='trustrating_stim/white_00757_941201_fa_edt.bmp'><br><font class='baseline'><strong>Timothy</strong><p>Choose number of points to send.</font><div class='respPicDiv'><img src='img/responseButtonOffersNo0L3.png' class='respPic'></div></div>","null","9","Timothy","2","Kept","0.65,0.2","9","0.65","trustrating_stim/white_00757_941201_fa_edt.bmp","2","162","27"
"html-keyboard-response","217","372116","0.0-19.0-3.26","5fcecd70db3ccb1a7f9331c9","bdp_trlrn","Mon Mar 13 2023 13:54:30 GMT-0400 (Eastern Daylight Time)","630556","Untrustworthy,Trustworthy","","null","","","","feedback","","<div class='trialDiv'><img src='trustrating_stim/white_00757_941201_fa_edt.bmp'><br><font class='baseline'><strong>Timothy</strong><p>Received: <strong>12</strong></font> &nbsp; &nbsp; &nbsp; &nbsp; &nbsp; &nbsp;<font class='negOutcome'>Shared back: <strong>0</strong></font></font><div class='respPicDiv'><img src='img/responseButtonOffersNo0_wht.png' class='respPic'></div></div>","null","9","Timothy","2","Kept","0.65,0.2","9","0.65","trustrating_stim/white_00757_941201_fa_edt.bmp","2","162","27"
"html-keyboard-response","218","372788","0.0-19.0-1.27","5fcecd70db3ccb1a7f9331c9","bdp_trlrn","Mon Mar 13 2023 13:54:30 GMT-0400 (Eastern Daylight Time)","630556","Untrustworthy,Trustworthy","","671","","","","decision","","<div class='trialDiv'><img src='trustrating_stim/white_mw099.bmp'><br><font class='baseline'><strong>Jordan</strong><p>Choose number of points to send.</font><div class='respPicDiv'><img src='img/responseButtonOffersNo0L.png' class='respPic'></div></div>","1","10","Jordan","7","Shared","0.35,0.8","9","0.35","trustrating_stim/white_mw099.bmp","2.5","167","28"
"html-keyboard-response","219","373044","0.0-19.0-2.27","5fcecd70db3ccb1a7f9331c9","bdp_trlrn","Mon Mar 13 2023 13:54:30 GMT-0400 (Eastern Daylight Time)","630556","Untrustworthy,Trustworthy","","null","","","","decisionFB","","<div class='trialDiv'><img src='trustrating_stim/white_mw099.bmp'><br><font class='baseline'><strong>Jordan</strong><p>Choose number of points to send.</font><div class='respPicDiv'><img src='img/responseButtonOffersNo0L1.png' class='respPic'></div></div>","null","10","Jordan","7","Shared","0.35,0.8","9","0.35","trustrating_stim/white_mw099.bmp","2.5","166","28"
"html-keyboard-response","220","374052","0.0-19.0-3.27","5fcecd70db3ccb1a7f9331c9","bdp_trlrn","Mon Mar 13 2023 13:54:30 GMT-0400 (Eastern Daylight Time)","630556","Untrustworthy,Trustworthy","","null","","","","feedback","","<div class='trialDiv'><img src='trustrating_stim/white_mw099.bmp'><br><font class='baseline'><strong>Jordan</strong><p>Received: <strong>4</strong></font> &nbsp; &nbsp; &nbsp; &nbsp; &nbsp; &nbsp;<font class='posOutcome'>Shared back: <strong>2</strong></font></font><div class='respPicDiv'><img src='img/responseButtonOffersNo0_wht.png' class='respPic'></div></div>","null","10","Jordan","7","Shared","0.35,0.8","9","0.35","trustrating_stim/white_mw099.bmp","2.5","168","28"
"html-keyboard-response","221","374755","0.0-19.0-1.28","5fcecd70db3ccb1a7f9331c9","bdp_trlrn","Mon Mar 13 2023 13:54:30 GMT-0400 (Eastern Daylight Time)","630556","Untrustworthy,Trustworthy","","702","","","","decision","","<div class='trialDiv'><img src='trustrating_stim/white_00757_941201_fa_edt.bmp'><br><font class='baseline'><strong>Timothy</strong><p>Choose number of points to send.</font><div class='respPicDiv'><img src='img/responseButtonOffersNo0L.png' class='respPic'></div></div>","5","10","Timothy","2","Kept","0.65,0.2","9","0.65","trustrating_stim/white_00757_941201_fa_edt.bmp","2","173","29"
