"trial_type","trial_index","time_elapsed","internal_node_id","subject_id","task","startTime","totalTime","labels","view_history","rt","event","trial","time","trialtype","success","stimulus","key_press","aground","name","faceID","outcome","agenttype","agentswpt","agentcurrpshare","face","avgRating","point_total","round"
"pavlovia","0","9","0.0-0.0","5fb7c9fa2be0a83d8f8913b8","bdp_trlrn","Sun Mar 12 2023 20:58:13 GMT-0700 (PDT)","603406","Trustworthy,Untrustworthy","","","","","","","","","","","","","","","","","","","",""
"instructions","1","4837","0.0-1.0","5fb7c9fa2be0a83d8f8913b8","bdp_trlrn","Sun Mar 12 2023 20:58:13 GMT-0700 (PDT)","603406","Trustworthy,Untrustworthy","[{""page_index"":0,""viewing_time"":4826}]","4826","","","","","","","","","","","","","","","","","",""
"","","","","5fb7c9fa2be0a83d8f8913b8","bdp_trlrn","Sun Mar 12 2023 20:58:13 GMT-0700 (PDT)","603406","Trustworthy,Untrustworthy","","","fullscreenenter","2","8970","fullscreenenter","","","","","","","","","","","","","",""
"fullscreen","2","9727","0.0-2.0","5fb7c9fa2be0a83d8f8913b8","bdp_trlrn","Sun Mar 12 2023 20:58:13 GMT-0700 (PDT)","603406","Trustworthy,Untrustworthy","","","","","","","true","","","","","","","","","","","","",""
"instructions","3","34488","0.0-4.0","5fb7c9fa2be0a83d8f8913b8","bdp_trlrn","Sun Mar 12 2023 20:58:13 GMT-0700 (PDT)","603406","Trustworthy,Untrustworthy","[{""page_index"":0,""viewing_time"":14967},{""page_index"":1,""viewing_time"":9792}]","24759","","","","","","","","","","","","","","","","","",""
"instructions","4","35714","0.0-5.0","5fb7c9fa2be0a83d8f8913b8","bdp_trlrn","Sun Mar 12 2023 20:58:13 GMT-0700 (PDT)","603406","Trustworthy,Untrustworthy","[{""page_index"":0,""viewing_time"":1224}]","1225","","","","","","","","","","","","","","","","","",""
"image-keyboard-response","5","37986","0.0-6.0-1.0","5fb7c9fa2be0a83d8f8913b8","bdp_trlrn","Sun Mar 12 2023 20:58:13 GMT-0700 (PDT)","603406","Trustworthy,Untrustworthy","","2168","","","","rating","","trustrating_stim/white_00340_940422_fa_edt.bmp","1","","","","","","","","","","",""
"image-keyboard-response","6","38189","0.0-6.0-2.0","5fb7c9fa2be0a83d8f8913b8","bdp_trlrn","Sun Mar 12 2023 20:58:13 GMT-0700 (PDT)","603406","Trustworthy,Untrustworthy","","null","","","","ratingFB","","trustrating_stim/white_00340_940422_fa_edt.bmp","null","","","","","","","","","","",""
"image-keyboard-response","7","40631","0.0-6.0-1.1","5fb7c9fa2be0a83d8f8913b8","bdp_trlrn","Sun Mar 12 2023 20:58:13 GMT-0700 (PDT)","603406","Trustworthy,Untrustworthy","","2338","","","","rating","","trustrating_stim/white_mw084.bmp","1","","","","","","","","","","",""
"image-keyboard-response","8","40834","0.0-6.0-2.1","5fb7c9fa2be0a83d8f8913b8","bdp_trlrn","Sun Mar 12 2023 20:58:13 GMT-0700 (PDT)","603406","Trustworthy,Untrustworthy","","null","","","","ratingFB","","trustrating_stim/white_mw084.bmp","null","","","","","","","","","","",""
"image-keyboard-response","9","41770","0.0-6.0-1.2","5fb7c9fa2be0a83d8f8913b8","bdp_trlrn","Sun Mar 12 2023 20:58:13 GMT-0700 (PDT)","603406","Trustworthy,Untrustworthy","","834","","","","rating","","trustrating_stim/white_00785_941205_fb_edt.bmp","1","","","","","","","","","","",""
"image-keyboard-response","10","41973","0.0-6.0-2.2","5fb7c9fa2be0a83d8f8913b8","bdp_trlrn","Sun Mar 12 2023 20:58:13 GMT-0700 (PDT)","603406","Trustworthy,Untrustworthy","","null","","","","ratingFB","","trustrating_stim/white_00785_941205_fb_edt.bmp","null","","","","","","","","","","",""
"image-keyboard-response","11","43868","0.0-6.0-1.3","5fb7c9fa2be0a83d8f8913b8","bdp_trlrn","Sun Mar 12 2023 20:58:13 GMT-0700 (PDT)","603406","Trustworthy,Untrustworthy","","1793","","","","rating","","trustrating_stim/white_00602_940928_fb_edt.bmp","3","","","","","","","","","","",""
"image-keyboard-response","12","44070","0.0-6.0-2.3","5fb7c9fa2be0a83d8f8913b8","bdp_trlrn","Sun Mar 12 2023 20:58:13 GMT-0700 (PDT)","603406","Trustworthy,Untrustworthy","","null","","","","ratingFB","","trustrating_stim/white_00602_940928_fb_edt.bmp","null","","","","","","","","","","",""
"image-keyboard-response","13","45156","0.0-6.0-1.4","5fb7c9fa2be0a83d8f8913b8","bdp_trlrn","Sun Mar 12 2023 20:58:13 GMT-0700 (PDT)","603406","Trustworthy,Untrustworthy","","984","","","","rating","","trustrating_stim/white_00659_941121_fa_edt.bmp","1","","","","","","","","","","",""
"image-keyboard-response","14","45359","0.0-6.0-2.4","5fb7c9fa2be0a83d8f8913b8","bdp_trlrn","Sun Mar 12 2023 20:58:13 GMT-0700 (PDT)","603406","Trustworthy,Untrustworthy","","null","","","","ratingFB","","trustrating_stim/white_00659_941121_fa_edt.bmp","null","","","","","","","","","","",""
"image-keyboard-response","15","46414","0.0-6.0-1.5","5fb7c9fa2be0a83d8f8913b8","bdp_trlrn","Sun Mar 12 2023 20:58:13 GMT-0700 (PDT)","603406","Trustworthy,Untrustworthy","","952","","","","rating","","trustrating_stim/white_00577_940928_fa_edt.bmp","1","","","","","","","","","","",""
"image-keyboard-response","16","46616","0.0-6.0-2.5","5fb7c9fa2be0a83d8f8913b8","bdp_trlrn","Sun Mar 12 2023 20:58:13 GMT-0700 (PDT)","603406","Trustworthy,Untrustworthy","","null","","","","ratingFB","","trustrating_stim/white_00577_940928_fa_edt.bmp","null","","","","","","","","","","",""
"image-keyboard-response","17","48050","0.0-6.0-1.6","5fb7c9fa2be0a83d8f8913b8","bdp_trlrn","Sun Mar 12 2023 20:58:13 GMT-0700 (PDT)","603406","Trustworthy,Untrustworthy","","1331","","","","rating","","trustrating_stim/white_mw056.bmp","2","","","","","","","","","","",""
"image-keyboard-response","18","48253","0.0-6.0-2.6","5fb7c9fa2be0a83d8f8913b8","bdp_trlrn","Sun Mar 12 2023 20:58:13 GMT-0700 (PDT)","603406","Trustworthy,Untrustworthy","","null","","","","ratingFB","","trustrating_stim/white_mw056.bmp","null","","","","","","","","","","",""
"image-keyboard-response","19","49621","0.0-6.0-1.7","5fb7c9fa2be0a83d8f8913b8","bdp_trlrn","Sun Mar 12 2023 20:58:13 GMT-0700 (PDT)","603406","Trustworthy,Untrustworthy","","1265","","","","rating","","trustrating_stim/white_mw099.bmp","2","","","","","","","","","","",""
"image-keyboard-response","20","49823","0.0-6.0-2.7","5fb7c9fa2be0a83d8f8913b8","bdp_trlrn","Sun Mar 12 2023 20:58:13 GMT-0700 (PDT)","603406","Trustworthy,Untrustworthy","","null","","","","ratingFB","","trustrating_stim/white_mw099.bmp","null","","","","","","","","","","",""
"image-keyboard-response","21","50974","0.0-6.0-1.8","5fb7c9fa2be0a83d8f8913b8","bdp_trlrn","Sun Mar 12 2023 20:58:13 GMT-0700 (PDT)","603406","Trustworthy,Untrustworthy","","1049","","","","rating","","trustrating_stim/white_mw046.bmp","1","","","","","","","","","","",""
"image-keyboard-response","22","51176","0.0-6.0-2.8","5fb7c9fa2be0a83d8f8913b8","bdp_trlrn","Sun Mar 12 2023 20:58:13 GMT-0700 (PDT)","603406","Trustworthy,Untrustworthy","","null","","","","ratingFB","","trustrating_stim/white_mw046.bmp","null","","","","","","","","","","",""
"image-keyboard-response","23","52464","0.0-6.0-1.9","5fb7c9fa2be0a83d8f8913b8","bdp_trlrn","Sun Mar 12 2023 20:58:13 GMT-0700 (PDT)","603406","Trustworthy,Untrustworthy","","1184","","","","rating","","trustrating_stim/white_00120_931230_fa_edt.bmp","1","","","","","","","","","","",""
"image-keyboard-response","24","52666","0.0-6.0-2.9","5fb7c9fa2be0a83d8f8913b8","bdp_trlrn","Sun Mar 12 2023 20:58:13 GMT-0700 (PDT)","603406","Trustworthy,Untrustworthy","","null","","","","ratingFB","","trustrating_stim/white_00120_931230_fa_edt.bmp","null","","","","","","","","","","",""
"image-keyboard-response","25","53722","0.0-6.0-1.10","5fb7c9fa2be0a83d8f8913b8","bdp_trlrn","Sun Mar 12 2023 20:58:13 GMT-0700 (PDT)","603406","Trustworthy,Untrustworthy","","953","","","","rating","","trustrating_stim/white_00223_940128_fb_edt.bmp","1","","","","","","","","","","",""
"image-keyboard-response","26","53924","0.0-6.0-2.10","5fb7c9fa2be0a83d8f8913b8","bdp_trlrn","Sun Mar 12 2023 20:58:13 GMT-0700 (PDT)","603406","Trustworthy,Untrustworthy","","null","","","","ratingFB","","trustrating_stim/white_00223_940128_fb_edt.bmp","null","","","","","","","","","","",""
"image-keyboard-response","27","55252","0.0-6.0-1.11","5fb7c9fa2be0a83d8f8913b8","bdp_trlrn","Sun Mar 12 2023 20:58:13 GMT-0700 (PDT)","603406","Trustworthy,Untrustworthy","","1225","","","","rating","","trustrating_stim/white_mw049.bmp","3","","","","","","","","","","",""
"image-keyboard-response","28","55454","0.0-6.0-2.11","5fb7c9fa2be0a83d8f8913b8","bdp_trlrn","Sun Mar 12 2023 20:58:13 GMT-0700 (PDT)","603406","Trustworthy,Untrustworthy","","null","","","","ratingFB","","trustrating_stim/white_mw049.bmp","null","","","","","","","","","","",""
"image-keyboard-response","29","56338","0.0-6.0-1.12","5fb7c9fa2be0a83d8f8913b8","bdp_trlrn","Sun Mar 12 2023 20:58:13 GMT-0700 (PDT)","603406","Trustworthy,Untrustworthy","","780","","","","rating","","trustrating_stim/white_mw048.bmp","1","","","","","","","","","","",""
"image-keyboard-response","30","56540","0.0-6.0-2.12","5fb7c9fa2be0a83d8f8913b8","bdp_trlrn","Sun Mar 12 2023 20:58:13 GMT-0700 (PDT)","603406","Trustworthy,Untrustworthy","","null","","","","ratingFB","","trustrating_stim/white_mw048.bmp","null","","","","","","","","","","",""
"image-keyboard-response","31","57455","0.0-6.0-1.13","5fb7c9fa2be0a83d8f8913b8","bdp_trlrn","Sun Mar 12 2023 20:58:13 GMT-0700 (PDT)","603406","Trustworthy,Untrustworthy","","812","","","","rating","","trustrating_stim/white_mw063.bmp","1","","","","","","","","","","",""
"image-keyboard-response","32","57657","0.0-6.0-2.13","5fb7c9fa2be0a83d8f8913b8","bdp_trlrn","Sun Mar 12 2023 20:58:13 GMT-0700 (PDT)","603406","Trustworthy,Untrustworthy","","null","","","","ratingFB","","trustrating_stim/white_mw063.bmp","null","","","","","","","","","","",""
"image-keyboard-response","33","58898","0.0-6.0-1.14","5fb7c9fa2be0a83d8f8913b8","bdp_trlrn","Sun Mar 12 2023 20:58:13 GMT-0700 (PDT)","603406","Trustworthy,Untrustworthy","","1137","","","","rating","","trustrating_stim/white_mw089.bmp","1","","","","","","","","","","",""
"image-keyboard-response","34","59100","0.0-6.0-2.14","5fb7c9fa2be0a83d8f8913b8","bdp_trlrn","Sun Mar 12 2023 20:58:13 GMT-0700 (PDT)","603406","Trustworthy,Untrustworthy","","null","","","","ratingFB","","trustrating_stim/white_mw089.bmp","null","","","","","","","","","","",""
"image-keyboard-response","35","60441","0.0-6.0-1.15","5fb7c9fa2be0a83d8f8913b8","bdp_trlrn","Sun Mar 12 2023 20:58:13 GMT-0700 (PDT)","603406","Trustworthy,Untrustworthy","","1237","","","","rating","","trustrating_stim/white_mw066.bmp","2","","","","","","","","","","",""
"image-keyboard-response","36","60643","0.0-6.0-2.15","5fb7c9fa2be0a83d8f8913b8","bdp_trlrn","Sun Mar 12 2023 20:58:13 GMT-0700 (PDT)","603406","Trustworthy,Untrustworthy","","null","","","","ratingFB","","trustrating_stim/white_mw066.bmp","null","","","","","","","","","","",""
"image-keyboard-response","37","61681","0.0-6.0-1.16","5fb7c9fa2be0a83d8f8913b8","bdp_trlrn","Sun Mar 12 2023 20:58:13 GMT-0700 (PDT)","603406","Trustworthy,Untrustworthy","","935","","","","rating","","trustrating_stim/white_mw060.bmp","1","","","","","","","","","","",""
"image-keyboard-response","38","61883","0.0-6.0-2.16","5fb7c9fa2be0a83d8f8913b8","bdp_trlrn","Sun Mar 12 2023 20:58:13 GMT-0700 (PDT)","603406","Trustworthy,Untrustworthy","","null","","","","ratingFB","","trustrating_stim/white_mw060.bmp","null","","","","","","","","","","",""
"image-keyboard-response","39","62720","0.0-6.0-1.17","5fb7c9fa2be0a83d8f8913b8","bdp_trlrn","Sun Mar 12 2023 20:58:13 GMT-0700 (PDT)","603406","Trustworthy,Untrustworthy","","734","","","","rating","","trustrating_stim/white_00757_941201_fa_edt.bmp","1","","","","","","","","","","",""
"image-keyboard-response","40","62923","0.0-6.0-2.17","5fb7c9fa2be0a83d8f8913b8","bdp_trlrn","Sun Mar 12 2023 20:58:13 GMT-0700 (PDT)","603406","Trustworthy,Untrustworthy","","null","","","","ratingFB","","trustrating_stim/white_00757_941201_fa_edt.bmp","null","","","","","","","","","","",""
"image-keyboard-response","41","64169","0.0-6.0-1.18","5fb7c9fa2be0a83d8f8913b8","bdp_trlrn","Sun Mar 12 2023 20:58:13 GMT-0700 (PDT)","603406","Trustworthy,Untrustworthy","","1143","","","","rating","","trustrating_stim/white_mw033.bmp","2","","","","","","","","","","",""
"image-keyboard-response","42","64373","0.0-6.0-2.18","5fb7c9fa2be0a83d8f8913b8","bdp_trlrn","Sun Mar 12 2023 20:58:13 GMT-0700 (PDT)","603406","Trustworthy,Untrustworthy","","null","","","","ratingFB","","trustrating_stim/white_mw033.bmp","null","","","","","","","","","","",""
"image-keyboard-response","43","65603","0.0-6.0-1.19","5fb7c9fa2be0a83d8f8913b8","bdp_trlrn","Sun Mar 12 2023 20:58:13 GMT-0700 (PDT)","603406","Trustworthy,Untrustworthy","","1126","","","","rating","","trustrating_stim/white_mw071.bmp","1","","","","","","","","","","",""
"image-keyboard-response","44","65805","0.0-6.0-2.19","5fb7c9fa2be0a83d8f8913b8","bdp_trlrn","Sun Mar 12 2023 20:58:13 GMT-0700 (PDT)","603406","Trustworthy,Untrustworthy","","null","","","","ratingFB","","trustrating_stim/white_mw071.bmp","null","","","","","","","","","","",""
"image-keyboard-response","45","67058","0.0-6.0-1.20","5fb7c9fa2be0a83d8f8913b8","bdp_trlrn","Sun Mar 12 2023 20:58:13 GMT-0700 (PDT)","603406","Trustworthy,Untrustworthy","","1151","","","","rating","","trustrating_stim/white_00299_940422_fa_edt.bmp","2","","","","","","","","","","",""
"image-keyboard-response","46","67261","0.0-6.0-2.20","5fb7c9fa2be0a83d8f8913b8","bdp_trlrn","Sun Mar 12 2023 20:58:13 GMT-0700 (PDT)","603406","Trustworthy,Untrustworthy","","null","","","","ratingFB","","trustrating_stim/white_00299_940422_fa_edt.bmp","null","","","","","","","","","","",""
"image-keyboard-response","47","68277","0.0-6.0-1.21","5fb7c9fa2be0a83d8f8913b8","bdp_trlrn","Sun Mar 12 2023 20:58:13 GMT-0700 (PDT)","603406","Trustworthy,Untrustworthy","","913","","","","rating","","trustrating_stim/white_mw097.bmp","1","","","","","","","","","","",""
"image-keyboard-response","48","68478","0.0-6.0-2.21","5fb7c9fa2be0a83d8f8913b8","bdp_trlrn","Sun Mar 12 2023 20:58:13 GMT-0700 (PDT)","603406","Trustworthy,Untrustworthy","","null","","","","ratingFB","","trustrating_stim/white_mw097.bmp","null","","","","","","","","","","",""
"image-keyboard-response","49","69742","0.0-6.0-1.22","5fb7c9fa2be0a83d8f8913b8","bdp_trlrn","Sun Mar 12 2023 20:58:13 GMT-0700 (PDT)","603406","Trustworthy,Untrustworthy","","1161","","","","rating","","trustrating_stim/white_mw035.bmp","1","","","","","","","","","","",""
"image-keyboard-response","50","69945","0.0-6.0-2.22","5fb7c9fa2be0a83d8f8913b8","bdp_trlrn","Sun Mar 12 2023 20:58:13 GMT-0700 (PDT)","603406","Trustworthy,Untrustworthy","","null","","","","ratingFB","","trustrating_stim/white_mw035.bmp","null","","","","","","","","","","",""
"image-keyboard-response","51","71041","0.0-6.0-1.23","5fb7c9fa2be0a83d8f8913b8","bdp_trlrn","Sun Mar 12 2023 20:58:13 GMT-0700 (PDT)","603406","Trustworthy,Untrustworthy","","994","","","","rating","","trustrating_stim/white_00807_941205_fb_edt.bmp","1","","","","","","","","","","",""
"image-keyboard-response","52","71244","0.0-6.0-2.23","5fb7c9fa2be0a83d8f8913b8","bdp_trlrn","Sun Mar 12 2023 20:58:13 GMT-0700 (PDT)","603406","Trustworthy,Untrustworthy","","null","","","","ratingFB","","trustrating_stim/white_00807_941205_fb_edt.bmp","null","","","","","","","","","","",""
"image-keyboard-response","53","72584","0.0-6.0-1.24","5fb7c9fa2be0a83d8f8913b8","bdp_trlrn","Sun Mar 12 2023 20:58:13 GMT-0700 (PDT)","603406","Trustworthy,Untrustworthy","","1237","","","","rating","","trustrating_stim/white_00898_960530_fa_edt.bmp","2","","","","","","","","","","",""
"image-keyboard-response","54","72785","0.0-6.0-2.24","5fb7c9fa2be0a83d8f8913b8","bdp_trlrn","Sun Mar 12 2023 20:58:13 GMT-0700 (PDT)","603406","Trustworthy,Untrustworthy","","null","","","","ratingFB","","trustrating_stim/white_00898_960530_fa_edt.bmp","null","","","","","","","","","","",""
"image-keyboard-response","55","74026","0.0-6.0-1.25","5fb7c9fa2be0a83d8f8913b8","bdp_trlrn","Sun Mar 12 2023 20:58:13 GMT-0700 (PDT)","603406","Trustworthy,Untrustworthy","","1139","","","","rating","","trustrating_stim/white_00761_941201_fb_edt.bmp","1","","","","","","","","","","",""
"image-keyboard-response","56","74229","0.0-6.0-2.25","5fb7c9fa2be0a83d8f8913b8","bdp_trlrn","Sun Mar 12 2023 20:58:13 GMT-0700 (PDT)","603406","Trustworthy,Untrustworthy","","null","","","","ratingFB","","trustrating_stim/white_00761_941201_fb_edt.bmp","null","","","","","","","","","","",""
"image-keyboard-response","57","75362","0.0-6.0-1.26","5fb7c9fa2be0a83d8f8913b8","bdp_trlrn","Sun Mar 12 2023 20:58:13 GMT-0700 (PDT)","603406","Trustworthy,Untrustworthy","","1031","","","","rating","","trustrating_stim/white_00129_931230_fb_edt.bmp","2","","","","","","","","","","",""
"image-keyboard-response","58","75564","0.0-6.0-2.26","5fb7c9fa2be0a83d8f8913b8","bdp_trlrn","Sun Mar 12 2023 20:58:13 GMT-0700 (PDT)","603406","Trustworthy,Untrustworthy","","null","","","","ratingFB","","trustrating_stim/white_00129_931230_fb_edt.bmp","null","","","","","","","","","","",""
"image-keyboard-response","59","77744","0.0-6.0-1.27","5fb7c9fa2be0a83d8f8913b8","bdp_trlrn","Sun Mar 12 2023 20:58:13 GMT-0700 (PDT)","603406","Trustworthy,Untrustworthy","","2078","","","","rating","","trustrating_stim/white_mw053.bmp","1","","","","","","","","","","",""
"image-keyboard-response","60","77947","0.0-6.0-2.27","5fb7c9fa2be0a83d8f8913b8","bdp_trlrn","Sun Mar 12 2023 20:58:13 GMT-0700 (PDT)","603406","Trustworthy,Untrustworthy","","null","","","","ratingFB","","trustrating_stim/white_mw053.bmp","null","","","","","","","","","","",""
"image-keyboard-response","61","78888","0.0-6.0-1.28","5fb7c9fa2be0a83d8f8913b8","bdp_trlrn","Sun Mar 12 2023 20:58:13 GMT-0700 (PDT)","603406","Trustworthy,Untrustworthy","","839","","","","rating","","trustrating_stim/white_00109_931230_fa_edt.bmp","1","","","","","","","","","","",""
"image-keyboard-response","62","79090","0.0-6.0-2.28","5fb7c9fa2be0a83d8f8913b8","bdp_trlrn","Sun Mar 12 2023 20:58:13 GMT-0700 (PDT)","603406","Trustworthy,Untrustworthy","","null","","","","ratingFB","","trustrating_stim/white_00109_931230_fa_edt.bmp","null","","","","","","","","","","",""
"image-keyboard-response","63","80006","0.0-6.0-1.29","5fb7c9fa2be0a83d8f8913b8","bdp_trlrn","Sun Mar 12 2023 20:58:13 GMT-0700 (PDT)","603406","Trustworthy,Untrustworthy","","812","","","","rating","","trustrating_stim/white_00519_940519_fb_edt.bmp","1","","","","","","","","","","",""
"image-keyboard-response","64","80208","0.0-6.0-2.29","5fb7c9fa2be0a83d8f8913b8","bdp_trlrn","Sun Mar 12 2023 20:58:13 GMT-0700 (PDT)","603406","Trustworthy,Untrustworthy","","null","","","","ratingFB","","trustrating_stim/white_00519_940519_fb_edt.bmp","null","","","","","","","","","","",""
"image-keyboard-response","65","81028","0.0-6.0-1.30","5fb7c9fa2be0a83d8f8913b8","bdp_trlrn","Sun Mar 12 2023 20:58:13 GMT-0700 (PDT)","603406","Trustworthy,Untrustworthy","","716","","","","rating","","trustrating_stim/white_mw048.bmp","1","","","","","","","","","","",""
"image-keyboard-response","66","81230","0.0-6.0-2.30","5fb7c9fa2be0a83d8f8913b8","bdp_trlrn","Sun Mar 12 2023 20:58:13 GMT-0700 (PDT)","603406","Trustworthy,Untrustworthy","","null","","","","ratingFB","","trustrating_stim/white_mw048.bmp","null","","","","","","","","","","",""
"image-keyboard-response","67","82866","0.0-6.0-1.31","5fb7c9fa2be0a83d8f8913b8","bdp_trlrn","Sun Mar 12 2023 20:58:13 GMT-0700 (PDT)","603406","Trustworthy,Untrustworthy","","1533","","","","rating","","trustrating_stim/white_00761_941201_fb_edt.bmp","1","","","","","","","","","","",""
"image-keyboard-response","68","83068","0.0-6.0-2.31","5fb7c9fa2be0a83d8f8913b8","bdp_trlrn","Sun Mar 12 2023 20:58:13 GMT-0700 (PDT)","603406","Trustworthy,Untrustworthy","","null","","","","ratingFB","","trustrating_stim/white_00761_941201_fb_edt.bmp","null","","","","","","","","","","",""
"image-keyboard-response","69","84315","0.0-6.0-1.32","5fb7c9fa2be0a83d8f8913b8","bdp_trlrn","Sun Mar 12 2023 20:58:13 GMT-0700 (PDT)","603406","Trustworthy,Untrustworthy","","1143","","","","rating","","trustrating_stim/white_mw066.bmp","2","","","","","","","","","","",""
"image-keyboard-response","70","84516","0.0-6.0-2.32","5fb7c9fa2be0a83d8f8913b8","bdp_trlrn","Sun Mar 12 2023 20:58:13 GMT-0700 (PDT)","603406","Trustworthy,Untrustworthy","","null","","","","ratingFB","","trustrating_stim/white_mw066.bmp","null","","","","","","","","","","",""
"image-keyboard-response","71","85326","0.0-6.0-1.33","5fb7c9fa2be0a83d8f8913b8","bdp_trlrn","Sun Mar 12 2023 20:58:13 GMT-0700 (PDT)","603406","Trustworthy,Untrustworthy","","707","","","","rating","","trustrating_stim/white_00785_941205_fb_edt.bmp","1","","","","","","","","","","",""
"image-keyboard-response","72","85529","0.0-6.0-2.33","5fb7c9fa2be0a83d8f8913b8","bdp_trlrn","Sun Mar 12 2023 20:58:13 GMT-0700 (PDT)","603406","Trustworthy,Untrustworthy","","null","","","","ratingFB","","trustrating_stim/white_00785_941205_fb_edt.bmp","null","","","","","","","","","","",""
"image-keyboard-response","73","86390","0.0-6.0-1.34","5fb7c9fa2be0a83d8f8913b8","bdp_trlrn","Sun Mar 12 2023 20:58:13 GMT-0700 (PDT)","603406","Trustworthy,Untrustworthy","","759","","","","rating","","trustrating_stim/white_mw099.bmp","1","","","","","","","","","","",""
"image-keyboard-response","74","86592","0.0-6.0-2.34","5fb7c9fa2be0a83d8f8913b8","bdp_trlrn","Sun Mar 12 2023 20:58:13 GMT-0700 (PDT)","603406","Trustworthy,Untrustworthy","","null","","","","ratingFB","","trustrating_stim/white_mw099.bmp","null","","","","","","","","","","",""
"image-keyboard-response","75","87724","0.0-6.0-1.35","5fb7c9fa2be0a83d8f8913b8","bdp_trlrn","Sun Mar 12 2023 20:58:13 GMT-0700 (PDT)","603406","Trustworthy,Untrustworthy","","1028","","","","rating","","trustrating_stim/white_00898_960530_fa_edt.bmp","2","","","","","","","","","","",""
"image-keyboard-response","76","87926","0.0-6.0-2.35","5fb7c9fa2be0a83d8f8913b8","bdp_trlrn","Sun Mar 12 2023 20:58:13 GMT-0700 (PDT)","603406","Trustworthy,Untrustworthy","","null","","","","ratingFB","","trustrating_stim/white_00898_960530_fa_edt.bmp","null","","","","","","","","","","",""
"image-keyboard-response","77","88931","0.0-6.0-1.36","5fb7c9fa2be0a83d8f8913b8","bdp_trlrn","Sun Mar 12 2023 20:58:13 GMT-0700 (PDT)","603406","Trustworthy,Untrustworthy","","902","","","","rating","","trustrating_stim/white_mw035.bmp","2","","","","","","","","","","",""
"image-keyboard-response","78","89133","0.0-6.0-2.36","5fb7c9fa2be0a83d8f8913b8","bdp_trlrn","Sun Mar 12 2023 20:58:13 GMT-0700 (PDT)","603406","Trustworthy,Untrustworthy","","null","","","","ratingFB","","trustrating_stim/white_mw035.bmp","null","","","","","","","","","","",""
"image-keyboard-response","79","90148","0.0-6.0-1.37","5fb7c9fa2be0a83d8f8913b8","bdp_trlrn","Sun Mar 12 2023 20:58:13 GMT-0700 (PDT)","603406","Trustworthy,Untrustworthy","","912","","","","rating","","trustrating_stim/white_mw071.bmp","1","","","","","","","","","","",""
"image-keyboard-response","80","90350","0.0-6.0-2.37","5fb7c9fa2be0a83d8f8913b8","bdp_trlrn","Sun Mar 12 2023 20:58:13 GMT-0700 (PDT)","603406","Trustworthy,Untrustworthy","","null","","","","ratingFB","","trustrating_stim/white_mw071.bmp","null","","","","","","","","","","",""
"image-keyboard-response","81","91433","0.0-6.0-1.38","5fb7c9fa2be0a83d8f8913b8","bdp_trlrn","Sun Mar 12 2023 20:58:13 GMT-0700 (PDT)","603406","Trustworthy,Untrustworthy","","980","","","","rating","","trustrating_stim/white_00659_941121_fa_edt.bmp","1","","","","","","","","","","",""
"image-keyboard-response","82","91635","0.0-6.0-2.38","5fb7c9fa2be0a83d8f8913b8","bdp_trlrn","Sun Mar 12 2023 20:58:13 GMT-0700 (PDT)","603406","Trustworthy,Untrustworthy","","null","","","","ratingFB","","trustrating_stim/white_00659_941121_fa_edt.bmp","null","","","","","","","","","","",""
"image-keyboard-response","83","92546","0.0-6.0-1.39","5fb7c9fa2be0a83d8f8913b8","bdp_trlrn","Sun Mar 12 2023 20:58:13 GMT-0700 (PDT)","603406","Trustworthy,Untrustworthy","","808","","","","rating","","trustrating_stim/white_00577_940928_fa_edt.bmp","1","","","","","","","","","","",""
"image-keyboard-response","84","92748","0.0-6.0-2.39","5fb7c9fa2be0a83d8f8913b8","bdp_trlrn","Sun Mar 12 2023 20:58:13 GMT-0700 (PDT)","603406","Trustworthy,Untrustworthy","","null","","","","ratingFB","","trustrating_stim/white_00577_940928_fa_edt.bmp","null","","","","","","","","","","",""
"image-keyboard-response","85","93800","0.0-6.0-1.40","5fb7c9fa2be0a83d8f8913b8","bdp_trlrn","Sun Mar 12 2023 20:58:13 GMT-0700 (PDT)","603406","Trustworthy,Untrustworthy","","947","","","","rating","","trustrating_stim/white_00299_940422_fa_edt.bmp","1","","","","","","","","","","",""
"image-keyboard-response","86","94002","0.0-6.0-2.40","5fb7c9fa2be0a83d8f8913b8","bdp_trlrn","Sun Mar 12 2023 20:58:13 GMT-0700 (PDT)","603406","Trustworthy,Untrustworthy","","null","","","","ratingFB","","trustrating_stim/white_00299_940422_fa_edt.bmp","null","","","","","","","","","","",""
"image-keyboard-response","87","94889","0.0-6.0-1.41","5fb7c9fa2be0a83d8f8913b8","bdp_trlrn","Sun Mar 12 2023 20:58:13 GMT-0700 (PDT)","603406","Trustworthy,Untrustworthy","","784","","","","rating","","trustrating_stim/white_00129_931230_fb_edt.bmp","1","","","","","","","","","","",""
"image-keyboard-response","88","95092","0.0-6.0-2.41","5fb7c9fa2be0a83d8f8913b8","bdp_trlrn","Sun Mar 12 2023 20:58:13 GMT-0700 (PDT)","603406","Trustworthy,Untrustworthy","","null","","","","ratingFB","","trustrating_stim/white_00129_931230_fb_edt.bmp","null","","","","","","","","","","",""
"image-keyboard-response","89","96084","0.0-6.0-1.42","5fb7c9fa2be0a83d8f8913b8","bdp_trlrn","Sun Mar 12 2023 20:58:13 GMT-0700 (PDT)","603406","Trustworthy,Untrustworthy","","889","","","","rating","","trustrating_stim/white_mw049.bmp","2","","","","","","","","","","",""
"image-keyboard-response","90","96287","0.0-6.0-2.42","5fb7c9fa2be0a83d8f8913b8","bdp_trlrn","Sun Mar 12 2023 20:58:13 GMT-0700 (PDT)","603406","Trustworthy,Untrustworthy","","null","","","","ratingFB","","trustrating_stim/white_mw049.bmp","null","","","","","","","","","","",""
"image-keyboard-response","91","97534","0.0-6.0-1.43","5fb7c9fa2be0a83d8f8913b8","bdp_trlrn","Sun Mar 12 2023 20:58:13 GMT-0700 (PDT)","603406","Trustworthy,Untrustworthy","","1144","","","","rating","","trustrating_stim/white_mw033.bmp","1","","","","","","","","","","",""
"image-keyboard-response","92","97737","0.0-6.0-2.43","5fb7c9fa2be0a83d8f8913b8","bdp_trlrn","Sun Mar 12 2023 20:58:13 GMT-0700 (PDT)","603406","Trustworthy,Untrustworthy","","null","","","","ratingFB","","trustrating_stim/white_mw033.bmp","null","","","","","","","","","","",""
"image-keyboard-response","93","99574","0.0-6.0-1.44","5fb7c9fa2be0a83d8f8913b8","bdp_trlrn","Sun Mar 12 2023 20:58:13 GMT-0700 (PDT)","603406","Trustworthy,Untrustworthy","","1734","","","","rating","","trustrating_stim/white_00602_940928_fb_edt.bmp","3","","","","","","","","","","",""
"image-keyboard-response","94","99776","0.0-6.0-2.44","5fb7c9fa2be0a83d8f8913b8","bdp_trlrn","Sun Mar 12 2023 20:58:13 GMT-0700 (PDT)","603406","Trustworthy,Untrustworthy","","null","","","","ratingFB","","trustrating_stim/white_00602_940928_fb_edt.bmp","null","","","","","","","","","","",""
"image-keyboard-response","95","100753","0.0-6.0-1.45","5fb7c9fa2be0a83d8f8913b8","bdp_trlrn","Sun Mar 12 2023 20:58:13 GMT-0700 (PDT)","603406","Trustworthy,Untrustworthy","","873","","","","rating","","trustrating_stim/white_mw097.bmp","1","","","","","","","","","","",""
"image-keyboard-response","96","100955","0.0-6.0-2.45","5fb7c9fa2be0a83d8f8913b8","bdp_trlrn","Sun Mar 12 2023 20:58:13 GMT-0700 (PDT)","603406","Trustworthy,Untrustworthy","","null","","","","ratingFB","","trustrating_stim/white_mw097.bmp","null","","","","","","","","","","",""
"image-keyboard-response","97","102110","0.0-6.0-1.46","5fb7c9fa2be0a83d8f8913b8","bdp_trlrn","Sun Mar 12 2023 20:58:13 GMT-0700 (PDT)","603406","Trustworthy,Untrustworthy","","1052","","","","rating","","trustrating_stim/white_00120_931230_fa_edt.bmp","1","","","","","","","","","","",""
"image-keyboard-response","98","102311","0.0-6.0-2.46","5fb7c9fa2be0a83d8f8913b8","bdp_trlrn","Sun Mar 12 2023 20:58:13 GMT-0700 (PDT)","603406","Trustworthy,Untrustworthy","","null","","","","ratingFB","","trustrating_stim/white_00120_931230_fa_edt.bmp","null","","","","","","","","","","",""
"image-keyboard-response","99","103902","0.0-6.0-1.47","5fb7c9fa2be0a83d8f8913b8","bdp_trlrn","Sun Mar 12 2023 20:58:13 GMT-0700 (PDT)","603406","Trustworthy,Untrustworthy","","1487","","","","rating","","trustrating_stim/white_mw053.bmp","2","","","","","","","","","","",""
"image-keyboard-response","100","104104","0.0-6.0-2.47","5fb7c9fa2be0a83d8f8913b8","bdp_trlrn","Sun Mar 12 2023 20:58:13 GMT-0700 (PDT)","603406","Trustworthy,Untrustworthy","","null","","","","ratingFB","","trustrating_stim/white_mw053.bmp","null","","","","","","","","","","",""
"image-keyboard-response","101","104948","0.0-6.0-1.48","5fb7c9fa2be0a83d8f8913b8","bdp_trlrn","Sun Mar 12 2023 20:58:13 GMT-0700 (PDT)","603406","Trustworthy,Untrustworthy","","740","","","","rating","","trustrating_stim/white_mw060.bmp","1","","","","","","","","","","",""
"image-keyboard-response","102","105149","0.0-6.0-2.48","5fb7c9fa2be0a83d8f8913b8","bdp_trlrn","Sun Mar 12 2023 20:58:13 GMT-0700 (PDT)","603406","Trustworthy,Untrustworthy","","null","","","","ratingFB","","trustrating_stim/white_mw060.bmp","null","","","","","","","","","","",""
"image-keyboard-response","103","105928","0.0-6.0-1.49","5fb7c9fa2be0a83d8f8913b8","bdp_trlrn","Sun Mar 12 2023 20:58:13 GMT-0700 (PDT)","603406","Trustworthy,Untrustworthy","","675","","","","rating","","trustrating_stim/white_00519_940519_fb_edt.bmp","1","","","","","","","","","","",""
"image-keyboard-response","104","106129","0.0-6.0-2.49","5fb7c9fa2be0a83d8f8913b8","bdp_trlrn","Sun Mar 12 2023 20:58:13 GMT-0700 (PDT)","603406","Trustworthy,Untrustworthy","","null","","","","ratingFB","","trustrating_stim/white_00519_940519_fb_edt.bmp","null","","","","","","","","","","",""
"image-keyboard-response","105","107006","0.0-6.0-1.50","5fb7c9fa2be0a83d8f8913b8","bdp_trlrn","Sun Mar 12 2023 20:58:13 GMT-0700 (PDT)","603406","Trustworthy,Untrustworthy","","772","","","","rating","","trustrating_stim/white_mw046.bmp","1","","","","","","","","","","",""
"image-keyboard-response","106","107208","0.0-6.0-2.50","5fb7c9fa2be0a83d8f8913b8","bdp_trlrn","Sun Mar 12 2023 20:58:13 GMT-0700 (PDT)","603406","Trustworthy,Untrustworthy","","null","","","","ratingFB","","trustrating_stim/white_mw046.bmp","null","","","","","","","","","","",""
"image-keyboard-response","107","108766","0.0-6.0-1.51","5fb7c9fa2be0a83d8f8913b8","bdp_trlrn","Sun Mar 12 2023 20:58:13 GMT-0700 (PDT)","603406","Trustworthy,Untrustworthy","","1455","","","","rating","","trustrating_stim/white_00757_941201_fa_edt.bmp","1","","","","","","","","","","",""
"image-keyboard-response","108","108968","0.0-6.0-2.51","5fb7c9fa2be0a83d8f8913b8","bdp_trlrn","Sun Mar 12 2023 20:58:13 GMT-0700 (PDT)","603406","Trustworthy,Untrustworthy","","null","","","","ratingFB","","trustrating_stim/white_00757_941201_fa_edt.bmp","null","","","","","","","","","","",""
"image-keyboard-response","109","109946","0.0-6.0-1.52","5fb7c9fa2be0a83d8f8913b8","bdp_trlrn","Sun Mar 12 2023 20:58:13 GMT-0700 (PDT)","603406","Trustworthy,Untrustworthy","","874","","","","rating","","trustrating_stim/white_mw056.bmp","1","","","","","","","","","","",""
"image-keyboard-response","110","110147","0.0-6.0-2.52","5fb7c9fa2be0a83d8f8913b8","bdp_trlrn","Sun Mar 12 2023 20:58:13 GMT-0700 (PDT)","603406","Trustworthy,Untrustworthy","","null","","","","ratingFB","","trustrating_stim/white_mw056.bmp","null","","","","","","","","","","",""
"image-keyboard-response","111","111873","0.0-6.0-1.53","5fb7c9fa2be0a83d8f8913b8","bdp_trlrn","Sun Mar 12 2023 20:58:13 GMT-0700 (PDT)","603406","Trustworthy,Untrustworthy","","1622","","","","rating","","trustrating_stim/white_mw084.bmp","2","","","","","","","","","","",""
"image-keyboard-response","112","112074","0.0-6.0-2.53","5fb7c9fa2be0a83d8f8913b8","bdp_trlrn","Sun Mar 12 2023 20:58:13 GMT-0700 (PDT)","603406","Trustworthy,Untrustworthy","","null","","","","ratingFB","","trustrating_stim/white_mw084.bmp","null","","","","","","","","","","",""
"image-keyboard-response","113","112906","0.0-6.0-1.54","5fb7c9fa2be0a83d8f8913b8","bdp_trlrn","Sun Mar 12 2023 20:58:13 GMT-0700 (PDT)","603406","Trustworthy,Untrustworthy","","729","","","","rating","","trustrating_stim/white_00807_941205_fb_edt.bmp","1","","","","","","","","","","",""
"image-keyboard-response","114","113108","0.0-6.0-2.54","5fb7c9fa2be0a83d8f8913b8","bdp_trlrn","Sun Mar 12 2023 20:58:13 GMT-0700 (PDT)","603406","Trustworthy,Untrustworthy","","null","","","","ratingFB","","trustrating_stim/white_00807_941205_fb_edt.bmp","null","","","","","","","","","","",""
"image-keyboard-response","115","114601","0.0-6.0-1.55","5fb7c9fa2be0a83d8f8913b8","bdp_trlrn","Sun Mar 12 2023 20:58:13 GMT-0700 (PDT)","603406","Trustworthy,Untrustworthy","","1390","","","","rating","","trustrating_stim/white_mw063.bmp","1","","","","","","","","","","",""
"image-keyboard-response","116","114804","0.0-6.0-2.55","5fb7c9fa2be0a83d8f8913b8","bdp_trlrn","Sun Mar 12 2023 20:58:13 GMT-0700 (PDT)","603406","Trustworthy,Untrustworthy","","null","","","","ratingFB","","trustrating_stim/white_mw063.bmp","null","","","","","","","","","","",""
"image-keyboard-response","117","115922","0.0-6.0-1.56","5fb7c9fa2be0a83d8f8913b8","bdp_trlrn","Sun Mar 12 2023 20:58:13 GMT-0700 (PDT)","603406","Trustworthy,Untrustworthy","","1015","","","","rating","","trustrating_stim/white_mw089.bmp","1","","","","","","","","","","",""
"image-keyboard-response","118","116125","0.0-6.0-2.56","5fb7c9fa2be0a83d8f8913b8","bdp_trlrn","Sun Mar 12 2023 20:58:13 GMT-0700 (PDT)","603406","Trustworthy,Untrustworthy","","null","","","","ratingFB","","trustrating_stim/white_mw089.bmp","null","","","","","","","","","","",""
"image-keyboard-response","119","117179","0.0-6.0-1.57","5fb7c9fa2be0a83d8f8913b8","bdp_trlrn","Sun Mar 12 2023 20:58:13 GMT-0700 (PDT)","603406","Trustworthy,Untrustworthy","","951","","","","rating","","trustrating_stim/white_00223_940128_fb_edt.bmp","1","","","","","","","","","","",""
"image-keyboard-response","120","117381","0.0-6.0-2.57","5fb7c9fa2be0a83d8f8913b8","bdp_trlrn","Sun Mar 12 2023 20:58:13 GMT-0700 (PDT)","603406","Trustworthy,Untrustworthy","","null","","","","ratingFB","","trustrating_stim/white_00223_940128_fb_edt.bmp","null","","","","","","","","","","",""
"image-keyboard-response","121","118221","0.0-6.0-1.58","5fb7c9fa2be0a83d8f8913b8","bdp_trlrn","Sun Mar 12 2023 20:58:13 GMT-0700 (PDT)","603406","Trustworthy,Untrustworthy","","739","","","","rating","","trustrating_stim/white_00340_940422_fa_edt.bmp","1","","","","","","","","","","",""
"image-keyboard-response","122","118424","0.0-6.0-2.58","5fb7c9fa2be0a83d8f8913b8","bdp_trlrn","Sun Mar 12 2023 20:58:13 GMT-0700 (PDT)","603406","Trustworthy,Untrustworthy","","null","","","","ratingFB","","trustrating_stim/white_00340_940422_fa_edt.bmp","null","","","","","","","","","","",""
"image-keyboard-response","123","119976","0.0-6.0-1.59","5fb7c9fa2be0a83d8f8913b8","bdp_trlrn","Sun Mar 12 2023 20:58:13 GMT-0700 (PDT)","603406","Trustworthy,Untrustworthy","","1449","","","","rating","","trustrating_stim/white_00109_931230_fa_edt.bmp","2","","","","","","","","","","",""
"image-keyboard-response","124","120179","0.0-6.0-2.59","5fb7c9fa2be0a83d8f8913b8","bdp_trlrn","Sun Mar 12 2023 20:58:13 GMT-0700 (PDT)","603406","Trustworthy,Untrustworthy","","null","","","","ratingFB","","trustrating_stim/white_00109_931230_fa_edt.bmp","null","","","","","","","","","","",""
"instructions","125","121527","0.0-7.0","5fb7c9fa2be0a83d8f8913b8","bdp_trlrn","Sun Mar 12 2023 20:58:13 GMT-0700 (PDT)","603406","Trustworthy,Untrustworthy","[{""page_index"":0,""viewing_time"":1245}]","1245","","","","","","","","","","","","","","","","","",""
"instructions","126","207352","0.0-8.0","5fb7c9fa2be0a83d8f8913b8","bdp_trlrn","Sun Mar 12 2023 20:58:13 GMT-0700 (PDT)","603406","Trustworthy,Untrustworthy","[{""page_index"":0,""viewing_time"":23139},{""page_index"":1,""viewing_time"":16910},{""page_index"":2,""viewing_time"":6194},{""page_index"":3,""viewing_time"":8734},{""page_index"":4,""viewing_time"":2220},{""page_index"":5,""viewing_time"":3260},{""page_index"":6,""viewing_time"":13096},{""page_index"":7,""viewing_time"":12170}]","85723","","","","","","","","","","","","","","","","","",""
"html-keyboard-response","127","211772","0.0-9.0","5fb7c9fa2be0a83d8f8913b8","bdp_trlrn","Sun Mar 12 2023 20:58:13 GMT-0700 (PDT)","603406","Trustworthy,Untrustworthy","","4417","","","","","","<div class='header' style='text-align:left; position: absolute; top: 5%; left: 5%;'><small>Task 2 of 5</small></div><div class='instruxDiv'><p><strong>1) What is the minimum number of points you can choose to send to your partner?</strong></p><p>a) 0</p><p>b) 1</p><p>c) 5</p>","C","","","","","","","","","","",""
"html-keyboard-response","128","214730","0.0-10.0","5fb7c9fa2be0a83d8f8913b8","bdp_trlrn","Sun Mar 12 2023 20:58:13 GMT-0700 (PDT)","603406","Trustworthy,Untrustworthy","","2854","","","","","","<div class='header' style='text-align:left; position: absolute; top: 5%; left: 5%;'><small>Task 2 of 5</small></div><div class='instruxDiv'><p><strong>1) What is the minimum number of points you can choose to send to your partner?</strong></p><p>a) 1</p><p>b) 1</p><p style='color:#FF0000'>c) 5</p><h3 style='color:#FF0000'>Incorrect!</h3><h3 class='center-content'>The correct response is b).</h3><h3 class='center-content'>The minimum number of points you can choose to send to your partner is 1 point.</h3><p><em>Press SPACEBAR to continue</em></p></div>"," ","","","","","","","","","","",""
"html-keyboard-response","129","220677","0.0-11.0","5fb7c9fa2be0a83d8f8913b8","bdp_trlrn","Sun Mar 12 2023 20:58:13 GMT-0700 (PDT)","603406","Trustworthy,Untrustworthy","","5846","","","","","","<div class='header' style='text-align:left; position: absolute; top: 5%; left: 5%;'><small>Task 2 of 5</small></div><div class='instruxDiv'><p><strong>2) What is the maximum number of points you can choose to send to your partner?</strong></p><p>a) 8</p><p>b) 5</p><p>c) 3</p>","B","","","","","","","","","","",""
"html-keyboard-response","130","223501","0.0-12.0","5fb7c9fa2be0a83d8f8913b8","bdp_trlrn","Sun Mar 12 2023 20:58:13 GMT-0700 (PDT)","603406","Trustworthy,Untrustworthy","","2720","","","","","","<div class='header' style='text-align:left; position: absolute; top: 5%; left: 5%;'><small>Task 2 of 5</small></div><div class='instruxDiv'><p><strong>2) What is the maximum number of points you can choose to send to your partner?</strong></p><p>a) 8</p><p style='color:#00FF00'>b) 5</p><p>c) 3</p><h3 style='color:#00FF00'>Correct!</h3><h3 class='center-content'>The correct response is b).</h3><h3 class='center-content'>The maximum number of points you can choose to send to your partner is 5 points.</h3><p><em>Press SPACEBAR to continue</em></p></div>"," ","","","","","","","","","","",""
"html-keyboard-response","131","228851","0.0-13.0","5fb7c9fa2be0a83d8f8913b8","bdp_trlrn","Sun Mar 12 2023 20:58:13 GMT-0700 (PDT)","603406","Trustworthy,Untrustworthy","","5249","","","","","","<div class='header' style='text-align:left; position: absolute; top: 5%; left: 5%;'><small>Task 2 of 5</small></div><div class='instruxDiv'><p><strong>3) What happens to the amount of points you send to your partner?</strong></p><p>a) Nothing</p><p>b) It doubles</p><p>c) It quadruples</p>","C","","","","","","","","","","",""
"html-keyboard-response","132","230400","0.0-14.0","5fb7c9fa2be0a83d8f8913b8","bdp_trlrn","Sun Mar 12 2023 20:58:13 GMT-0700 (PDT)","603406","Trustworthy,Untrustworthy","","1446","","","","","","<div class='header' style='text-align:left; position: absolute; top: 5%; left: 5%;'><small>Task 2 of 5</small></div><div class='instruxDiv'><p><strong>3) What happens to the amount of points you send to your partner?</strong></p><p>a) Nothing</p><p>b) It doubles</p><p style='color:#00FF00'>c) It quadruples</p><h3 style='color:#00FF00'>Correct!</h3><h3 class='center-content'>The correct response is c).</h3><h3 class='center-content'>The amount of points you send to your partner quadruples.</h3><p><em>Press SPACEBAR to continue</em></p></div>"," ","","","","","","","","","","",""
"html-keyboard-response","133","247516","0.0-15.0","5fb7c9fa2be0a83d8f8913b8","bdp_trlrn","Sun Mar 12 2023 20:58:13 GMT-0700 (PDT)","603406","Trustworthy,Untrustworthy","","17014","","","","","","<div class='header' style='text-align:left; position: absolute; top: 5%; left: 5%;'><small>Task 2 of 5</small></div><div class='instruxDiv'><p><strong>4) If you decided to share 4 out of 5 points with your partner, and they decided to share half of the amount they received with you, how many points would you receive back from them on this round?</strong></p><p>a) 16</p><p>b) 0</p><p>c) 8</p>","C","","","","","","","","","","",""
"html-keyboard-response","134","248856","0.0-16.0","5fb7c9fa2be0a83d8f8913b8","bdp_trlrn","Sun Mar 12 2023 20:58:13 GMT-0700 (PDT)","603406","Trustworthy,Untrustworthy","","1237","","","","","","<div class='header' style='text-align:left; position: absolute; top: 5%; left: 5%;'><small>Task 2 of 5</small></div><div class='instruxDiv'><p><strong>4) If you decided to share 4 out of 5 points with your partner, and they decided to share half of the amount they received with you, how many points would you receive back from them on this round?</strong></p><p>a) 16</p><p>b) 0</p><p style='color:#00FF00'>c) 8</p><h3 style='color:#00FF00'>Correct!</h3><h3 class='center-content'>The correct response is c).</h3><h3 class='center-content'>If you shared 4 out of 5 points with your partner and they decided to share half of the amount they received with you, you would receive 8 points back (i.e. (4 x 4)/2 = 8).</h3><p><em>Press SPACEBAR to continue</em></p></div>"," ","","","","","","","","","","",""
"html-keyboard-response","135","253959","0.0-17.0","5fb7c9fa2be0a83d8f8913b8","bdp_trlrn","Sun Mar 12 2023 20:58:13 GMT-0700 (PDT)","603406","Trustworthy,Untrustworthy","","null","","","","","","<div class='header' style='text-align:left; position: absolute; top: 5%; left: 5%;'><small>Task 2 of 5</small></div><div class='instruxDiv'><p>Thank you for completing the quiz<p>These are the actual partners you will be interacting with in the next block:<p><div class='tc' align='center'><img class='introPic' src='trustrating_stim/white_00577_940928_fa_edt.bmp'><br><strong>Caleb</strong></div><div class='bl' align='center'><img class='introPic' src='trustrating_stim/white_mw046.bmp'><br><strong>Gavin</strong></div><div class='br' align='center'><img class='introPic' src='trustrating_stim/white_00602_940928_fb_edt.bmp'><br><strong>Ryan</strong></div></div><p>Across <strong>66 rounds</strong> you will interact with each partner <strong>22 times</strong> (in random order).<p style='align:center; color:white'><font <em>Press SPACEBAR to continue</em></p>","null","","","","","","","","","","",""
"instructions","136","259245","0.0-18.0","5fb7c9fa2be0a83d8f8913b8","bdp_trlrn","Sun Mar 12 2023 20:58:13 GMT-0700 (PDT)","603406","Trustworthy,Untrustworthy","[{""page_index"":0,""viewing_time"":855},{""page_index"":1,""viewing_time"":4429}]","5285","","","","","","","","","","","","","","","","","",""
"html-keyboard-response","137","262815","0.0-19.0-1.0","5fb7c9fa2be0a83d8f8913b8","bdp_trlrn","Sun Mar 12 2023 20:58:13 GMT-0700 (PDT)","603406","Trustworthy,Untrustworthy","","3467","","","","decision","","<div class='trialDiv'><img src='trustrating_stim/white_mw046.bmp'><br><font class='baseline'><strong>Gavin</strong><p>Choose number of points to send.</font><div class='respPicDiv'><img src='img/responseButtonOffersNo0L.png' class='respPic'></div></div>","1","1","Gavin","4","Shared","0.8,0.2","12","0.8","trustrating_stim/white_mw046.bmp","1","5","1"
"html-keyboard-response","138","263069","0.0-19.0-2.0","5fb7c9fa2be0a83d8f8913b8","bdp_trlrn","Sun Mar 12 2023 20:58:13 GMT-0700 (PDT)","603406","Trustworthy,Untrustworthy","","null","","","","decisionFB","","<div class='trialDiv'><img src='trustrating_stim/white_mw046.bmp'><br><font class='baseline'><strong>Gavin</strong><p>Choose number of points to send.</font><div class='respPicDiv'><img src='img/responseButtonOffersNo0L1.png' class='respPic'></div></div>","null","1","Gavin","4","Shared","0.8,0.2","12","0.8","trustrating_stim/white_mw046.bmp","1","4","1"
"html-keyboard-response","139","264072","0.0-19.0-3.0","5fb7c9fa2be0a83d8f8913b8","bdp_trlrn","Sun Mar 12 2023 20:58:13 GMT-0700 (PDT)","603406","Trustworthy,Untrustworthy","","null","","","","feedback","","<div class='trialDiv'><img src='trustrating_stim/white_mw046.bmp'><br><font class='baseline'><strong>Gavin</strong><p>Received: <strong>4</strong></font> &nbsp; &nbsp; &nbsp; &nbsp; &nbsp; &nbsp;<font class='posOutcome'>Shared back: <strong>2</strong></font></font><div class='respPicDiv'><img src='img/responseButtonOffersNo0_wht.png' class='respPic'></div></div>","null","1","Gavin","4","Shared","0.8,0.2","12","0.8","trustrating_stim/white_mw046.bmp","1","6","1"
"html-keyboard-response","140","266955","0.0-19.0-1.1","5fb7c9fa2be0a83d8f8913b8","bdp_trlrn","Sun Mar 12 2023 20:58:13 GMT-0700 (PDT)","603406","Trustworthy,Untrustworthy","","2881","","","","decision","","<div class='trialDiv'><img src='trustrating_stim/white_00602_940928_fb_edt.bmp'><br><font class='baseline'><strong>Ryan</strong><p>Choose number of points to send.</font><div class='respPicDiv'><img src='img/responseButtonOffersNo0L.png' class='respPic'></div></div>","3","1","Ryan","11","Shared","0.65,0.2","8","0.65","trustrating_stim/white_00602_940928_fb_edt.bmp","3","11","2"
"html-keyboard-response","141","267207","0.0-19.0-2.1","5fb7c9fa2be0a83d8f8913b8","bdp_trlrn","Sun Mar 12 2023 20:58:13 GMT-0700 (PDT)","603406","Trustworthy,Untrustworthy","","null","","","","decisionFB","","<div class='trialDiv'><img src='trustrating_stim/white_00602_940928_fb_edt.bmp'><br><font class='baseline'><strong>Ryan</strong><p>Choose number of points to send.</font><div class='respPicDiv'><img src='img/responseButtonOffersNo0L3.png' class='respPic'></div></div>","null","1","Ryan","11","Shared","0.65,0.2","8","0.65","trustrating_stim/white_00602_940928_fb_edt.bmp","3","8","2"
"html-keyboard-response","142","268210","0.0-19.0-3.1","5fb7c9fa2be0a83d8f8913b8","bdp_trlrn","Sun Mar 12 2023 20:58:13 GMT-0700 (PDT)","603406","Trustworthy,Untrustworthy","","null","","","","feedback","","<div class='trialDiv'><img src='trustrating_stim/white_00602_940928_fb_edt.bmp'><br><font class='baseline'><strong>Ryan</strong><p>Received: <strong>12</strong></font> &nbsp; &nbsp; &nbsp; &nbsp; &nbsp; &nbsp;<font class='posOutcome'>Shared back: <strong>6</strong></font></font><div class='respPicDiv'><img src='img/responseButtonOffersNo0_wht.png' class='respPic'></div></div>","null","1","Ryan","11","Shared","0.65,0.2","8","0.65","trustrating_stim/white_00602_940928_fb_edt.bmp","3","14","2"
"html-keyboard-response","143","269863","0.0-19.0-1.2","5fb7c9fa2be0a83d8f8913b8","bdp_trlrn","Sun Mar 12 2023 20:58:13 GMT-0700 (PDT)","603406","Trustworthy,Untrustworthy","","1652","","","","decision","","<div class='trialDiv'><img src='trustrating_stim/white_00577_940928_fa_edt.bmp'><br><font class='baseline'><strong>Caleb</strong><p>Choose number of points to send.</font><div class='respPicDiv'><img src='img/responseButtonOffersNo0L.png' class='respPic'></div></div>","1","1","Caleb","3","Kept","0.2,0.65","9","0.2","trustrating_stim/white_00577_940928_fa_edt.bmp","1","19","3"
"html-keyboard-response","144","270115","0.0-19.0-2.2","5fb7c9fa2be0a83d8f8913b8","bdp_trlrn","Sun Mar 12 2023 20:58:13 GMT-0700 (PDT)","603406","Trustworthy,Untrustworthy","","null","","","","decisionFB","","<div class='trialDiv'><img src='trustrating_stim/white_00577_940928_fa_edt.bmp'><br><font class='baseline'><strong>Caleb</strong><p>Choose number of points to send.</font><div class='respPicDiv'><img src='img/responseButtonOffersNo0L1.png' class='respPic'></div></div>","null","1","Caleb","3","Kept","0.2,0.65","9","0.2","trustrating_stim/white_00577_940928_fa_edt.bmp","1","18","3"
"html-keyboard-response","145","271118","0.0-19.0-3.2","5fb7c9fa2be0a83d8f8913b8","bdp_trlrn","Sun Mar 12 2023 20:58:13 GMT-0700 (PDT)","603406","Trustworthy,Untrustworthy","","null","","","","feedback","","<div class='trialDiv'><img src='trustrating_stim/white_00577_940928_fa_edt.bmp'><br><font class='baseline'><strong>Caleb</strong><p>Received: <strong>4</strong></font> &nbsp; &nbsp; &nbsp; &nbsp; &nbsp; &nbsp;<font class='negOutcome'>Shared back: <strong>0</strong></font></font><div class='respPicDiv'><img src='img/responseButtonOffersNo0_wht.png' class='respPic'></div></div>","null","1","Caleb","3","Kept","0.2,0.65","9","0.2","trustrating_stim/white_00577_940928_fa_edt.bmp","1","18","3"
"html-keyboard-response","146","273747","0.0-19.0-1.3","5fb7c9fa2be0a83d8f8913b8","bdp_trlrn","Sun Mar 12 2023 20:58:13 GMT-0700 (PDT)","603406","Trustworthy,Untrustworthy","","2628","","","","decision","","<div class='trialDiv'><img src='trustrating_stim/white_00602_940928_fb_edt.bmp'><br><font class='baseline'><strong>Ryan</strong><p>Choose number of points to send.</font><div class='respPicDiv'><img src='img/responseButtonOffersNo0L.png' class='respPic'></div></div>","3","2","Ryan","11","Kept","0.65,0.2","8","0.65","trustrating_stim/white_00602_940928_fb_edt.bmp","3","23","4"
"html-keyboard-response","147","274000","0.0-19.0-2.3","5fb7c9fa2be0a83d8f8913b8","bdp_trlrn","Sun Mar 12 2023 20:58:13 GMT-0700 (PDT)","603406","Trustworthy,Untrustworthy","","null","","","","decisionFB","","<div class='trialDiv'><img src='trustrating_stim/white_00602_940928_fb_edt.bmp'><br><font class='baseline'><strong>Ryan</strong><p>Choose number of points to send.</font><div class='respPicDiv'><img src='img/responseButtonOffersNo0L3.png' class='respPic'></div></div>","null","2","Ryan","11","Kept","0.65,0.2","8","0.65","trustrating_stim/white_00602_940928_fb_edt.bmp","3","20","4"
"html-keyboard-response","148","275003","0.0-19.0-3.3","5fb7c9fa2be0a83d8f8913b8","bdp_trlrn","Sun Mar 12 2023 20:58:13 GMT-0700 (PDT)","603406","Trustworthy,Untrustworthy","","null","","","","feedback","","<div class='trialDiv'><img src='trustrating_stim/white_00602_940928_fb_edt.bmp'><br><font class='baseline'><strong>Ryan</strong><p>Received: <strong>12</strong></font> &nbsp; &nbsp; &nbsp; &nbsp; &nbsp; &nbsp;<font class='negOutcome'>Shared back: <strong>0</strong></font></font><div class='respPicDiv'><img src='img/responseButtonOffersNo0_wht.png' class='respPic'></div></div>","null","2","Ryan","11","Kept","0.65,0.2","8","0.65","trustrating_stim/white_00602_940928_fb_edt.bmp","3","20","4"
"html-keyboard-response","149","276295","0.0-19.0-1.4","5fb7c9fa2be0a83d8f8913b8","bdp_trlrn","Sun Mar 12 2023 20:58:13 GMT-0700 (PDT)","603406","Trustworthy,Untrustworthy","","1291","","","","decision","","<div class='trialDiv'><img src='trustrating_stim/white_mw046.bmp'><br><font class='baseline'><strong>Gavin</strong><p>Choose number of points to send.</font><div class='respPicDiv'><img src='img/responseButtonOffersNo0L.png' class='respPic'></div></div>","1","2","Gavin","4","Kept","0.8,0.2","12","0.8","trustrating_stim/white_mw046.bmp","1","25","5"
"html-keyboard-response","150","276548","0.0-19.0-2.4","5fb7c9fa2be0a83d8f8913b8","bdp_trlrn","Sun Mar 12 2023 20:58:13 GMT-0700 (PDT)","603406","Trustworthy,Untrustworthy","","null","","","","decisionFB","","<div class='trialDiv'><img src='trustrating_stim/white_mw046.bmp'><br><font class='baseline'><strong>Gavin</strong><p>Choose number of points to send.</font><div class='respPicDiv'><img src='img/responseButtonOffersNo0L1.png' class='respPic'></div></div>","null","2","Gavin","4","Kept","0.8,0.2","12","0.8","trustrating_stim/white_mw046.bmp","1","24","5"
"html-keyboard-response","151","277550","0.0-19.0-3.4","5fb7c9fa2be0a83d8f8913b8","bdp_trlrn","Sun Mar 12 2023 20:58:13 GMT-0700 (PDT)","603406","Trustworthy,Untrustworthy","","null","","","","feedback","","<div class='trialDiv'><img src='trustrating_stim/white_mw046.bmp'><br><font class='baseline'><strong>Gavin</strong><p>Received: <strong>4</strong></font> &nbsp; &nbsp; &nbsp; &nbsp; &nbsp; &nbsp;<font class='negOutcome'>Shared back: <strong>0</strong></font></font><div class='respPicDiv'><img src='img/responseButtonOffersNo0_wht.png' class='respPic'></div></div>","null","2","Gavin","4","Kept","0.8,0.2","12","0.8","trustrating_stim/white_mw046.bmp","1","24","5"
"html-keyboard-response","152","279205","0.0-19.0-1.5","5fb7c9fa2be0a83d8f8913b8","bdp_trlrn","Sun Mar 12 2023 20:58:13 GMT-0700 (PDT)","603406","Trustworthy,Untrustworthy","","1653","","","","decision","","<div class='trialDiv'><img src='trustrating_stim/white_00577_940928_fa_edt.bmp'><br><font class='baseline'><strong>Caleb</strong><p>Choose number of points to send.</font><div class='respPicDiv'><img src='img/responseButtonOffersNo0L.png' class='respPic'></div></div>","1","2","Caleb","3","Shared","0.2,0.65","9","0.2","trustrating_stim/white_00577_940928_fa_edt.bmp","1","29","6"
"html-keyboard-response","153","279457","0.0-19.0-2.5","5fb7c9fa2be0a83d8f8913b8","bdp_trlrn","Sun Mar 12 2023 20:58:13 GMT-0700 (PDT)","603406","Trustworthy,Untrustworthy","","null","","","","decisionFB","","<div class='trialDiv'><img src='trustrating_stim/white_00577_940928_fa_edt.bmp'><br><font class='baseline'><strong>Caleb</strong><p>Choose number of points to send.</font><div class='respPicDiv'><img src='img/responseButtonOffersNo0L1.png' class='respPic'></div></div>","null","2","Caleb","3","Shared","0.2,0.65","9","0.2","trustrating_stim/white_00577_940928_fa_edt.bmp","1","28","6"
"html-keyboard-response","154","280460","0.0-19.0-3.5","5fb7c9fa2be0a83d8f8913b8","bdp_trlrn","Sun Mar 12 2023 20:58:13 GMT-0700 (PDT)","603406","Trustworthy,Untrustworthy","","null","","","","feedback","","<div class='trialDiv'><img src='trustrating_stim/white_00577_940928_fa_edt.bmp'><br><font class='baseline'><strong>Caleb</strong><p>Received: <strong>4</strong></font> &nbsp; &nbsp; &nbsp; &nbsp; &nbsp; &nbsp;<font class='posOutcome'>Shared back: <strong>2</strong></font></font><div class='respPicDiv'><img src='img/responseButtonOffersNo0_wht.png' class='respPic'></div></div>","null","2","Caleb","3","Shared","0.2,0.65","9","0.2","trustrating_stim/white_00577_940928_fa_edt.bmp","1","30","6"
"html-keyboard-response","155","282506","0.0-19.0-1.6","5fb7c9fa2be0a83d8f8913b8","bdp_trlrn","Sun Mar 12 2023 20:58:13 GMT-0700 (PDT)","603406","Trustworthy,Untrustworthy","","2044","","","","decision","","<div class='trialDiv'><img src='trustrating_stim/white_00602_940928_fb_edt.bmp'><br><font class='baseline'><strong>Ryan</strong><p>Choose number of points to send.</font><div class='respPicDiv'><img src='img/responseButtonOffersNo0L.png' class='respPic'></div></div>","4","3","Ryan","11","Shared","0.65,0.2","8","0.65","trustrating_stim/white_00602_940928_fb_edt.bmp","3","35","7"
"html-keyboard-response","156","282758","0.0-19.0-2.6","5fb7c9fa2be0a83d8f8913b8","bdp_trlrn","Sun Mar 12 2023 20:58:13 GMT-0700 (PDT)","603406","Trustworthy,Untrustworthy","","null","","","","decisionFB","","<div class='trialDiv'><img src='trustrating_stim/white_00602_940928_fb_edt.bmp'><br><font class='baseline'><strong>Ryan</strong><p>Choose number of points to send.</font><div class='respPicDiv'><img src='img/responseButtonOffersNo0L4.png' class='respPic'></div></div>","null","3","Ryan","11","Shared","0.65,0.2","8","0.65","trustrating_stim/white_00602_940928_fb_edt.bmp","3","31","7"
"html-keyboard-response","157","283761","0.0-19.0-3.6","5fb7c9fa2be0a83d8f8913b8","bdp_trlrn","Sun Mar 12 2023 20:58:13 GMT-0700 (PDT)","603406","Trustworthy,Untrustworthy","","null","","","","feedback","","<div class='trialDiv'><img src='trustrating_stim/white_00602_940928_fb_edt.bmp'><br><font class='baseline'><strong>Ryan</strong><p>Received: <strong>16</strong></font> &nbsp; &nbsp; &nbsp; &nbsp; &nbsp; &nbsp;<font class='posOutcome'>Shared back: <strong>8</strong></font></font><div class='respPicDiv'><img src='img/responseButtonOffersNo0_wht.png' class='respPic'></div></div>","null","3","Ryan","11","Shared","0.65,0.2","8","0.65","trustrating_stim/white_00602_940928_fb_edt.bmp","3","39","7"
"html-keyboard-response","158","285469","0.0-19.0-1.7","5fb7c9fa2be0a83d8f8913b8","bdp_trlrn","Sun Mar 12 2023 20:58:13 GMT-0700 (PDT)","603406","Trustworthy,Untrustworthy","","1707","","","","decision","","<div class='trialDiv'><img src='trustrating_stim/white_mw046.bmp'><br><font class='baseline'><strong>Gavin</strong><p>Choose number of points to send.</font><div class='respPicDiv'><img src='img/responseButtonOffersNo0L.png' class='respPic'></div></div>","3","3","Gavin","4","Shared","0.8,0.2","12","0.8","trustrating_stim/white_mw046.bmp","1","44","8"
"html-keyboard-response","159","285722","0.0-19.0-2.7","5fb7c9fa2be0a83d8f8913b8","bdp_trlrn","Sun Mar 12 2023 20:58:13 GMT-0700 (PDT)","603406","Trustworthy,Untrustworthy","","null","","","","decisionFB","","<div class='trialDiv'><img src='trustrating_stim/white_mw046.bmp'><br><font class='baseline'><strong>Gavin</strong><p>Choose number of points to send.</font><div class='respPicDiv'><img src='img/responseButtonOffersNo0L3.png' class='respPic'></div></div>","null","3","Gavin","4","Shared","0.8,0.2","12","0.8","trustrating_stim/white_mw046.bmp","1","41","8"
"html-keyboard-response","160","286724","0.0-19.0-3.7","5fb7c9fa2be0a83d8f8913b8","bdp_trlrn","Sun Mar 12 2023 20:58:13 GMT-0700 (PDT)","603406","Trustworthy,Untrustworthy","","null","","","","feedback","","<div class='trialDiv'><img src='trustrating_stim/white_mw046.bmp'><br><font class='baseline'><strong>Gavin</strong><p>Received: <strong>12</strong></font> &nbsp; &nbsp; &nbsp; &nbsp; &nbsp; &nbsp;<font class='posOutcome'>Shared back: <strong>6</strong></font></font><div class='respPicDiv'><img src='img/responseButtonOffersNo0_wht.png' class='respPic'></div></div>","null","3","Gavin","4","Shared","0.8,0.2","12","0.8","trustrating_stim/white_mw046.bmp","1","47","8"
"html-keyboard-response","161","287816","0.0-19.0-1.8","5fb7c9fa2be0a83d8f8913b8","bdp_trlrn","Sun Mar 12 2023 20:58:13 GMT-0700 (PDT)","603406","Trustworthy,Untrustworthy","","1091","","","","decision","","<div class='trialDiv'><img src='trustrating_stim/white_00577_940928_fa_edt.bmp'><br><font class='baseline'><strong>Caleb</strong><p>Choose number of points to send.</font><div class='respPicDiv'><img src='img/responseButtonOffersNo0L.png' class='respPic'></div></div>","2","3","Caleb","3","Shared","0.2,0.65","9","0.2","trustrating_stim/white_00577_940928_fa_edt.bmp","1","52","9"
"html-keyboard-response","162","288068","0.0-19.0-2.8","5fb7c9fa2be0a83d8f8913b8","bdp_trlrn","Sun Mar 12 2023 20:58:13 GMT-0700 (PDT)","603406","Trustworthy,Untrustworthy","","null","","","","decisionFB","","<div class='trialDiv'><img src='trustrating_stim/white_00577_940928_fa_edt.bmp'><br><font class='baseline'><strong>Caleb</strong><p>Choose number of points to send.</font><div class='respPicDiv'><img src='img/responseButtonOffersNo0L2.png' class='respPic'></div></div>","null","3","Caleb","3","Shared","0.2,0.65","9","0.2","trustrating_stim/white_00577_940928_fa_edt.bmp","1","50","9"
"html-keyboard-response","163","289071","0.0-19.0-3.8","5fb7c9fa2be0a83d8f8913b8","bdp_trlrn","Sun Mar 12 2023 20:58:13 GMT-0700 (PDT)","603406","Trustworthy,Untrustworthy","","null","","","","feedback","","<div class='trialDiv'><img src='trustrating_stim/white_00577_940928_fa_edt.bmp'><br><font class='baseline'><strong>Caleb</strong><p>Received: <strong>8</strong></font> &nbsp; &nbsp; &nbsp; &nbsp; &nbsp; &nbsp;<font class='posOutcome'>Shared back: <strong>4</strong></font></font><div class='respPicDiv'><img src='img/responseButtonOffersNo0_wht.png' class='respPic'></div></div>","null","3","Caleb","3","Shared","0.2,0.65","9","0.2","trustrating_stim/white_00577_940928_fa_edt.bmp","1","54","9"
"html-keyboard-response","164","290311","0.0-19.0-1.9","5fb7c9fa2be0a83d8f8913b8","bdp_trlrn","Sun Mar 12 2023 20:58:13 GMT-0700 (PDT)","603406","Trustworthy,Untrustworthy","","1239","","","","decision","","<div class='trialDiv'><img src='trustrating_stim/white_00602_940928_fb_edt.bmp'><br><font class='baseline'><strong>Ryan</strong><p>Choose number of points to send.</font><div class='respPicDiv'><img src='img/responseButtonOffersNo0L.png' class='respPic'></div></div>","3","4","Ryan","11","Shared","0.65,0.2","8","0.65","trustrating_stim/white_00602_940928_fb_edt.bmp","3","59","10"
"html-keyboard-response","165","290563","0.0-19.0-2.9","5fb7c9fa2be0a83d8f8913b8","bdp_trlrn","Sun Mar 12 2023 20:58:13 GMT-0700 (PDT)","603406","Trustworthy,Untrustworthy","","null","","","","decisionFB","","<div class='trialDiv'><img src='trustrating_stim/white_00602_940928_fb_edt.bmp'><br><font class='baseline'><strong>Ryan</strong><p>Choose number of points to send.</font><div class='respPicDiv'><img src='img/responseButtonOffersNo0L3.png' class='respPic'></div></div>","null","4","Ryan","11","Shared","0.65,0.2","8","0.65","trustrating_stim/white_00602_940928_fb_edt.bmp","3","56","10"
"html-keyboard-response","166","291566","0.0-19.0-3.9","5fb7c9fa2be0a83d8f8913b8","bdp_trlrn","Sun Mar 12 2023 20:58:13 GMT-0700 (PDT)","603406","Trustworthy,Untrustworthy","","null","","","","feedback","","<div class='trialDiv'><img src='trustrating_stim/white_00602_940928_fb_edt.bmp'><br><font class='baseline'><strong>Ryan</strong><p>Received: <strong>12</strong></font> &nbsp; &nbsp; &nbsp; &nbsp; &nbsp; &nbsp;<font class='posOutcome'>Shared back: <strong>6</strong></font></font><div class='respPicDiv'><img src='img/responseButtonOffersNo0_wht.png' class='respPic'></div></div>","null","4","Ryan","11","Shared","0.65,0.2","8","0.65","trustrating_stim/white_00602_940928_fb_edt.bmp","3","62","10"
"html-keyboard-response","167","292177","0.0-19.0-1.10","5fb7c9fa2be0a83d8f8913b8","bdp_trlrn","Sun Mar 12 2023 20:58:13 GMT-0700 (PDT)","603406","Trustworthy,Untrustworthy","","610","","","","decision","","<div class='trialDiv'><img src='trustrating_stim/white_mw046.bmp'><br><font class='baseline'><strong>Gavin</strong><p>Choose number of points to send.</font><div class='respPicDiv'><img src='img/responseButtonOffersNo0L.png' class='respPic'></div></div>","4","4","Gavin","4","Kept","0.8,0.2","12","0.8","trustrating_stim/white_mw046.bmp","1","67","11"
"html-keyboard-response","168","292430","0.0-19.0-2.10","5fb7c9fa2be0a83d8f8913b8","bdp_trlrn","Sun Mar 12 2023 20:58:13 GMT-0700 (PDT)","603406","Trustworthy,Untrustworthy","","null","","","","decisionFB","","<div class='trialDiv'><img src='trustrating_stim/white_mw046.bmp'><br><font class='baseline'><strong>Gavin</strong><p>Choose number of points to send.</font><div class='respPicDiv'><img src='img/responseButtonOffersNo0L4.png' class='respPic'></div></div>","null","4","Gavin","4","Kept","0.8,0.2","12","0.8","trustrating_stim/white_mw046.bmp","1","63","11"
"html-keyboard-response","169","293432","0.0-19.0-3.10","5fb7c9fa2be0a83d8f8913b8","bdp_trlrn","Sun Mar 12 2023 20:58:13 GMT-0700 (PDT)","603406","Trustworthy,Untrustworthy","","null","","","","feedback","","<div class='trialDiv'><img src='trustrating_stim/white_mw046.bmp'><br><font class='baseline'><strong>Gavin</strong><p>Received: <strong>16</strong></font> &nbsp; &nbsp; &nbsp; &nbsp; &nbsp; &nbsp;<font class='negOutcome'>Shared back: <strong>0</strong></font></font><div class='respPicDiv'><img src='img/responseButtonOffersNo0_wht.png' class='respPic'></div></div>","null","4","Gavin","4","Kept","0.8,0.2","12","0.8","trustrating_stim/white_mw046.bmp","1","63","11"
"html-keyboard-response","170","294617","0.0-19.0-1.11","5fb7c9fa2be0a83d8f8913b8","bdp_trlrn","Sun Mar 12 2023 20:58:13 GMT-0700 (PDT)","603406","Trustworthy,Untrustworthy","","1184","","","","decision","","<div class='trialDiv'><img src='trustrating_stim/white_00577_940928_fa_edt.bmp'><br><font class='baseline'><strong>Caleb</strong><p>Choose number of points to send.</font><div class='respPicDiv'><img src='img/responseButtonOffersNo0L.png' class='respPic'></div></div>","2","4","Caleb","3","Kept","0.2,0.65","9","0.2","trustrating_stim/white_00577_940928_fa_edt.bmp","1","68","12"
"html-keyboard-response","171","294870","0.0-19.0-2.11","5fb7c9fa2be0a83d8f8913b8","bdp_trlrn","Sun Mar 12 2023 20:58:13 GMT-0700 (PDT)","603406","Trustworthy,Untrustworthy","","null","","","","decisionFB","","<div class='trialDiv'><img src='trustrating_stim/white_00577_940928_fa_edt.bmp'><br><font class='baseline'><strong>Caleb</strong><p>Choose number of points to send.</font><div class='respPicDiv'><img src='img/responseButtonOffersNo0L2.png' class='respPic'></div></div>","null","4","Caleb","3","Kept","0.2,0.65","9","0.2","trustrating_stim/white_00577_940928_fa_edt.bmp","1","66","12"
"html-keyboard-response","172","295872","0.0-19.0-3.11","5fb7c9fa2be0a83d8f8913b8","bdp_trlrn","Sun Mar 12 2023 20:58:13 GMT-0700 (PDT)","603406","Trustworthy,Untrustworthy","","null","","","","feedback","","<div class='trialDiv'><img src='trustrating_stim/white_00577_940928_fa_edt.bmp'><br><font class='baseline'><strong>Caleb</strong><p>Received: <strong>8</strong></font> &nbsp; &nbsp; &nbsp; &nbsp; &nbsp; &nbsp;<font class='negOutcome'>Shared back: <strong>0</strong></font></font><div class='respPicDiv'><img src='img/responseButtonOffersNo0_wht.png' class='respPic'></div></div>","null","4","Caleb","3","Kept","0.2,0.65","9","0.2","trustrating_stim/white_00577_940928_fa_edt.bmp","1","66","12"
"html-keyboard-response","173","296920","0.0-19.0-1.12","5fb7c9fa2be0a83d8f8913b8","bdp_trlrn","Sun Mar 12 2023 20:58:13 GMT-0700 (PDT)","603406","Trustworthy,Untrustworthy","","1047","","","","decision","","<div class='trialDiv'><img src='trustrating_stim/white_00602_940928_fb_edt.bmp'><br><font class='baseline'><strong>Ryan</strong><p>Choose number of points to send.</font><div class='respPicDiv'><img src='img/responseButtonOffersNo0L.png' class='respPic'></div></div>","3","5","Ryan","11","Shared","0.65,0.2","8","0.65","trustrating_stim/white_00602_940928_fb_edt.bmp","3","71","13"
"html-keyboard-response","174","297172","0.0-19.0-2.12","5fb7c9fa2be0a83d8f8913b8","bdp_trlrn","Sun Mar 12 2023 20:58:13 GMT-0700 (PDT)","603406","Trustworthy,Untrustworthy","","null","","","","decisionFB","","<div class='trialDiv'><img src='trustrating_stim/white_00602_940928_fb_edt.bmp'><br><font class='baseline'><strong>Ryan</strong><p>Choose number of points to send.</font><div class='respPicDiv'><img src='img/responseButtonOffersNo0L3.png' class='respPic'></div></div>","null","5","Ryan","11","Shared","0.65,0.2","8","0.65","trustrating_stim/white_00602_940928_fb_edt.bmp","3","68","13"
"html-keyboard-response","175","298175","0.0-19.0-3.12","5fb7c9fa2be0a83d8f8913b8","bdp_trlrn","Sun Mar 12 2023 20:58:13 GMT-0700 (PDT)","603406","Trustworthy,Untrustworthy","","null","","","","feedback","","<div class='trialDiv'><img src='trustrating_stim/white_00602_940928_fb_edt.bmp'><br><font class='baseline'><strong>Ryan</strong><p>Received: <strong>12</strong></font> &nbsp; &nbsp; &nbsp; &nbsp; &nbsp; &nbsp;<font class='posOutcome'>Shared back: <strong>6</strong></font></font><div class='respPicDiv'><img src='img/responseButtonOffersNo0_wht.png' class='respPic'></div></div>","null","5","Ryan","11","Shared","0.65,0.2","8","0.65","trustrating_stim/white_00602_940928_fb_edt.bmp","3","74","13"
"html-keyboard-response","176","298895","0.0-19.0-1.13","5fb7c9fa2be0a83d8f8913b8","bdp_trlrn","Sun Mar 12 2023 20:58:13 GMT-0700 (PDT)","603406","Trustworthy,Untrustworthy","","719","","","","decision","","<div class='trialDiv'><img src='trustrating_stim/white_mw046.bmp'><br><font class='baseline'><strong>Gavin</strong><p>Choose number of points to send.</font><div class='respPicDiv'><img src='img/responseButtonOffersNo0L.png' class='respPic'></div></div>","1","5","Gavin","4","Shared","0.8,0.2","12","0.8","trustrating_stim/white_mw046.bmp","1","79","14"
"html-keyboard-response","177","299147","0.0-19.0-2.13","5fb7c9fa2be0a83d8f8913b8","bdp_trlrn","Sun Mar 12 2023 20:58:13 GMT-0700 (PDT)","603406","Trustworthy,Untrustworthy","","null","","","","decisionFB","","<div class='trialDiv'><img src='trustrating_stim/white_mw046.bmp'><br><font class='baseline'><strong>Gavin</strong><p>Choose number of points to send.</font><div class='respPicDiv'><img src='img/responseButtonOffersNo0L1.png' class='respPic'></div></div>","null","5","Gavin","4","Shared","0.8,0.2","12","0.8","trustrating_stim/white_mw046.bmp","1","78","14"
"html-keyboard-response","178","300149","0.0-19.0-3.13","5fb7c9fa2be0a83d8f8913b8","bdp_trlrn","Sun Mar 12 2023 20:58:13 GMT-0700 (PDT)","603406","Trustworthy,Untrustworthy","","null","","","","feedback","","<div class='trialDiv'><img src='trustrating_stim/white_mw046.bmp'><br><font class='baseline'><strong>Gavin</strong><p>Received: <strong>4</strong></font> &nbsp; &nbsp; &nbsp; &nbsp; &nbsp; &nbsp;<font class='posOutcome'>Shared back: <strong>2</strong></font></font><div class='respPicDiv'><img src='img/responseButtonOffersNo0_wht.png' class='respPic'></div></div>","null","5","Gavin","4","Shared","0.8,0.2","12","0.8","trustrating_stim/white_mw046.bmp","1","80","14"
"html-keyboard-response","179","300928","0.0-19.0-1.14","5fb7c9fa2be0a83d8f8913b8","bdp_trlrn","Sun Mar 12 2023 20:58:13 GMT-0700 (PDT)","603406","Trustworthy,Untrustworthy","","778","","","","decision","","<div class='trialDiv'><img src='trustrating_stim/white_00577_940928_fa_edt.bmp'><br><font class='baseline'><strong>Caleb</strong><p>Choose number of points to send.</font><div class='respPicDiv'><img src='img/responseButtonOffersNo0L.png' class='respPic'></div></div>","1","5","Caleb","3","Shared","0.2,0.65","9","0.2","trustrating_stim/white_00577_940928_fa_edt.bmp","1","85","15"
"html-keyboard-response","180","301181","0.0-19.0-2.14","5fb7c9fa2be0a83d8f8913b8","bdp_trlrn","Sun Mar 12 2023 20:58:13 GMT-0700 (PDT)","603406","Trustworthy,Untrustworthy","","null","","","","decisionFB","","<div class='trialDiv'><img src='trustrating_stim/white_00577_940928_fa_edt.bmp'><br><font class='baseline'><strong>Caleb</strong><p>Choose number of points to send.</font><div class='respPicDiv'><img src='img/responseButtonOffersNo0L1.png' class='respPic'></div></div>","null","5","Caleb","3","Shared","0.2,0.65","9","0.2","trustrating_stim/white_00577_940928_fa_edt.bmp","1","84","15"
"html-keyboard-response","181","302183","0.0-19.0-3.14","5fb7c9fa2be0a83d8f8913b8","bdp_trlrn","Sun Mar 12 2023 20:58:13 GMT-0700 (PDT)","603406","Trustworthy,Untrustworthy","","null","","","","feedback","","<div class='trialDiv'><img src='trustrating_stim/white_00577_940928_fa_edt.bmp'><br><font class='baseline'><strong>Caleb</strong><p>Received: <strong>4</strong></font> &nbsp; &nbsp; &nbsp; &nbsp; &nbsp; &nbsp;<font class='posOutcome'>Shared back: <strong>2</strong></font></font><div class='respPicDiv'><img src='img/responseButtonOffersNo0_wht.png' class='respPic'></div></div>","null","5","Caleb","3","Shared","0.2,0.65","9","0.2","trustrating_stim/white_00577_940928_fa_edt.bmp","1","86","15"
"html-keyboard-response","182","302752","0.0-19.0-1.15","5fb7c9fa2be0a83d8f8913b8","bdp_trlrn","Sun Mar 12 2023 20:58:13 GMT-0700 (PDT)","603406","Trustworthy,Untrustworthy","","567","","","","decision","","<div class='trialDiv'><img src='trustrating_stim/white_mw046.bmp'><br><font class='baseline'><strong>Gavin</strong><p>Choose number of points to send.</font><div class='respPicDiv'><img src='img/responseButtonOffersNo0L.png' class='respPic'></div></div>","1","6","Gavin","4","Shared","0.8,0.2","12","0.8","trustrating_stim/white_mw046.bmp","1","91","16"
"html-keyboard-response","183","303004","0.0-19.0-2.15","5fb7c9fa2be0a83d8f8913b8","bdp_trlrn","Sun Mar 12 2023 20:58:13 GMT-0700 (PDT)","603406","Trustworthy,Untrustworthy","","null","","","","decisionFB","","<div class='trialDiv'><img src='trustrating_stim/white_mw046.bmp'><br><font class='baseline'><strong>Gavin</strong><p>Choose number of points to send.</font><div class='respPicDiv'><img src='img/responseButtonOffersNo0L1.png' class='respPic'></div></div>","null","6","Gavin","4","Shared","0.8,0.2","12","0.8","trustrating_stim/white_mw046.bmp","1","90","16"
"html-keyboard-response","184","304006","0.0-19.0-3.15","5fb7c9fa2be0a83d8f8913b8","bdp_trlrn","Sun Mar 12 2023 20:58:13 GMT-0700 (PDT)","603406","Trustworthy,Untrustworthy","","null","","","","feedback","","<div class='trialDiv'><img src='trustrating_stim/white_mw046.bmp'><br><font class='baseline'><strong>Gavin</strong><p>Received: <strong>4</strong></font> &nbsp; &nbsp; &nbsp; &nbsp; &nbsp; &nbsp;<font class='posOutcome'>Shared back: <strong>2</strong></font></font><div class='respPicDiv'><img src='img/responseButtonOffersNo0_wht.png' class='respPic'></div></div>","null","6","Gavin","4","Shared","0.8,0.2","12","0.8","trustrating_stim/white_mw046.bmp","1","92","16"
"html-keyboard-response","185","305180","0.0-19.0-1.16","5fb7c9fa2be0a83d8f8913b8","bdp_trlrn","Sun Mar 12 2023 20:58:13 GMT-0700 (PDT)","603406","Trustworthy,Untrustworthy","","1172","","","","decision","","<div class='trialDiv'><img src='trustrating_stim/white_00602_940928_fb_edt.bmp'><br><font class='baseline'><strong>Ryan</strong><p>Choose number of points to send.</font><div class='respPicDiv'><img src='img/responseButtonOffersNo0L.png' class='respPic'></div></div>","4","6","Ryan","11","Shared","0.65,0.2","8","0.65","trustrating_stim/white_00602_940928_fb_edt.bmp","3","97","17"
"html-keyboard-response","186","305432","0.0-19.0-2.16","5fb7c9fa2be0a83d8f8913b8","bdp_trlrn","Sun Mar 12 2023 20:58:13 GMT-0700 (PDT)","603406","Trustworthy,Untrustworthy","","null","","","","decisionFB","","<div class='trialDiv'><img src='trustrating_stim/white_00602_940928_fb_edt.bmp'><br><font class='baseline'><strong>Ryan</strong><p>Choose number of points to send.</font><div class='respPicDiv'><img src='img/responseButtonOffersNo0L4.png' class='respPic'></div></div>","null","6","Ryan","11","Shared","0.65,0.2","8","0.65","trustrating_stim/white_00602_940928_fb_edt.bmp","3","93","17"
"html-keyboard-response","187","306435","0.0-19.0-3.16","5fb7c9fa2be0a83d8f8913b8","bdp_trlrn","Sun Mar 12 2023 20:58:13 GMT-0700 (PDT)","603406","Trustworthy,Untrustworthy","","null","","","","feedback","","<div class='trialDiv'><img src='trustrating_stim/white_00602_940928_fb_edt.bmp'><br><font class='baseline'><strong>Ryan</strong><p>Received: <strong>16</strong></font> &nbsp; &nbsp; &nbsp; &nbsp; &nbsp; &nbsp;<font class='posOutcome'>Shared back: <strong>8</strong></font></font><div class='respPicDiv'><img src='img/responseButtonOffersNo0_wht.png' class='respPic'></div></div>","null","6","Ryan","11","Shared","0.65,0.2","8","0.65","trustrating_stim/white_00602_940928_fb_edt.bmp","3","101","17"
"html-keyboard-response","188","307464","0.0-19.0-1.17","5fb7c9fa2be0a83d8f8913b8","bdp_trlrn","Sun Mar 12 2023 20:58:13 GMT-0700 (PDT)","603406","Trustworthy,Untrustworthy","","1028","","","","decision","","<div class='trialDiv'><img src='trustrating_stim/white_00577_940928_fa_edt.bmp'><br><font class='baseline'><strong>Caleb</strong><p>Choose number of points to send.</font><div class='respPicDiv'><img src='img/responseButtonOffersNo0L.png' class='respPic'></div></div>","2","6","Caleb","3","Kept","0.2,0.65","9","0.2","trustrating_stim/white_00577_940928_fa_edt.bmp","1","106","18"
"html-keyboard-response","189","307717","0.0-19.0-2.17","5fb7c9fa2be0a83d8f8913b8","bdp_trlrn","Sun Mar 12 2023 20:58:13 GMT-0700 (PDT)","603406","Trustworthy,Untrustworthy","","null","","","","decisionFB","","<div class='trialDiv'><img src='trustrating_stim/white_00577_940928_fa_edt.bmp'><br><font class='baseline'><strong>Caleb</strong><p>Choose number of points to send.</font><div class='respPicDiv'><img src='img/responseButtonOffersNo0L2.png' class='respPic'></div></div>","null","6","Caleb","3","Kept","0.2,0.65","9","0.2","trustrating_stim/white_00577_940928_fa_edt.bmp","1","104","18"
"html-keyboard-response","190","308719","0.0-19.0-3.17","5fb7c9fa2be0a83d8f8913b8","bdp_trlrn","Sun Mar 12 2023 20:58:13 GMT-0700 (PDT)","603406","Trustworthy,Untrustworthy","","null","","","","feedback","","<div class='trialDiv'><img src='trustrating_stim/white_00577_940928_fa_edt.bmp'><br><font class='baseline'><strong>Caleb</strong><p>Received: <strong>8</strong></font> &nbsp; &nbsp; &nbsp; &nbsp; &nbsp; &nbsp;<font class='negOutcome'>Shared back: <strong>0</strong></font></font><div class='respPicDiv'><img src='img/responseButtonOffersNo0_wht.png' class='respPic'></div></div>","null","6","Caleb","3","Kept","0.2,0.65","9","0.2","trustrating_stim/white_00577_940928_fa_edt.bmp","1","104","18"
"html-keyboard-response","191","310005","0.0-19.0-1.18","5fb7c9fa2be0a83d8f8913b8","bdp_trlrn","Sun Mar 12 2023 20:58:13 GMT-0700 (PDT)","603406","Trustworthy,Untrustworthy","","1285","","","","decision","","<div class='trialDiv'><img src='trustrating_stim/white_00602_940928_fb_edt.bmp'><br><font class='baseline'><strong>Ryan</strong><p>Choose number of points to send.</font><div class='respPicDiv'><img src='img/responseButtonOffersNo0L.png' class='respPic'></div></div>","4","7","Ryan","11","Kept","0.65,0.2","8","0.65","trustrating_stim/white_00602_940928_fb_edt.bmp","3","109","19"
"html-keyboard-response","192","310258","0.0-19.0-2.18","5fb7c9fa2be0a83d8f8913b8","bdp_trlrn","Sun Mar 12 2023 20:58:13 GMT-0700 (PDT)","603406","Trustworthy,Untrustworthy","","null","","","","decisionFB","","<div class='trialDiv'><img src='trustrating_stim/white_00602_940928_fb_edt.bmp'><br><font class='baseline'><strong>Ryan</strong><p>Choose number of points to send.</font><div class='respPicDiv'><img src='img/responseButtonOffersNo0L4.png' class='respPic'></div></div>","null","7","Ryan","11","Kept","0.65,0.2","8","0.65","trustrating_stim/white_00602_940928_fb_edt.bmp","3","105","19"
"html-keyboard-response","193","311260","0.0-19.0-3.18","5fb7c9fa2be0a83d8f8913b8","bdp_trlrn","Sun Mar 12 2023 20:58:13 GMT-0700 (PDT)","603406","Trustworthy,Untrustworthy","","null","","","","feedback","","<div class='trialDiv'><img src='trustrating_stim/white_00602_940928_fb_edt.bmp'><br><font class='baseline'><strong>Ryan</strong><p>Received: <strong>16</strong></font> &nbsp; &nbsp; &nbsp; &nbsp; &nbsp; &nbsp;<font class='negOutcome'>Shared back: <strong>0</strong></font></font><div class='respPicDiv'><img src='img/responseButtonOffersNo0_wht.png' class='respPic'></div></div>","null","7","Ryan","11","Kept","0.65,0.2","8","0.65","trustrating_stim/white_00602_940928_fb_edt.bmp","3","105","19"
"html-keyboard-response","194","312050","0.0-19.0-1.19","5fb7c9fa2be0a83d8f8913b8","bdp_trlrn","Sun Mar 12 2023 20:58:13 GMT-0700 (PDT)","603406","Trustworthy,Untrustworthy","","789","","","","decision","","<div class='trialDiv'><img src='trustrating_stim/white_mw046.bmp'><br><font class='baseline'><strong>Gavin</strong><p>Choose number of points to send.</font><div class='respPicDiv'><img src='img/responseButtonOffersNo0L.png' class='respPic'></div></div>","3","7","Gavin","4","Kept","0.8,0.2","12","0.8","trustrating_stim/white_mw046.bmp","1","110","20"
"html-keyboard-response","195","312303","0.0-19.0-2.19","5fb7c9fa2be0a83d8f8913b8","bdp_trlrn","Sun Mar 12 2023 20:58:13 GMT-0700 (PDT)","603406","Trustworthy,Untrustworthy","","null","","","","decisionFB","","<div class='trialDiv'><img src='trustrating_stim/white_mw046.bmp'><br><font class='baseline'><strong>Gavin</strong><p>Choose number of points to send.</font><div class='respPicDiv'><img src='img/responseButtonOffersNo0L3.png' class='respPic'></div></div>","null","7","Gavin","4","Kept","0.8,0.2","12","0.8","trustrating_stim/white_mw046.bmp","1","107","20"
"html-keyboard-response","196","313305","0.0-19.0-3.19","5fb7c9fa2be0a83d8f8913b8","bdp_trlrn","Sun Mar 12 2023 20:58:13 GMT-0700 (PDT)","603406","Trustworthy,Untrustworthy","","null","","","","feedback","","<div class='trialDiv'><img src='trustrating_stim/white_mw046.bmp'><br><font class='baseline'><strong>Gavin</strong><p>Received: <strong>12</strong></font> &nbsp; &nbsp; &nbsp; &nbsp; &nbsp; &nbsp;<font class='negOutcome'>Shared back: <strong>0</strong></font></font><div class='respPicDiv'><img src='img/responseButtonOffersNo0_wht.png' class='respPic'></div></div>","null","7","Gavin","4","Kept","0.8,0.2","12","0.8","trustrating_stim/white_mw046.bmp","1","107","20"
"html-keyboard-response","197","314258","0.0-19.0-1.20","5fb7c9fa2be0a83d8f8913b8","bdp_trlrn","Sun Mar 12 2023 20:58:13 GMT-0700 (PDT)","603406","Trustworthy,Untrustworthy","","952","","","","decision","","<div class='trialDiv'><img src='trustrating_stim/white_00577_940928_fa_edt.bmp'><br><font class='baseline'><strong>Caleb</strong><p>Choose number of points to send.</font><div class='respPicDiv'><img src='img/responseButtonOffersNo0L.png' class='respPic'></div></div>","1","7","Caleb","3","Kept","0.2,0.65","9","0.2","trustrating_stim/white_00577_940928_fa_edt.bmp","1","112","21"
"html-keyboard-response","198","314511","0.0-19.0-2.20","5fb7c9fa2be0a83d8f8913b8","bdp_trlrn","Sun Mar 12 2023 20:58:13 GMT-0700 (PDT)","603406","Trustworthy,Untrustworthy","","null","","","","decisionFB","","<div class='trialDiv'><img src='trustrating_stim/white_00577_940928_fa_edt.bmp'><br><font class='baseline'><strong>Caleb</strong><p>Choose number of points to send.</font><div class='respPicDiv'><img src='img/responseButtonOffersNo0L1.png' class='respPic'></div></div>","null","7","Caleb","3","Kept","0.2,0.65","9","0.2","trustrating_stim/white_00577_940928_fa_edt.bmp","1","111","21"
"html-keyboard-response","199","315513","0.0-19.0-3.20","5fb7c9fa2be0a83d8f8913b8","bdp_trlrn","Sun Mar 12 2023 20:58:13 GMT-0700 (PDT)","603406","Trustworthy,Untrustworthy","","null","","","","feedback","","<div class='trialDiv'><img src='trustrating_stim/white_00577_940928_fa_edt.bmp'><br><font class='baseline'><strong>Caleb</strong><p>Received: <strong>4</strong></font> &nbsp; &nbsp; &nbsp; &nbsp; &nbsp; &nbsp;<font class='negOutcome'>Shared back: <strong>0</strong></font></font><div class='respPicDiv'><img src='img/responseButtonOffersNo0_wht.png' class='respPic'></div></div>","null","7","Caleb","3","Kept","0.2,0.65","9","0.2","trustrating_stim/white_00577_940928_fa_edt.bmp","1","111","21"
"html-keyboard-response","200","316218","0.0-19.0-1.21","5fb7c9fa2be0a83d8f8913b8","bdp_trlrn","Sun Mar 12 2023 20:58:13 GMT-0700 (PDT)","603406","Trustworthy,Untrustworthy","","704","","","","decision","","<div class='trialDiv'><img src='trustrating_stim/white_mw046.bmp'><br><font class='baseline'><strong>Gavin</strong><p>Choose number of points to send.</font><div class='respPicDiv'><img src='img/responseButtonOffersNo0L.png' class='respPic'></div></div>","2","8","Gavin","4","Shared","0.8,0.2","12","0.8","trustrating_stim/white_mw046.bmp","1","116","22"
"html-keyboard-response","201","316471","0.0-19.0-2.21","5fb7c9fa2be0a83d8f8913b8","bdp_trlrn","Sun Mar 12 2023 20:58:13 GMT-0700 (PDT)","603406","Trustworthy,Untrustworthy","","null","","","","decisionFB","","<div class='trialDiv'><img src='trustrating_stim/white_mw046.bmp'><br><font class='baseline'><strong>Gavin</strong><p>Choose number of points to send.</font><div class='respPicDiv'><img src='img/responseButtonOffersNo0L2.png' class='respPic'></div></div>","null","8","Gavin","4","Shared","0.8,0.2","12","0.8","trustrating_stim/white_mw046.bmp","1","114","22"
"html-keyboard-response","202","317473","0.0-19.0-3.21","5fb7c9fa2be0a83d8f8913b8","bdp_trlrn","Sun Mar 12 2023 20:58:13 GMT-0700 (PDT)","603406","Trustworthy,Untrustworthy","","null","","","","feedback","","<div class='trialDiv'><img src='trustrating_stim/white_mw046.bmp'><br><font class='baseline'><strong>Gavin</strong><p>Received: <strong>8</strong></font> &nbsp; &nbsp; &nbsp; &nbsp; &nbsp; &nbsp;<font class='posOutcome'>Shared back: <strong>4</strong></font></font><div class='respPicDiv'><img src='img/responseButtonOffersNo0_wht.png' class='respPic'></div></div>","null","8","Gavin","4","Shared","0.8,0.2","12","0.8","trustrating_stim/white_mw046.bmp","1","118","22"
"html-keyboard-response","203","318106","0.0-19.0-1.22","5fb7c9fa2be0a83d8f8913b8","bdp_trlrn","Sun Mar 12 2023 20:58:13 GMT-0700 (PDT)","603406","Trustworthy,Untrustworthy","","632","","","","decision","","<div class='trialDiv'><img src='trustrating_stim/white_00577_940928_fa_edt.bmp'><br><font class='baseline'><strong>Caleb</strong><p>Choose number of points to send.</font><div class='respPicDiv'><img src='img/responseButtonOffersNo0L.png' class='respPic'></div></div>","2","8","Caleb","3","Kept","0.2,0.65","9","0.2","trustrating_stim/white_00577_940928_fa_edt.bmp","1","123","23"
"html-keyboard-response","204","318357","0.0-19.0-2.22","5fb7c9fa2be0a83d8f8913b8","bdp_trlrn","Sun Mar 12 2023 20:58:13 GMT-0700 (PDT)","603406","Trustworthy,Untrustworthy","","null","","","","decisionFB","","<div class='trialDiv'><img src='trustrating_stim/white_00577_940928_fa_edt.bmp'><br><font class='baseline'><strong>Caleb</strong><p>Choose number of points to send.</font><div class='respPicDiv'><img src='img/responseButtonOffersNo0L2.png' class='respPic'></div></div>","null","8","Caleb","3","Kept","0.2,0.65","9","0.2","trustrating_stim/white_00577_940928_fa_edt.bmp","1","121","23"
"html-keyboard-response","205","319359","0.0-19.0-3.22","5fb7c9fa2be0a83d8f8913b8","bdp_trlrn","Sun Mar 12 2023 20:58:13 GMT-0700 (PDT)","603406","Trustworthy,Untrustworthy","","null","","","","feedback","","<div class='trialDiv'><img src='trustrating_stim/white_00577_940928_fa_edt.bmp'><br><font class='baseline'><strong>Caleb</strong><p>Received: <strong>8</strong></font> &nbsp; &nbsp; &nbsp; &nbsp; &nbsp; &nbsp;<font class='negOutcome'>Shared back: <strong>0</strong></font></font><div class='respPicDiv'><img src='img/responseButtonOffersNo0_wht.png' class='respPic'></div></div>","null","8","Caleb","3","Kept","0.2,0.65","9","0.2","trustrating_stim/white_00577_940928_fa_edt.bmp","1","121","23"
"html-keyboard-response","206","320487","0.0-19.0-1.23","5fb7c9fa2be0a83d8f8913b8","bdp_trlrn","Sun Mar 12 2023 20:58:13 GMT-0700 (PDT)","603406","Trustworthy,Untrustworthy","","1127","","","","decision","","<div class='trialDiv'><img src='trustrating_stim/white_00602_940928_fb_edt.bmp'><br><font class='baseline'><strong>Ryan</strong><p>Choose number of points to send.</font><div class='respPicDiv'><img src='img/responseButtonOffersNo0L.png' class='respPic'></div></div>","3","8","Ryan","11","Kept","0.65,0.2","8","0.65","trustrating_stim/white_00602_940928_fb_edt.bmp","3","126","24"
"html-keyboard-response","207","320739","0.0-19.0-2.23","5fb7c9fa2be0a83d8f8913b8","bdp_trlrn","Sun Mar 12 2023 20:58:13 GMT-0700 (PDT)","603406","Trustworthy,Untrustworthy","","null","","","","decisionFB","","<div class='trialDiv'><img src='trustrating_stim/white_00602_940928_fb_edt.bmp'><br><font class='baseline'><strong>Ryan</strong><p>Choose number of points to send.</font><div class='respPicDiv'><img src='img/responseButtonOffersNo0L3.png' class='respPic'></div></div>","null","8","Ryan","11","Kept","0.65,0.2","8","0.65","trustrating_stim/white_00602_940928_fb_edt.bmp","3","123","24"
"html-keyboard-response","208","321741","0.0-19.0-3.23","5fb7c9fa2be0a83d8f8913b8","bdp_trlrn","Sun Mar 12 2023 20:58:13 GMT-0700 (PDT)","603406","Trustworthy,Untrustworthy","","null","","","","feedback","","<div class='trialDiv'><img src='trustrating_stim/white_00602_940928_fb_edt.bmp'><br><font class='baseline'><strong>Ryan</strong><p>Received: <strong>12</strong></font> &nbsp; &nbsp; &nbsp; &nbsp; &nbsp; &nbsp;<font class='negOutcome'>Shared back: <strong>0</strong></font></font><div class='respPicDiv'><img src='img/responseButtonOffersNo0_wht.png' class='respPic'></div></div>","null","8","Ryan","11","Kept","0.65,0.2","8","0.65","trustrating_stim/white_00602_940928_fb_edt.bmp","3","123","24"
"html-keyboard-response","209","322848","0.0-19.0-1.24","5fb7c9fa2be0a83d8f8913b8","bdp_trlrn","Sun Mar 12 2023 20:58:13 GMT-0700 (PDT)","603406","Trustworthy,Untrustworthy","","1105","","","","decision","","<div class='trialDiv'><img src='trustrating_stim/white_00577_940928_fa_edt.bmp'><br><font class='baseline'><strong>Caleb</strong><p>Choose number of points to send.</font><div class='respPicDiv'><img src='img/responseButtonOffersNo0L.png' class='respPic'></div></div>","1","9","Caleb","3","Kept","0.2,0.65","9","0.2","trustrating_stim/white_00577_940928_fa_edt.bmp","1","128","25"
"html-keyboard-response","210","323100","0.0-19.0-2.24","5fb7c9fa2be0a83d8f8913b8","bdp_trlrn","Sun Mar 12 2023 20:58:13 GMT-0700 (PDT)","603406","Trustworthy,Untrustworthy","","null","","","","decisionFB","","<div class='trialDiv'><img src='trustrating_stim/white_00577_940928_fa_edt.bmp'><br><font class='baseline'><strong>Caleb</strong><p>Choose number of points to send.</font><div class='respPicDiv'><img src='img/responseButtonOffersNo0L1.png' class='respPic'></div></div>","null","9","Caleb","3","Kept","0.2,0.65","9","0.2","trustrating_stim/white_00577_940928_fa_edt.bmp","1","127","25"
"html-keyboard-response","211","324103","0.0-19.0-3.24","5fb7c9fa2be0a83d8f8913b8","bdp_trlrn","Sun Mar 12 2023 20:58:13 GMT-0700 (PDT)","603406","Trustworthy,Untrustworthy","","null","","","","feedback","","<div class='trialDiv'><img src='trustrating_stim/white_00577_940928_fa_edt.bmp'><br><font class='baseline'><strong>Caleb</strong><p>Received: <strong>4</strong></font> &nbsp; &nbsp; &nbsp; &nbsp; &nbsp; &nbsp;<font class='negOutcome'>Shared back: <strong>0</strong></font></font><div class='respPicDiv'><img src='img/responseButtonOffersNo0_wht.png' class='respPic'></div></div>","null","9","Caleb","3","Kept","0.2,0.65","9","0.2","trustrating_stim/white_00577_940928_fa_edt.bmp","1","127","25"
"html-keyboard-response","212","324600","0.0-19.0-1.25","5fb7c9fa2be0a83d8f8913b8","bdp_trlrn","Sun Mar 12 2023 20:58:13 GMT-0700 (PDT)","603406","Trustworthy,Untrustworthy","","496","","","","decision","","<div class='trialDiv'><img src='trustrating_stim/white_00602_940928_fb_edt.bmp'><br><font class='baseline'><strong>Ryan</strong><p>Choose number of points to send.</font><div class='respPicDiv'><img src='img/responseButtonOffersNo0L.png' class='respPic'></div></div>","1","9","Ryan","11","Kept","0.65,0.2","8","0.65","trustrating_stim/white_00602_940928_fb_edt.bmp","3","132","26"
"html-keyboard-response","213","324852","0.0-19.0-2.25","5fb7c9fa2be0a83d8f8913b8","bdp_trlrn","Sun Mar 12 2023 20:58:13 GMT-0700 (PDT)","603406","Trustworthy,Untrustworthy","","null","","","","decisionFB","","<div class='trialDiv'><img src='trustrating_stim/white_00602_940928_fb_edt.bmp'><br><font class='baseline'><strong>Ryan</strong><p>Choose number of points to send.</font><div class='respPicDiv'><img src='img/responseButtonOffersNo0L1.png' class='respPic'></div></div>","null","9","Ryan","11","Kept","0.65,0.2","8","0.65","trustrating_stim/white_00602_940928_fb_edt.bmp","3","131","26"
"html-keyboard-response","214","325854","0.0-19.0-3.25","5fb7c9fa2be0a83d8f8913b8","bdp_trlrn","Sun Mar 12 2023 20:58:13 GMT-0700 (PDT)","603406","Trustworthy,Untrustworthy","","null","","","","feedback","","<div class='trialDiv'><img src='trustrating_stim/white_00602_940928_fb_edt.bmp'><br><font class='baseline'><strong>Ryan</strong><p>Received: <strong>4</strong></font> &nbsp; &nbsp; &nbsp; &nbsp; &nbsp; &nbsp;<font class='negOutcome'>Shared back: <strong>0</strong></font></font><div class='respPicDiv'><img src='img/responseButtonOffersNo0_wht.png' class='respPic'></div></div>","null","9","Ryan","11","Kept","0.65,0.2","8","0.65","trustrating_stim/white_00602_940928_fb_edt.bmp","3","131","26"
"html-keyboard-response","215","326626","0.0-19.0-1.26","5fb7c9fa2be0a83d8f8913b8","bdp_trlrn","Sun Mar 12 2023 20:58:13 GMT-0700 (PDT)","603406","Trustworthy,Untrustworthy","","770","","","","decision","","<div class='trialDiv'><img src='trustrating_stim/white_mw046.bmp'><br><font class='baseline'><strong>Gavin</strong><p>Choose number of points to send.</font><div class='respPicDiv'><img src='img/responseButtonOffersNo0L.png' class='respPic'></div></div>","2","9","Gavin","4","Shared","0.8,0.2","12","0.8","trustrating_stim/white_mw046.bmp","1","136","27"
"html-keyboard-response","216","326877","0.0-19.0-2.26","5fb7c9fa2be0a83d8f8913b8","bdp_trlrn","Sun Mar 12 2023 20:58:13 GMT-0700 (PDT)","603406","Trustworthy,Untrustworthy","","null","","","","decisionFB","","<div class='trialDiv'><img src='trustrating_stim/white_mw046.bmp'><br><font class='baseline'><strong>Gavin</strong><p>Choose number of points to send.</font><div class='respPicDiv'><img src='img/responseButtonOffersNo0L2.png' class='respPic'></div></div>","null","9","Gavin","4","Shared","0.8,0.2","12","0.8","trustrating_stim/white_mw046.bmp","1","134","27"
"html-keyboard-response","217","327880","0.0-19.0-3.26","5fb7c9fa2be0a83d8f8913b8","bdp_trlrn","Sun Mar 12 2023 20:58:13 GMT-0700 (PDT)","603406","Trustworthy,Untrustworthy","","null","","","","feedback","","<div class='trialDiv'><img src='trustrating_stim/white_mw046.bmp'><br><font class='baseline'><strong>Gavin</strong><p>Received: <strong>8</strong></font> &nbsp; &nbsp; &nbsp; &nbsp; &nbsp; &nbsp;<font class='posOutcome'>Shared back: <strong>4</strong></font></font><div class='respPicDiv'><img src='img/responseButtonOffersNo0_wht.png' class='respPic'></div></div>","null","9","Gavin","4","Shared","0.8,0.2","12","0.8","trustrating_stim/white_mw046.bmp","1","138","27"
"html-keyboard-response","218","328706","0.0-19.0-1.27","5fb7c9fa2be0a83d8f8913b8","bdp_trlrn","Sun Mar 12 2023 20:58:13 GMT-0700 (PDT)","603406","Trustworthy,Untrustworthy","","824","","","","decision","","<div class='trialDiv'><img src='trustrating_stim/white_00602_940928_fb_edt.bmp'><br><font class='baseline'><strong>Ryan</strong><p>Choose number of points to send.</font><div class='respPicDiv'><img src='img/responseButtonOffersNo0L.png' class='respPic'></div></div>","1","10","Ryan","11","Kept","0.65,0.2","8","0.65","trustrating_stim/white_00602_940928_fb_edt.bmp","3","143","28"
"html-keyboard-response","219","328958","0.0-19.0-2.27","5fb7c9fa2be0a83d8f8913b8","bdp_trlrn","Sun Mar 12 2023 20:58:13 GMT-0700 (PDT)","603406","Trustworthy,Untrustworthy","","null","","","","decisionFB","","<div class='trialDiv'><img src='trustrating_stim/white_00602_940928_fb_edt.bmp'><br><font class='baseline'><strong>Ryan</strong><p>Choose number of points to send.</font><div class='respPicDiv'><img src='img/responseButtonOffersNo0L1.png' class='respPic'></div></div>","null","10","Ryan","11","Kept","0.65,0.2","8","0.65","trustrating_stim/white_00602_940928_fb_edt.bmp","3","142","28"
"html-keyboard-response","220","329960","0.0-19.0-3.27","5fb7c9fa2be0a83d8f8913b8","bdp_trlrn","Sun Mar 12 2023 20:58:13 GMT-0700 (PDT)","603406","Trustworthy,Untrustworthy","","null","","","","feedback","","<div class='trialDiv'><img src='trustrating_stim/white_00602_940928_fb_edt.bmp'><br><font class='baseline'><strong>Ryan</strong><p>Received: <strong>4</strong></font> &nbsp; &nbsp; &nbsp; &nbsp; &nbsp; &nbsp;<font class='negOutcome'>Shared back: <strong>0</strong></font></font><div class='respPicDiv'><img src='img/responseButtonOffersNo0_wht.png' class='respPic'></div></div>","null","10","Ryan","11","Kept","0.65,0.2","8","0.65","trustrating_stim/white_00602_940928_fb_edt.bmp","3","142","28"
"html-keyboard-response","221","330588","0.0-19.0-1.28","5fb7c9fa2be0a83d8f8913b8","bdp_trlrn","Sun Mar 12 2023 20:58:13 GMT-0700 (PDT)","603406","Trustworthy,Untrustworthy","","626","","","","decision","","<div class='trialDiv'><img src='trustrating_stim/white_00577_940928_fa_edt.bmp'><br><font class='baseline'><strong>Caleb</strong><p>Choose number of points to send.</font><div class='respPicDiv'><img src='img/responseButtonOffersNo0L.png' class='respPic'></div></div>","1","10","Caleb","3","Kept","0.2,0.65","9","0.2","trustrating_stim/white_00577_940928_fa_edt.bmp","1","147","29"
"html-keyboard-response","222","330840","0.0-19.0-2.28","5fb7c9fa2be0a83d8f8913b8","bdp_trlrn","Sun Mar 12 2023 20:58:13 GMT-0700 (PDT)","603406","Trustworthy,Untrustworthy","","null","","","","decisionFB","","<div class='trialDiv'><img src='trustrating_stim/white_00577_940928_fa_edt.bmp'><br><font class='baseline'><strong>Caleb</strong><p>Choose number of points to send.</font><div class='respPicDiv'><img src='img/responseButtonOffersNo0L1.png' class='respPic'></div></div>","null","10","Caleb","3","Kept","0.2,0.65","9","0.2","trustrating_stim/white_00577_940928_fa_edt.bmp","1","146","29"
"html-keyboard-response","223","331842","0.0-19.0-3.28","5fb7c9fa2be0a83d8f8913b8","bdp_trlrn","Sun Mar 12 2023 20:58:13 GMT-0700 (PDT)","603406","Trustworthy,Untrustworthy","","null","","","","feedback","","<div class='trialDiv'><img src='trustrating_stim/white_00577_940928_fa_edt.bmp'><br><font class='baseline'><strong>Caleb</strong><p>Received: <strong>4</strong></font> &nbsp; &nbsp; &nbsp; &nbsp; &nbsp; &nbsp;<font class='negOutcome'>Shared back: <strong>0</strong></font></font><div class='respPicDiv'><img src='img/responseButtonOffersNo0_wht.png' class='respPic'></div></div>","null","10","Caleb","3","Kept","0.2,0.65","9","0.2","trustrating_stim/white_00577_940928_fa_edt.bmp","1","146","29"
"html-keyboard-response","224","333073","0.0-19.0-1.29","5fb7c9fa2be0a83d8f8913b8","bdp_trlrn","Sun Mar 12 2023 20:58:13 GMT-0700 (PDT)","603406","Trustworthy,Untrustworthy","","1230","","","","decision","","<div class='trialDiv'><img src='trustrating_stim/white_mw046.bmp'><br><font class='baseline'><strong>Gavin</strong><p>Choose number of points to send.</font><div class='respPicDiv'><img src='img/responseButtonOffersNo0L.png' class='respPic'></div></div>","4","10","Gavin","4","Shared","0.8,0.2","12","0.8","trustrating_stim/white_mw046.bmp","1","151","30"
"html-keyboard-response","225","333326","0.0-19.0-2.29","5fb7c9fa2be0a83d8f8913b8","bdp_trlrn","Sun Mar 12 2023 20:58:13 GMT-0700 (PDT)","603406","Trustworthy,Untrustworthy","","null","","","","decisionFB","","<div class='trialDiv'><img src='trustrating_stim/white_mw046.bmp'><br><font class='baseline'><strong>Gavin</strong><p>Choose number of points to send.</font><div class='respPicDiv'><img src='img/responseButtonOffersNo0L4.png' class='respPic'></div></div>","null","10","Gavin","4","Shared","0.8,0.2","12","0.8","trustrating_stim/white_mw046.bmp","1","147","30"
"html-keyboard-response","226","334328","0.0-19.0-3.29","5fb7c9fa2be0a83d8f8913b8","bdp_trlrn","Sun Mar 12 2023 20:58:13 GMT-0700 (PDT)","603406","Trustworthy,Untrustworthy","","null","","","","feedback","","<div class='trialDiv'><img src='trustrating_stim/white_mw046.bmp'><br><font class='baseline'><strong>Gavin</strong><p>Received: <strong>16</strong></font> &nbsp; &nbsp; &nbsp; &nbsp; &nbsp; &nbsp;<font class='posOutcome'>Shared back: <strong>8</strong></font></font><div class='respPicDiv'><img src='img/responseButtonOffersNo0_wht.png' class='respPic'></div></div>","null","10","Gavin","4","Shared","0.8,0.2","12","0.8","trustrating_stim/white_mw046.bmp","1","155","30"
