"event","trial","time","trialtype","subject_id","task","startTime","totalTime","labels","trial_type","trial_index","time_elapsed","internal_node_id","view_history","rt","success","stimulus","key_press","aground","name","faceID","outcome","agenttype","agentswpt","agentcurrpshare","face","avgRating","point_total","round"
"focus","0","0","focusevent","6162341a644c08d5cca4b7bb","bdp_trlrn","Sun Mar 12 2023 17:19:10 GMT-0400 (Eastern Daylight Time)","523927","Untrustworthy,Trustworthy","","","","","","","","","","","","","","","","","","","",""
"","","","","6162341a644c08d5cca4b7bb","bdp_trlrn","Sun Mar 12 2023 17:19:10 GMT-0400 (Eastern Daylight Time)","523927","Untrustworthy,Trustworthy","pavlovia","0","3","0.0-0.0","","","","","","","","","","","","","","","",""
"","","","","6162341a644c08d5cca4b7bb","bdp_trlrn","Sun Mar 12 2023 17:19:10 GMT-0400 (Eastern Daylight Time)","523927","Untrustworthy,Trustworthy","instructions","1","2707","0.0-1.0","[{""page_index"":0,""viewing_time"":2704}]","2704","","","","","","","","","","","","","",""
"fullscreenexit","2","5916","fullscreenexit","6162341a644c08d5cca4b7bb","bdp_trlrn","Sun Mar 12 2023 17:19:10 GMT-0400 (Eastern Daylight Time)","523927","Untrustworthy,Trustworthy","","","","","","","","","","","","","","","","","","","",""
"","","","","6162341a644c08d5cca4b7bb","bdp_trlrn","Sun Mar 12 2023 17:19:10 GMT-0400 (Eastern Daylight Time)","523927","Untrustworthy,Trustworthy","fullscreen","2","6689","0.0-2.0","","","true","","","","","","","","","","","","",""
"","","","fullscreenfail","6162341a644c08d5cca4b7bb","bdp_trlrn","Sun Mar 12 2023 17:19:10 GMT-0400 (Eastern Daylight Time)","523927","Untrustworthy,Trustworthy","image-keyboard-response","3","7802","0.0-3.0-0.0","","1100","","","32","","","","","","","","","","",""
"","","","","6162341a644c08d5cca4b7bb","bdp_trlrn","Sun Mar 12 2023 17:19:10 GMT-0400 (Eastern Daylight Time)","523927","Untrustworthy,Trustworthy","instructions","4","25831","0.0-4.0","[{""page_index"":0,""viewing_time"":14998},{""page_index"":1,""viewing_time"":2778}]","17777","","","","","","","","","","","","","",""
"","","","","6162341a644c08d5cca4b7bb","bdp_trlrn","Sun Mar 12 2023 17:19:10 GMT-0400 (Eastern Daylight Time)","523927","Untrustworthy,Trustworthy","instructions","5","26751","0.0-5.0","[{""page_index"":0,""viewing_time"":920}]","920","","","","","","","","","","","","","",""
"","","","rating","6162341a644c08d5cca4b7bb","bdp_trlrn","Sun Mar 12 2023 17:19:10 GMT-0400 (Eastern Daylight Time)","523927","Untrustworthy,Trustworthy","image-keyboard-response","6","31082","0.0-6.0-1.0","","4228","","trustrating_stim/white_00659_941121_fa_edt.bmp","4","","","","","","","","","","",""
"","","","ratingFB","6162341a644c08d5cca4b7bb","bdp_trlrn","Sun Mar 12 2023 17:19:10 GMT-0400 (Eastern Daylight Time)","523927","Untrustworthy,Trustworthy","image-keyboard-response","7","31284","0.0-6.0-2.0","","null","","trustrating_stim/white_00659_941121_fa_edt.bmp","null","","","","","","","","","","",""
"","","","rating","6162341a644c08d5cca4b7bb","bdp_trlrn","Sun Mar 12 2023 17:19:10 GMT-0400 (Eastern Daylight Time)","523927","Untrustworthy,Trustworthy","image-keyboard-response","8","33192","0.0-6.0-1.1","","1805","","trustrating_stim/white_00519_940519_fb_edt.bmp","3","","","","","","","","","","",""
"","","","ratingFB","6162341a644c08d5cca4b7bb","bdp_trlrn","Sun Mar 12 2023 17:19:10 GMT-0400 (Eastern Daylight Time)","523927","Untrustworthy,Trustworthy","image-keyboard-response","9","33394","0.0-6.0-2.1","","null","","trustrating_stim/white_00519_940519_fb_edt.bmp","null","","","","","","","","","","",""
"","","","rating","6162341a644c08d5cca4b7bb","bdp_trlrn","Sun Mar 12 2023 17:19:10 GMT-0400 (Eastern Daylight Time)","523927","Untrustworthy,Trustworthy","image-keyboard-response","10","36362","0.0-6.0-1.2","","2866","","trustrating_stim/white_00602_940928_fb_edt.bmp","6","","","","","","","","","","",""
"","","","ratingFB","6162341a644c08d5cca4b7bb","bdp_trlrn","Sun Mar 12 2023 17:19:10 GMT-0400 (Eastern Daylight Time)","523927","Untrustworthy,Trustworthy","image-keyboard-response","11","36564","0.0-6.0-2.2","","null","","trustrating_stim/white_00602_940928_fb_edt.bmp","null","","","","","","","","","","",""
"","","","rating","6162341a644c08d5cca4b7bb","bdp_trlrn","Sun Mar 12 2023 17:19:10 GMT-0400 (Eastern Daylight Time)","523927","Untrustworthy,Trustworthy","image-keyboard-response","12","37877","0.0-6.0-1.3","","1209","","trustrating_stim/white_mw056.bmp","4","","","","","","","","","","",""
"","","","ratingFB","6162341a644c08d5cca4b7bb","bdp_trlrn","Sun Mar 12 2023 17:19:10 GMT-0400 (Eastern Daylight Time)","523927","Untrustworthy,Trustworthy","image-keyboard-response","13","38078","0.0-6.0-2.3","","null","","trustrating_stim/white_mw056.bmp","null","","","","","","","","","","",""
"","","","rating","6162341a644c08d5cca4b7bb","bdp_trlrn","Sun Mar 12 2023 17:19:10 GMT-0400 (Eastern Daylight Time)","523927","Untrustworthy,Trustworthy","image-keyboard-response","14","40287","0.0-6.0-1.4","","2107","","trustrating_stim/white_00109_931230_fa_edt.bmp","5","","","","","","","","","","",""
"","","","ratingFB","6162341a644c08d5cca4b7bb","bdp_trlrn","Sun Mar 12 2023 17:19:10 GMT-0400 (Eastern Daylight Time)","523927","Untrustworthy,Trustworthy","image-keyboard-response","15","40490","0.0-6.0-2.4","","null","","trustrating_stim/white_00109_931230_fa_edt.bmp","null","","","","","","","","","","",""
"","","","rating","6162341a644c08d5cca4b7bb","bdp_trlrn","Sun Mar 12 2023 17:19:10 GMT-0400 (Eastern Daylight Time)","523927","Untrustworthy,Trustworthy","image-keyboard-response","16","42101","0.0-6.0-1.5","","1509","","trustrating_stim/white_mw048.bmp","3","","","","","","","","","","",""
"","","","ratingFB","6162341a644c08d5cca4b7bb","bdp_trlrn","Sun Mar 12 2023 17:19:10 GMT-0400 (Eastern Daylight Time)","523927","Untrustworthy,Trustworthy","image-keyboard-response","17","42302","0.0-6.0-2.5","","null","","trustrating_stim/white_mw048.bmp","null","","","","","","","","","","",""
"","","","rating","6162341a644c08d5cca4b7bb","bdp_trlrn","Sun Mar 12 2023 17:19:10 GMT-0400 (Eastern Daylight Time)","523927","Untrustworthy,Trustworthy","image-keyboard-response","18","44509","0.0-6.0-1.6","","2104","","trustrating_stim/white_mw099.bmp","2","","","","","","","","","","",""
"","","","ratingFB","6162341a644c08d5cca4b7bb","bdp_trlrn","Sun Mar 12 2023 17:19:10 GMT-0400 (Eastern Daylight Time)","523927","Untrustworthy,Trustworthy","image-keyboard-response","19","44710","0.0-6.0-2.6","","null","","trustrating_stim/white_mw099.bmp","null","","","","","","","","","","",""
"","","","rating","6162341a644c08d5cca4b7bb","bdp_trlrn","Sun Mar 12 2023 17:19:10 GMT-0400 (Eastern Daylight Time)","523927","Untrustworthy,Trustworthy","image-keyboard-response","20","45820","0.0-6.0-1.7","","1007","","trustrating_stim/white_mw089.bmp","2","","","","","","","","","","",""
"","","","ratingFB","6162341a644c08d5cca4b7bb","bdp_trlrn","Sun Mar 12 2023 17:19:10 GMT-0400 (Eastern Daylight Time)","523927","Untrustworthy,Trustworthy","image-keyboard-response","21","46021","0.0-6.0-2.7","","null","","trustrating_stim/white_mw089.bmp","null","","","","","","","","","","",""
"","","","rating","6162341a644c08d5cca4b7bb","bdp_trlrn","Sun Mar 12 2023 17:19:10 GMT-0400 (Eastern Daylight Time)","523927","Untrustworthy,Trustworthy","image-keyboard-response","22","47129","0.0-6.0-1.8","","1006","","trustrating_stim/white_mw060.bmp","2","","","","","","","","","","",""
"","","","ratingFB","6162341a644c08d5cca4b7bb","bdp_trlrn","Sun Mar 12 2023 17:19:10 GMT-0400 (Eastern Daylight Time)","523927","Untrustworthy,Trustworthy","image-keyboard-response","23","47330","0.0-6.0-2.8","","null","","trustrating_stim/white_mw060.bmp","null","","","","","","","","","","",""
"","","","rating","6162341a644c08d5cca4b7bb","bdp_trlrn","Sun Mar 12 2023 17:19:10 GMT-0400 (Eastern Daylight Time)","523927","Untrustworthy,Trustworthy","image-keyboard-response","24","49016","0.0-6.0-1.9","","1582","","trustrating_stim/white_mw049.bmp","5","","","","","","","","","","",""
"","","","ratingFB","6162341a644c08d5cca4b7bb","bdp_trlrn","Sun Mar 12 2023 17:19:10 GMT-0400 (Eastern Daylight Time)","523927","Untrustworthy,Trustworthy","image-keyboard-response","25","49217","0.0-6.0-2.9","","null","","trustrating_stim/white_mw049.bmp","null","","","","","","","","","","",""
"","","","rating","6162341a644c08d5cca4b7bb","bdp_trlrn","Sun Mar 12 2023 17:19:10 GMT-0400 (Eastern Daylight Time)","523927","Untrustworthy,Trustworthy","image-keyboard-response","26","50829","0.0-6.0-1.10","","1510","","trustrating_stim/white_mw063.bmp","3","","","","","","","","","","",""
"","","","ratingFB","6162341a644c08d5cca4b7bb","bdp_trlrn","Sun Mar 12 2023 17:19:10 GMT-0400 (Eastern Daylight Time)","523927","Untrustworthy,Trustworthy","image-keyboard-response","27","51032","0.0-6.0-2.10","","null","","trustrating_stim/white_mw063.bmp","null","","","","","","","","","","",""
"","","","rating","6162341a644c08d5cca4b7bb","bdp_trlrn","Sun Mar 12 2023 17:19:10 GMT-0400 (Eastern Daylight Time)","523927","Untrustworthy,Trustworthy","image-keyboard-response","28","53124","0.0-6.0-1.11","","1991","","trustrating_stim/white_00299_940422_fa_edt.bmp","2","","","","","","","","","","",""
"","","","ratingFB","6162341a644c08d5cca4b7bb","bdp_trlrn","Sun Mar 12 2023 17:19:10 GMT-0400 (Eastern Daylight Time)","523927","Untrustworthy,Trustworthy","image-keyboard-response","29","53326","0.0-6.0-2.11","","null","","trustrating_stim/white_00299_940422_fa_edt.bmp","null","","","","","","","","","","",""
"","","","rating","6162341a644c08d5cca4b7bb","bdp_trlrn","Sun Mar 12 2023 17:19:10 GMT-0400 (Eastern Daylight Time)","523927","Untrustworthy,Trustworthy","image-keyboard-response","30","54640","0.0-6.0-1.12","","1211","","trustrating_stim/white_mw084.bmp","2","","","","","","","","","","",""
"","","","ratingFB","6162341a644c08d5cca4b7bb","bdp_trlrn","Sun Mar 12 2023 17:19:10 GMT-0400 (Eastern Daylight Time)","523927","Untrustworthy,Trustworthy","image-keyboard-response","31","54840","0.0-6.0-2.12","","null","","trustrating_stim/white_mw084.bmp","null","","","","","","","","","","",""
"","","","rating","6162341a644c08d5cca4b7bb","bdp_trlrn","Sun Mar 12 2023 17:19:10 GMT-0400 (Eastern Daylight Time)","523927","Untrustworthy,Trustworthy","image-keyboard-response","32","56229","0.0-6.0-1.13","","1286","","trustrating_stim/white_00129_931230_fb_edt.bmp","4","","","","","","","","","","",""
"","","","ratingFB","6162341a644c08d5cca4b7bb","bdp_trlrn","Sun Mar 12 2023 17:19:10 GMT-0400 (Eastern Daylight Time)","523927","Untrustworthy,Trustworthy","image-keyboard-response","33","56431","0.0-6.0-2.13","","null","","trustrating_stim/white_00129_931230_fb_edt.bmp","null","","","","","","","","","","",""
"","","","rating","6162341a644c08d5cca4b7bb","bdp_trlrn","Sun Mar 12 2023 17:19:10 GMT-0400 (Eastern Daylight Time)","523927","Untrustworthy,Trustworthy","image-keyboard-response","34","58091","0.0-6.0-1.14","","1559","","trustrating_stim/white_mw066.bmp","5","","","","","","","","","","",""
"","","","ratingFB","6162341a644c08d5cca4b7bb","bdp_trlrn","Sun Mar 12 2023 17:19:10 GMT-0400 (Eastern Daylight Time)","523927","Untrustworthy,Trustworthy","image-keyboard-response","35","58294","0.0-6.0-2.14","","null","","trustrating_stim/white_mw066.bmp","null","","","","","","","","","","",""
"","","","rating","6162341a644c08d5cca4b7bb","bdp_trlrn","Sun Mar 12 2023 17:19:10 GMT-0400 (Eastern Daylight Time)","523927","Untrustworthy,Trustworthy","image-keyboard-response","36","60517","0.0-6.0-1.15","","2121","","trustrating_stim/white_00785_941205_fb_edt.bmp","1","","","","","","","","","","",""
"","","","ratingFB","6162341a644c08d5cca4b7bb","bdp_trlrn","Sun Mar 12 2023 17:19:10 GMT-0400 (Eastern Daylight Time)","523927","Untrustworthy,Trustworthy","image-keyboard-response","37","60718","0.0-6.0-2.15","","null","","trustrating_stim/white_00785_941205_fb_edt.bmp","null","","","","","","","","","","",""
"","","","rating","6162341a644c08d5cca4b7bb","bdp_trlrn","Sun Mar 12 2023 17:19:10 GMT-0400 (Eastern Daylight Time)","523927","Untrustworthy,Trustworthy","image-keyboard-response","38","62315","0.0-6.0-1.16","","1494","","trustrating_stim/white_00577_940928_fa_edt.bmp","4","","","","","","","","","","",""
"","","","ratingFB","6162341a644c08d5cca4b7bb","bdp_trlrn","Sun Mar 12 2023 17:19:10 GMT-0400 (Eastern Daylight Time)","523927","Untrustworthy,Trustworthy","image-keyboard-response","39","62517","0.0-6.0-2.16","","null","","trustrating_stim/white_00577_940928_fa_edt.bmp","null","","","","","","","","","","",""
"","","","rating","6162341a644c08d5cca4b7bb","bdp_trlrn","Sun Mar 12 2023 17:19:10 GMT-0400 (Eastern Daylight Time)","523927","Untrustworthy,Trustworthy","image-keyboard-response","40","63923","0.0-6.0-1.17","","1305","","trustrating_stim/white_mw033.bmp","3","","","","","","","","","","",""
"","","","ratingFB","6162341a644c08d5cca4b7bb","bdp_trlrn","Sun Mar 12 2023 17:19:10 GMT-0400 (Eastern Daylight Time)","523927","Untrustworthy,Trustworthy","image-keyboard-response","41","64124","0.0-6.0-2.17","","null","","trustrating_stim/white_mw033.bmp","null","","","","","","","","","","",""
"","","","rating","6162341a644c08d5cca4b7bb","bdp_trlrn","Sun Mar 12 2023 17:19:10 GMT-0400 (Eastern Daylight Time)","523927","Untrustworthy,Trustworthy","image-keyboard-response","42","65256","0.0-6.0-1.18","","1028","","trustrating_stim/white_mw097.bmp","2","","","","","","","","","","",""
"","","","ratingFB","6162341a644c08d5cca4b7bb","bdp_trlrn","Sun Mar 12 2023 17:19:10 GMT-0400 (Eastern Daylight Time)","523927","Untrustworthy,Trustworthy","image-keyboard-response","43","65458","0.0-6.0-2.18","","null","","trustrating_stim/white_mw097.bmp","null","","","","","","","","","","",""
"","","","rating","6162341a644c08d5cca4b7bb","bdp_trlrn","Sun Mar 12 2023 17:19:10 GMT-0400 (Eastern Daylight Time)","523927","Untrustworthy,Trustworthy","image-keyboard-response","44","66702","0.0-6.0-1.19","","1143","","trustrating_stim/white_00757_941201_fa_edt.bmp","1","","","","","","","","","","",""
"","","","ratingFB","6162341a644c08d5cca4b7bb","bdp_trlrn","Sun Mar 12 2023 17:19:10 GMT-0400 (Eastern Daylight Time)","523927","Untrustworthy,Trustworthy","image-keyboard-response","45","66903","0.0-6.0-2.19","","null","","trustrating_stim/white_00757_941201_fa_edt.bmp","null","","","","","","","","","","",""
"","","","rating","6162341a644c08d5cca4b7bb","bdp_trlrn","Sun Mar 12 2023 17:19:10 GMT-0400 (Eastern Daylight Time)","523927","Untrustworthy,Trustworthy","image-keyboard-response","46","68132","0.0-6.0-1.20","","1124","","trustrating_stim/white_00223_940128_fb_edt.bmp","3","","","","","","","","","","",""
"","","","ratingFB","6162341a644c08d5cca4b7bb","bdp_trlrn","Sun Mar 12 2023 17:19:10 GMT-0400 (Eastern Daylight Time)","523927","Untrustworthy,Trustworthy","image-keyboard-response","47","68335","0.0-6.0-2.20","","null","","trustrating_stim/white_00223_940128_fb_edt.bmp","null","","","","","","","","","","",""
"","","","rating","6162341a644c08d5cca4b7bb","bdp_trlrn","Sun Mar 12 2023 17:19:10 GMT-0400 (Eastern Daylight Time)","523927","Untrustworthy,Trustworthy","image-keyboard-response","48","69969","0.0-6.0-1.21","","1530","","trustrating_stim/white_00807_941205_fb_edt.bmp","4","","","","","","","","","","",""
"","","","ratingFB","6162341a644c08d5cca4b7bb","bdp_trlrn","Sun Mar 12 2023 17:19:10 GMT-0400 (Eastern Daylight Time)","523927","Untrustworthy,Trustworthy","image-keyboard-response","49","70173","0.0-6.0-2.21","","null","","trustrating_stim/white_00807_941205_fb_edt.bmp","null","","","","","","","","","","",""
"","","","rating","6162341a644c08d5cca4b7bb","bdp_trlrn","Sun Mar 12 2023 17:19:10 GMT-0400 (Eastern Daylight Time)","523927","Untrustworthy,Trustworthy","image-keyboard-response","50","71327","0.0-6.0-1.22","","1053","","trustrating_stim/white_mw046.bmp","5","","","","","","","","","","",""
"","","","ratingFB","6162341a644c08d5cca4b7bb","bdp_trlrn","Sun Mar 12 2023 17:19:10 GMT-0400 (Eastern Daylight Time)","523927","Untrustworthy,Trustworthy","image-keyboard-response","51","71532","0.0-6.0-2.22","","null","","trustrating_stim/white_mw046.bmp","null","","","","","","","","","","",""
"","","","rating","6162341a644c08d5cca4b7bb","bdp_trlrn","Sun Mar 12 2023 17:19:10 GMT-0400 (Eastern Daylight Time)","523927","Untrustworthy,Trustworthy","image-keyboard-response","52","72637","0.0-6.0-1.23","","1001","","trustrating_stim/white_00340_940422_fa_edt.bmp","4","","","","","","","","","","",""
"","","","ratingFB","6162341a644c08d5cca4b7bb","bdp_trlrn","Sun Mar 12 2023 17:19:10 GMT-0400 (Eastern Daylight Time)","523927","Untrustworthy,Trustworthy","image-keyboard-response","53","72838","0.0-6.0-2.23","","null","","trustrating_stim/white_00340_940422_fa_edt.bmp","null","","","","","","","","","","",""
"","","","rating","6162341a644c08d5cca4b7bb","bdp_trlrn","Sun Mar 12 2023 17:19:10 GMT-0400 (Eastern Daylight Time)","523927","Untrustworthy,Trustworthy","image-keyboard-response","54","73855","0.0-6.0-1.24","","911","","trustrating_stim/white_00761_941201_fb_edt.bmp","3","","","","","","","","","","",""
"","","","ratingFB","6162341a644c08d5cca4b7bb","bdp_trlrn","Sun Mar 12 2023 17:19:10 GMT-0400 (Eastern Daylight Time)","523927","Untrustworthy,Trustworthy","image-keyboard-response","55","74057","0.0-6.0-2.24","","null","","trustrating_stim/white_00761_941201_fb_edt.bmp","null","","","","","","","","","","",""
"","","","rating","6162341a644c08d5cca4b7bb","bdp_trlrn","Sun Mar 12 2023 17:19:10 GMT-0400 (Eastern Daylight Time)","523927","Untrustworthy,Trustworthy","image-keyboard-response","56","75373","0.0-6.0-1.25","","1210","","trustrating_stim/white_mw071.bmp","3","","","","","","","","","","",""
"","","","ratingFB","6162341a644c08d5cca4b7bb","bdp_trlrn","Sun Mar 12 2023 17:19:10 GMT-0400 (Eastern Daylight Time)","523927","Untrustworthy,Trustworthy","image-keyboard-response","57","75578","0.0-6.0-2.25","","null","","trustrating_stim/white_mw071.bmp","null","","","","","","","","","","",""
"","","","rating","6162341a644c08d5cca4b7bb","bdp_trlrn","Sun Mar 12 2023 17:19:10 GMT-0400 (Eastern Daylight Time)","523927","Untrustworthy,Trustworthy","image-keyboard-response","58","76476","0.0-6.0-1.26","","795","","trustrating_stim/white_00898_960530_fa_edt.bmp","4","","","","","","","","","","",""
"","","","ratingFB","6162341a644c08d5cca4b7bb","bdp_trlrn","Sun Mar 12 2023 17:19:10 GMT-0400 (Eastern Daylight Time)","523927","Untrustworthy,Trustworthy","image-keyboard-response","59","76678","0.0-6.0-2.26","","null","","trustrating_stim/white_00898_960530_fa_edt.bmp","null","","","","","","","","","","",""
"","","","rating","6162341a644c08d5cca4b7bb","bdp_trlrn","Sun Mar 12 2023 17:19:10 GMT-0400 (Eastern Daylight Time)","523927","Untrustworthy,Trustworthy","image-keyboard-response","60","77399","0.0-6.0-1.27","","619","","trustrating_stim/white_00120_931230_fa_edt.bmp","3","","","","","","","","","","",""
"","","","ratingFB","6162341a644c08d5cca4b7bb","bdp_trlrn","Sun Mar 12 2023 17:19:10 GMT-0400 (Eastern Daylight Time)","523927","Untrustworthy,Trustworthy","image-keyboard-response","61","77601","0.0-6.0-2.27","","null","","trustrating_stim/white_00120_931230_fa_edt.bmp","null","","","","","","","","","","",""
"","","","rating","6162341a644c08d5cca4b7bb","bdp_trlrn","Sun Mar 12 2023 17:19:10 GMT-0400 (Eastern Daylight Time)","523927","Untrustworthy,Trustworthy","image-keyboard-response","62","78687","0.0-6.0-1.28","","981","","trustrating_stim/white_mw035.bmp","3","","","","","","","","","","",""
"","","","ratingFB","6162341a644c08d5cca4b7bb","bdp_trlrn","Sun Mar 12 2023 17:19:10 GMT-0400 (Eastern Daylight Time)","523927","Untrustworthy,Trustworthy","image-keyboard-response","63","78889","0.0-6.0-2.28","","null","","trustrating_stim/white_mw035.bmp","null","","","","","","","","","","",""
"","","","rating","6162341a644c08d5cca4b7bb","bdp_trlrn","Sun Mar 12 2023 17:19:10 GMT-0400 (Eastern Daylight Time)","523927","Untrustworthy,Trustworthy","image-keyboard-response","64","80250","0.0-6.0-1.29","","1255","","trustrating_stim/white_mw053.bmp","4","","","","","","","","","","",""
"","","","ratingFB","6162341a644c08d5cca4b7bb","bdp_trlrn","Sun Mar 12 2023 17:19:10 GMT-0400 (Eastern Daylight Time)","523927","Untrustworthy,Trustworthy","image-keyboard-response","65","80452","0.0-6.0-2.29","","null","","trustrating_stim/white_mw053.bmp","null","","","","","","","","","","",""
"","","","rating","6162341a644c08d5cca4b7bb","bdp_trlrn","Sun Mar 12 2023 17:19:10 GMT-0400 (Eastern Daylight Time)","523927","Untrustworthy,Trustworthy","image-keyboard-response","66","81629","0.0-6.0-1.30","","1072","","trustrating_stim/white_00761_941201_fb_edt.bmp","2","","","","","","","","","","",""
"","","","ratingFB","6162341a644c08d5cca4b7bb","bdp_trlrn","Sun Mar 12 2023 17:19:10 GMT-0400 (Eastern Daylight Time)","523927","Untrustworthy,Trustworthy","image-keyboard-response","67","81830","0.0-6.0-2.30","","null","","trustrating_stim/white_00761_941201_fb_edt.bmp","null","","","","","","","","","","",""
"","","","rating","6162341a644c08d5cca4b7bb","bdp_trlrn","Sun Mar 12 2023 17:19:10 GMT-0400 (Eastern Daylight Time)","523927","Untrustworthy,Trustworthy","image-keyboard-response","68","82895","0.0-6.0-1.31","","961","","trustrating_stim/white_00807_941205_fb_edt.bmp","3","","","","","","","","","","",""
"","","","ratingFB","6162341a644c08d5cca4b7bb","bdp_trlrn","Sun Mar 12 2023 17:19:10 GMT-0400 (Eastern Daylight Time)","523927","Untrustworthy,Trustworthy","image-keyboard-response","69","83097","0.0-6.0-2.31","","null","","trustrating_stim/white_00807_941205_fb_edt.bmp","null","","","","","","","","","","",""
"","","","rating","6162341a644c08d5cca4b7bb","bdp_trlrn","Sun Mar 12 2023 17:19:10 GMT-0400 (Eastern Daylight Time)","523927","Untrustworthy,Trustworthy","image-keyboard-response","70","84622","0.0-6.0-1.32","","1418","","trustrating_stim/white_00129_931230_fb_edt.bmp","5","","","","","","","","","","",""
"","","","ratingFB","6162341a644c08d5cca4b7bb","bdp_trlrn","Sun Mar 12 2023 17:19:10 GMT-0400 (Eastern Daylight Time)","523927","Untrustworthy,Trustworthy","image-keyboard-response","71","84824","0.0-6.0-2.32","","null","","trustrating_stim/white_00129_931230_fb_edt.bmp","null","","","","","","","","","","",""
"","","","rating","6162341a644c08d5cca4b7bb","bdp_trlrn","Sun Mar 12 2023 17:19:10 GMT-0400 (Eastern Daylight Time)","523927","Untrustworthy,Trustworthy","image-keyboard-response","72","86227","0.0-6.0-1.33","","1301","","trustrating_stim/white_00299_940422_fa_edt.bmp","4","","","","","","","","","","",""
"","","","ratingFB","6162341a644c08d5cca4b7bb","bdp_trlrn","Sun Mar 12 2023 17:19:10 GMT-0400 (Eastern Daylight Time)","523927","Untrustworthy,Trustworthy","image-keyboard-response","73","86429","0.0-6.0-2.33","","null","","trustrating_stim/white_00299_940422_fa_edt.bmp","null","","","","","","","","","","",""
"","","","rating","6162341a644c08d5cca4b7bb","bdp_trlrn","Sun Mar 12 2023 17:19:10 GMT-0400 (Eastern Daylight Time)","523927","Untrustworthy,Trustworthy","image-keyboard-response","74","87563","0.0-6.0-1.34","","1031","","trustrating_stim/white_mw066.bmp","3","","","","","","","","","","",""
"","","","ratingFB","6162341a644c08d5cca4b7bb","bdp_trlrn","Sun Mar 12 2023 17:19:10 GMT-0400 (Eastern Daylight Time)","523927","Untrustworthy,Trustworthy","image-keyboard-response","75","87766","0.0-6.0-2.34","","null","","trustrating_stim/white_mw066.bmp","null","","","","","","","","","","",""
"","","","rating","6162341a644c08d5cca4b7bb","bdp_trlrn","Sun Mar 12 2023 17:19:10 GMT-0400 (Eastern Daylight Time)","523927","Untrustworthy,Trustworthy","image-keyboard-response","76","88942","0.0-6.0-1.35","","1072","","trustrating_stim/white_mw035.bmp","3","","","","","","","","","","",""
"","","","ratingFB","6162341a644c08d5cca4b7bb","bdp_trlrn","Sun Mar 12 2023 17:19:10 GMT-0400 (Eastern Daylight Time)","523927","Untrustworthy,Trustworthy","image-keyboard-response","77","89144","0.0-6.0-2.35","","null","","trustrating_stim/white_mw035.bmp","null","","","","","","","","","","",""
"","","","rating","6162341a644c08d5cca4b7bb","bdp_trlrn","Sun Mar 12 2023 17:19:10 GMT-0400 (Eastern Daylight Time)","523927","Untrustworthy,Trustworthy","image-keyboard-response","78","92865","0.0-6.0-1.36","","3616","","trustrating_stim/white_mw089.bmp","3","","","","","","","","","","",""
"","","","ratingFB","6162341a644c08d5cca4b7bb","bdp_trlrn","Sun Mar 12 2023 17:19:10 GMT-0400 (Eastern Daylight Time)","523927","Untrustworthy,Trustworthy","image-keyboard-response","79","93071","0.0-6.0-2.36","","null","","trustrating_stim/white_mw089.bmp","null","","","","","","","","","","",""
"","","","rating","6162341a644c08d5cca4b7bb","bdp_trlrn","Sun Mar 12 2023 17:19:10 GMT-0400 (Eastern Daylight Time)","523927","Untrustworthy,Trustworthy","image-keyboard-response","80","94426","0.0-6.0-1.37","","1250","","trustrating_stim/white_mw033.bmp","3","","","","","","","","","","",""
"","","","ratingFB","6162341a644c08d5cca4b7bb","bdp_trlrn","Sun Mar 12 2023 17:19:10 GMT-0400 (Eastern Daylight Time)","523927","Untrustworthy,Trustworthy","image-keyboard-response","81","94630","0.0-6.0-2.37","","null","","trustrating_stim/white_mw033.bmp","null","","","","","","","","","","",""
"","","","rating","6162341a644c08d5cca4b7bb","bdp_trlrn","Sun Mar 12 2023 17:19:10 GMT-0400 (Eastern Daylight Time)","523927","Untrustworthy,Trustworthy","image-keyboard-response","82","95395","0.0-6.0-1.38","","660","","trustrating_stim/white_mw046.bmp","4","","","","","","","","","","",""
"","","","ratingFB","6162341a644c08d5cca4b7bb","bdp_trlrn","Sun Mar 12 2023 17:19:10 GMT-0400 (Eastern Daylight Time)","523927","Untrustworthy,Trustworthy","image-keyboard-response","83","95597","0.0-6.0-2.38","","null","","trustrating_stim/white_mw046.bmp","null","","","","","","","","","","",""
"","","","rating","6162341a644c08d5cca4b7bb","bdp_trlrn","Sun Mar 12 2023 17:19:10 GMT-0400 (Eastern Daylight Time)","523927","Untrustworthy,Trustworthy","image-keyboard-response","84","96981","0.0-6.0-1.39","","1280","","trustrating_stim/white_00602_940928_fb_edt.bmp","5","","","","","","","","","","",""
"","","","ratingFB","6162341a644c08d5cca4b7bb","bdp_trlrn","Sun Mar 12 2023 17:19:10 GMT-0400 (Eastern Daylight Time)","523927","Untrustworthy,Trustworthy","image-keyboard-response","85","97183","0.0-6.0-2.39","","null","","trustrating_stim/white_00602_940928_fb_edt.bmp","null","","","","","","","","","","",""
"","","","rating","6162341a644c08d5cca4b7bb","bdp_trlrn","Sun Mar 12 2023 17:19:10 GMT-0400 (Eastern Daylight Time)","523927","Untrustworthy,Trustworthy","image-keyboard-response","86","98289","0.0-6.0-1.40","","1005","","trustrating_stim/white_00757_941201_fa_edt.bmp","2","","","","","","","","","","",""
"","","","ratingFB","6162341a644c08d5cca4b7bb","bdp_trlrn","Sun Mar 12 2023 17:19:10 GMT-0400 (Eastern Daylight Time)","523927","Untrustworthy,Trustworthy","image-keyboard-response","87","98491","0.0-6.0-2.40","","null","","trustrating_stim/white_00757_941201_fa_edt.bmp","null","","","","","","","","","","",""
"","","","rating","6162341a644c08d5cca4b7bb","bdp_trlrn","Sun Mar 12 2023 17:19:10 GMT-0400 (Eastern Daylight Time)","523927","Untrustworthy,Trustworthy","image-keyboard-response","88","99991","0.0-6.0-1.41","","1398","","trustrating_stim/white_00785_941205_fb_edt.bmp","3","","","","","","","","","","",""
"","","","ratingFB","6162341a644c08d5cca4b7bb","bdp_trlrn","Sun Mar 12 2023 17:19:10 GMT-0400 (Eastern Daylight Time)","523927","Untrustworthy,Trustworthy","image-keyboard-response","89","100194","0.0-6.0-2.41","","null","","trustrating_stim/white_00785_941205_fb_edt.bmp","null","","","","","","","","","","",""
"","","","rating","6162341a644c08d5cca4b7bb","bdp_trlrn","Sun Mar 12 2023 17:19:10 GMT-0400 (Eastern Daylight Time)","523927","Untrustworthy,Trustworthy","image-keyboard-response","90","101598","0.0-6.0-1.42","","1297","","trustrating_stim/white_00223_940128_fb_edt.bmp","2","","","","","","","","","","",""
"","","","ratingFB","6162341a644c08d5cca4b7bb","bdp_trlrn","Sun Mar 12 2023 17:19:10 GMT-0400 (Eastern Daylight Time)","523927","Untrustworthy,Trustworthy","image-keyboard-response","91","101799","0.0-6.0-2.42","","null","","trustrating_stim/white_00223_940128_fb_edt.bmp","null","","","","","","","","","","",""
"","","","rating","6162341a644c08d5cca4b7bb","bdp_trlrn","Sun Mar 12 2023 17:19:10 GMT-0400 (Eastern Daylight Time)","523927","Untrustworthy,Trustworthy","image-keyboard-response","92","102819","0.0-6.0-1.43","","916","","trustrating_stim/white_mw056.bmp","4","","","","","","","","","","",""
"","","","ratingFB","6162341a644c08d5cca4b7bb","bdp_trlrn","Sun Mar 12 2023 17:19:10 GMT-0400 (Eastern Daylight Time)","523927","Untrustworthy,Trustworthy","image-keyboard-response","93","103020","0.0-6.0-2.43","","null","","trustrating_stim/white_mw056.bmp","null","","","","","","","","","","",""
"","","","rating","6162341a644c08d5cca4b7bb","bdp_trlrn","Sun Mar 12 2023 17:19:10 GMT-0400 (Eastern Daylight Time)","523927","Untrustworthy,Trustworthy","image-keyboard-response","94","104266","0.0-6.0-1.44","","1143","","trustrating_stim/white_mw084.bmp","3","","","","","","","","","","",""
"","","","ratingFB","6162341a644c08d5cca4b7bb","bdp_trlrn","Sun Mar 12 2023 17:19:10 GMT-0400 (Eastern Daylight Time)","523927","Untrustworthy,Trustworthy","image-keyboard-response","95","104467","0.0-6.0-2.44","","null","","trustrating_stim/white_mw084.bmp","null","","","","","","","","","","",""
"","","","rating","6162341a644c08d5cca4b7bb","bdp_trlrn","Sun Mar 12 2023 17:19:10 GMT-0400 (Eastern Daylight Time)","523927","Untrustworthy,Trustworthy","image-keyboard-response","96","105530","0.0-6.0-1.45","","959","","trustrating_stim/white_00120_931230_fa_edt.bmp","3","","","","","","","","","","",""
"","","","ratingFB","6162341a644c08d5cca4b7bb","bdp_trlrn","Sun Mar 12 2023 17:19:10 GMT-0400 (Eastern Daylight Time)","523927","Untrustworthy,Trustworthy","image-keyboard-response","97","105731","0.0-6.0-2.45","","null","","trustrating_stim/white_00120_931230_fa_edt.bmp","null","","","","","","","","","","",""
"","","","rating","6162341a644c08d5cca4b7bb","bdp_trlrn","Sun Mar 12 2023 17:19:10 GMT-0400 (Eastern Daylight Time)","523927","Untrustworthy,Trustworthy","image-keyboard-response","98","106637","0.0-6.0-1.46","","802","","trustrating_stim/white_00577_940928_fa_edt.bmp","4","","","","","","","","","","",""
"","","","ratingFB","6162341a644c08d5cca4b7bb","bdp_trlrn","Sun Mar 12 2023 17:19:10 GMT-0400 (Eastern Daylight Time)","523927","Untrustworthy,Trustworthy","image-keyboard-response","99","106838","0.0-6.0-2.46","","null","","trustrating_stim/white_00577_940928_fa_edt.bmp","null","","","","","","","","","","",""
"","","","rating","6162341a644c08d5cca4b7bb","bdp_trlrn","Sun Mar 12 2023 17:19:10 GMT-0400 (Eastern Daylight Time)","523927","Untrustworthy,Trustworthy","image-keyboard-response","100","107994","0.0-6.0-1.47","","1052","","trustrating_stim/white_mw053.bmp","4","","","","","","","","","","",""
"","","","ratingFB","6162341a644c08d5cca4b7bb","bdp_trlrn","Sun Mar 12 2023 17:19:10 GMT-0400 (Eastern Daylight Time)","523927","Untrustworthy,Trustworthy","image-keyboard-response","101","108197","0.0-6.0-2.47","","null","","trustrating_stim/white_mw053.bmp","null","","","","","","","","","","",""
"","","","rating","6162341a644c08d5cca4b7bb","bdp_trlrn","Sun Mar 12 2023 17:19:10 GMT-0400 (Eastern Daylight Time)","523927","Untrustworthy,Trustworthy","image-keyboard-response","102","109075","0.0-6.0-1.48","","774","","trustrating_stim/white_mw071.bmp","3","","","","","","","","","","",""
"","","","ratingFB","6162341a644c08d5cca4b7bb","bdp_trlrn","Sun Mar 12 2023 17:19:10 GMT-0400 (Eastern Daylight Time)","523927","Untrustworthy,Trustworthy","image-keyboard-response","103","109278","0.0-6.0-2.48","","null","","trustrating_stim/white_mw071.bmp","null","","","","","","","","","","",""
"","","","rating","6162341a644c08d5cca4b7bb","bdp_trlrn","Sun Mar 12 2023 17:19:10 GMT-0400 (Eastern Daylight Time)","523927","Untrustworthy,Trustworthy","image-keyboard-response","104","110385","0.0-6.0-1.49","","1003","","trustrating_stim/white_mw060.bmp","3","","","","","","","","","","",""
"","","","ratingFB","6162341a644c08d5cca4b7bb","bdp_trlrn","Sun Mar 12 2023 17:19:10 GMT-0400 (Eastern Daylight Time)","523927","Untrustworthy,Trustworthy","image-keyboard-response","105","110588","0.0-6.0-2.49","","null","","trustrating_stim/white_mw060.bmp","null","","","","","","","","","","",""
"","","","rating","6162341a644c08d5cca4b7bb","bdp_trlrn","Sun Mar 12 2023 17:19:10 GMT-0400 (Eastern Daylight Time)","523927","Untrustworthy,Trustworthy","image-keyboard-response","106","112908","0.0-6.0-1.50","","2217","","trustrating_stim/white_00340_940422_fa_edt.bmp","1","","","","","","","","","","",""
"","","","ratingFB","6162341a644c08d5cca4b7bb","bdp_trlrn","Sun Mar 12 2023 17:19:10 GMT-0400 (Eastern Daylight Time)","523927","Untrustworthy,Trustworthy","image-keyboard-response","107","113110","0.0-6.0-2.50","","null","","trustrating_stim/white_00340_940422_fa_edt.bmp","null","","","","","","","","","","",""
"","","","rating","6162341a644c08d5cca4b7bb","bdp_trlrn","Sun Mar 12 2023 17:19:10 GMT-0400 (Eastern Daylight Time)","523927","Untrustworthy,Trustworthy","image-keyboard-response","108","115295","0.0-6.0-1.51","","2080","","trustrating_stim/white_00109_931230_fa_edt.bmp","4","","","","","","","","","","",""
"","","","ratingFB","6162341a644c08d5cca4b7bb","bdp_trlrn","Sun Mar 12 2023 17:19:10 GMT-0400 (Eastern Daylight Time)","523927","Untrustworthy,Trustworthy","image-keyboard-response","109","115496","0.0-6.0-2.51","","null","","trustrating_stim/white_00109_931230_fa_edt.bmp","null","","","","","","","","","","",""
"","","","rating","6162341a644c08d5cca4b7bb","bdp_trlrn","Sun Mar 12 2023 17:19:10 GMT-0400 (Eastern Daylight Time)","523927","Untrustworthy,Trustworthy","image-keyboard-response","110","116766","0.0-6.0-1.52","","1165","","trustrating_stim/white_mw048.bmp","2","","","","","","","","","","",""
"","","","ratingFB","6162341a644c08d5cca4b7bb","bdp_trlrn","Sun Mar 12 2023 17:19:10 GMT-0400 (Eastern Daylight Time)","523927","Untrustworthy,Trustworthy","image-keyboard-response","111","116967","0.0-6.0-2.52","","null","","trustrating_stim/white_mw048.bmp","null","","","","","","","","","","",""
"","","","rating","6162341a644c08d5cca4b7bb","bdp_trlrn","Sun Mar 12 2023 17:19:10 GMT-0400 (Eastern Daylight Time)","523927","Untrustworthy,Trustworthy","image-keyboard-response","112","117985","0.0-6.0-1.53","","916","","trustrating_stim/white_mw099.bmp","3","","","","","","","","","","",""
"","","","ratingFB","6162341a644c08d5cca4b7bb","bdp_trlrn","Sun Mar 12 2023 17:19:10 GMT-0400 (Eastern Daylight Time)","523927","Untrustworthy,Trustworthy","image-keyboard-response","113","118186","0.0-6.0-2.53","","null","","trustrating_stim/white_mw099.bmp","null","","","","","","","","","","",""
"","","","rating","6162341a644c08d5cca4b7bb","bdp_trlrn","Sun Mar 12 2023 17:19:10 GMT-0400 (Eastern Daylight Time)","523927","Untrustworthy,Trustworthy","image-keyboard-response","114","119550","0.0-6.0-1.54","","1259","","trustrating_stim/white_00659_941121_fa_edt.bmp","3","","","","","","","","","","",""
"","","","ratingFB","6162341a644c08d5cca4b7bb","bdp_trlrn","Sun Mar 12 2023 17:19:10 GMT-0400 (Eastern Daylight Time)","523927","Untrustworthy,Trustworthy","image-keyboard-response","115","119752","0.0-6.0-2.54","","null","","trustrating_stim/white_00659_941121_fa_edt.bmp","null","","","","","","","","","","",""
"","","","rating","6162341a644c08d5cca4b7bb","bdp_trlrn","Sun Mar 12 2023 17:19:10 GMT-0400 (Eastern Daylight Time)","523927","Untrustworthy,Trustworthy","image-keyboard-response","116","120838","0.0-6.0-1.55","","980","","trustrating_stim/white_00519_940519_fb_edt.bmp","2","","","","","","","","","","",""
"","","","ratingFB","6162341a644c08d5cca4b7bb","bdp_trlrn","Sun Mar 12 2023 17:19:10 GMT-0400 (Eastern Daylight Time)","523927","Untrustworthy,Trustworthy","image-keyboard-response","117","121041","0.0-6.0-2.55","","null","","trustrating_stim/white_00519_940519_fb_edt.bmp","null","","","","","","","","","","",""
"","","","rating","6162341a644c08d5cca4b7bb","bdp_trlrn","Sun Mar 12 2023 17:19:10 GMT-0400 (Eastern Daylight Time)","523927","Untrustworthy,Trustworthy","image-keyboard-response","118","121988","0.0-6.0-1.56","","847","","trustrating_stim/white_00898_960530_fa_edt.bmp","2","","","","","","","","","","",""
"","","","ratingFB","6162341a644c08d5cca4b7bb","bdp_trlrn","Sun Mar 12 2023 17:19:10 GMT-0400 (Eastern Daylight Time)","523927","Untrustworthy,Trustworthy","image-keyboard-response","119","122190","0.0-6.0-2.56","","null","","trustrating_stim/white_00898_960530_fa_edt.bmp","null","","","","","","","","","","",""
"","","","rating","6162341a644c08d5cca4b7bb","bdp_trlrn","Sun Mar 12 2023 17:19:10 GMT-0400 (Eastern Daylight Time)","523927","Untrustworthy,Trustworthy","image-keyboard-response","120","123094","0.0-6.0-1.57","","801","","trustrating_stim/white_mw063.bmp","2","","","","","","","","","","",""
"","","","ratingFB","6162341a644c08d5cca4b7bb","bdp_trlrn","Sun Mar 12 2023 17:19:10 GMT-0400 (Eastern Daylight Time)","523927","Untrustworthy,Trustworthy","image-keyboard-response","121","123296","0.0-6.0-2.57","","null","","trustrating_stim/white_mw063.bmp","null","","","","","","","","","","",""
"","","","rating","6162341a644c08d5cca4b7bb","bdp_trlrn","Sun Mar 12 2023 17:19:10 GMT-0400 (Eastern Daylight Time)","523927","Untrustworthy,Trustworthy","image-keyboard-response","122","124589","0.0-6.0-1.58","","1189","","trustrating_stim/white_mw049.bmp","4","","","","","","","","","","",""
"","","","ratingFB","6162341a644c08d5cca4b7bb","bdp_trlrn","Sun Mar 12 2023 17:19:10 GMT-0400 (Eastern Daylight Time)","523927","Untrustworthy,Trustworthy","image-keyboard-response","123","124790","0.0-6.0-2.58","","null","","trustrating_stim/white_mw049.bmp","null","","","","","","","","","","",""
"","","","rating","6162341a644c08d5cca4b7bb","bdp_trlrn","Sun Mar 12 2023 17:19:10 GMT-0400 (Eastern Daylight Time)","523927","Untrustworthy,Trustworthy","image-keyboard-response","124","125488","0.0-6.0-1.59","","594","","trustrating_stim/white_mw097.bmp","3","","","","","","","","","","",""
"","","","ratingFB","6162341a644c08d5cca4b7bb","bdp_trlrn","Sun Mar 12 2023 17:19:10 GMT-0400 (Eastern Daylight Time)","523927","Untrustworthy,Trustworthy","image-keyboard-response","125","125689","0.0-6.0-2.59","","null","","trustrating_stim/white_mw097.bmp","null","","","","","","","","","","",""
"","","","","6162341a644c08d5cca4b7bb","bdp_trlrn","Sun Mar 12 2023 17:19:10 GMT-0400 (Eastern Daylight Time)","523927","Untrustworthy,Trustworthy","instructions","126","127148","0.0-7.0","[{""page_index"":0,""viewing_time"":1353}]","1354","","","","","","","","","","","","","",""
"","","","","6162341a644c08d5cca4b7bb","bdp_trlrn","Sun Mar 12 2023 17:19:10 GMT-0400 (Eastern Daylight Time)","523927","Untrustworthy,Trustworthy","instructions","127","178436","0.0-8.0","[{""page_index"":0,""viewing_time"":7685},{""page_index"":1,""viewing_time"":6596},{""page_index"":2,""viewing_time"":7583},{""page_index"":3,""viewing_time"":6732},{""page_index"":4,""viewing_time"":4330},{""page_index"":5,""viewing_time"":5751},{""page_index"":6,""viewing_time"":10602},{""page_index"":7,""viewing_time"":1906}]","51186","","","","","","","","","","","","","",""
"","","","","6162341a644c08d5cca4b7bb","bdp_trlrn","Sun Mar 12 2023 17:19:10 GMT-0400 (Eastern Daylight Time)","523927","Untrustworthy,Trustworthy","html-keyboard-response","128","187452","0.0-9.0","","9013","","<div class='header' style='text-align:left; position: absolute; top: 5%; left: 5%;'><small>Task 3 of 5</small></div><div class='instruxDiv'><p><strong>1) What is the minimum number of points you can choose to send to your partner?</strong></p><p>a) 0</p><p>b) 1</p><p>c) 5</p>","A","","","","","","","","","","",""
"","","","","6162341a644c08d5cca4b7bb","bdp_trlrn","Sun Mar 12 2023 17:19:10 GMT-0400 (Eastern Daylight Time)","523927","Untrustworthy,Trustworthy","html-keyboard-response","129","189456","0.0-10.0","","1902","","<div class='header' style='text-align:left; position: absolute; top: 5%; left: 5%;'><small>Task 3 of 5</small></div><div class='instruxDiv'><p><strong>1) What is the minimum number of points you can choose to send to your partner?</strong></p><p style='color:#FF0000'>a) 0</p><p>b) 1</p><p>c) 5</p><h3 style='color:#FF0000'>Incorrect!</h3><h3 class='center-content'>The correct response is b).</h3><h3 class='center-content'>The minimum number of points you can choose to send to your partner is 1 point.</h3><p><em>Press SPACEBAR to continue</em></p></div>"," ","","","","","","","","","","",""
"","","","","6162341a644c08d5cca4b7bb","bdp_trlrn","Sun Mar 12 2023 17:19:10 GMT-0400 (Eastern Daylight Time)","523927","Untrustworthy,Trustworthy","html-keyboard-response","130","193102","0.0-11.0","","3545","","<div class='header' style='text-align:left; position: absolute; top: 5%; left: 5%;'><small>Task 3 of 5</small></div><div class='instruxDiv'><p><strong>2) What is the maximum number of points you can choose to send to your partner?</strong></p><p>a) 8</p><p>b) 5</p><p>c) 3</p>","B","","","","","","","","","","",""
"","","","","6162341a644c08d5cca4b7bb","bdp_trlrn","Sun Mar 12 2023 17:19:10 GMT-0400 (Eastern Daylight Time)","523927","Untrustworthy,Trustworthy","html-keyboard-response","131","194391","0.0-12.0","","1186","","<div class='header' style='text-align:left; position: absolute; top: 5%; left: 5%;'><small>Task 3 of 5</small></div><div class='instruxDiv'><p><strong>2) What is the maximum number of points you can choose to send to your partner?</strong></p><p>a) 8</p><p style='color:#00FF00'>b) 5</p><p>c) 3</p><h3 style='color:#00FF00'>Correct!</h3><h3 class='center-content'>The correct response is b).</h3><h3 class='center-content'>The maximum number of points you can choose to send to your partner is 5 points.</h3><p><em>Press SPACEBAR to continue</em></p></div>"," ","","","","","","","","","","",""
"","","","","6162341a644c08d5cca4b7bb","bdp_trlrn","Sun Mar 12 2023 17:19:10 GMT-0400 (Eastern Daylight Time)","523927","Untrustworthy,Trustworthy","html-keyboard-response","132","200323","0.0-13.0","","5832","","<div class='header' style='text-align:left; position: absolute; top: 5%; left: 5%;'><small>Task 3 of 5</small></div><div class='instruxDiv'><p><strong>3) What happens to the amount of points you send to your partner?</strong></p><p>a) Nothing</p><p>b) It doubles</p><p>c) It quadruples</p>","C","","","","","","","","","","",""
"","","","","6162341a644c08d5cca4b7bb","bdp_trlrn","Sun Mar 12 2023 17:19:10 GMT-0400 (Eastern Daylight Time)","523927","Untrustworthy,Trustworthy","html-keyboard-response","133","201338","0.0-14.0","","913","","<div class='header' style='text-align:left; position: absolute; top: 5%; left: 5%;'><small>Task 3 of 5</small></div><div class='instruxDiv'><p><strong>3) What happens to the amount of points you send to your partner?</strong></p><p>a) Nothing</p><p>b) It doubles</p><p style='color:#00FF00'>c) It quadruples</p><h3 style='color:#00FF00'>Correct!</h3><h3 class='center-content'>The correct response is c).</h3><h3 class='center-content'>The amount of points you send to your partner quadruples.</h3><p><em>Press SPACEBAR to continue</em></p></div>"," ","","","","","","","","","","",""
"","","","","6162341a644c08d5cca4b7bb","bdp_trlrn","Sun Mar 12 2023 17:19:10 GMT-0400 (Eastern Daylight Time)","523927","Untrustworthy,Trustworthy","html-keyboard-response","134","210818","0.0-15.0","","9379","","<div class='header' style='text-align:left; position: absolute; top: 5%; left: 5%;'><small>Task 3 of 5</small></div><div class='instruxDiv'><p><strong>4) If you decided to share 4 out of 5 points with your partner, and they decided to share half of the amount they received with you, how many points would you receive back from them on this round?</strong></p><p>a) 16</p><p>b) 0</p><p>c) 8</p>","C","","","","","","","","","","",""
"","","","","6162341a644c08d5cca4b7bb","bdp_trlrn","Sun Mar 12 2023 17:19:10 GMT-0400 (Eastern Daylight Time)","523927","Untrustworthy,Trustworthy","html-keyboard-response","135","211650","0.0-16.0","","730","","<div class='header' style='text-align:left; position: absolute; top: 5%; left: 5%;'><small>Task 3 of 5</small></div><div class='instruxDiv'><p><strong>4) If you decided to share 4 out of 5 points with your partner, and they decided to share half of the amount they received with you, how many points would you receive back from them on this round?</strong></p><p>a) 16</p><p>b) 0</p><p style='color:#00FF00'>c) 8</p><h3 style='color:#00FF00'>Correct!</h3><h3 class='center-content'>The correct response is c).</h3><h3 class='center-content'>If you shared 4 out of 5 points with your partner and they decided to share half of the amount they received with you, you would receive 8 points back (i.e. (4 x 4)/2 = 8).</h3><p><em>Press SPACEBAR to continue</em></p></div>"," ","","","","","","","","","","",""
"","","","","6162341a644c08d5cca4b7bb","bdp_trlrn","Sun Mar 12 2023 17:19:10 GMT-0400 (Eastern Daylight Time)","523927","Untrustworthy,Trustworthy","html-keyboard-response","136","216755","0.0-17.0","","null","","<div class='header' style='text-align:left; position: absolute; top: 5%; left: 5%;'><small>Task 3 of 5</small></div><div class='instruxDiv'><p>Thank you for completing the quiz<p>These are the actual partners you will be interacting with in the next block:<p><div class='tc' align='center'><img class='introPic' src='trustrating_stim/white_mw048.bmp'><br><strong>Ryan</strong></div><div class='bl' align='center'><img class='introPic' src='trustrating_stim/white_00299_940422_fa_edt.bmp'><br><strong>Brian</strong></div><div class='br' align='center'><img class='introPic' src='trustrating_stim/white_00129_931230_fb_edt.bmp'><br><strong>Joseph</strong></div></div><p>Across <strong>66 rounds</strong> you will interact with each partner <strong>22 times</strong> (in random order).<p style='align:center; color:white'><font <em>Press SPACEBAR to continue</em></p>","null","","","","","","","","","","",""
"","","","","6162341a644c08d5cca4b7bb","bdp_trlrn","Sun Mar 12 2023 17:19:10 GMT-0400 (Eastern Daylight Time)","523927","Untrustworthy,Trustworthy","instructions","137","218987","0.0-18.0","[{""page_index"":0,""viewing_time"":829},{""page_index"":1,""viewing_time"":1403}]","2232","","","","","","","","","","","","","",""
"","","","decision","6162341a644c08d5cca4b7bb","bdp_trlrn","Sun Mar 12 2023 17:19:10 GMT-0400 (Eastern Daylight Time)","523927","Untrustworthy,Trustworthy","html-keyboard-response","138","221782","0.0-19.0-1.0","","2691","","<div class='trialDiv'><img src='trustrating_stim/white_00299_940422_fa_edt.bmp'><br><font class='baseline'><strong>Brian</strong><p>Choose number of points to send.</font><div class='respPicDiv'><img src='img/responseButtonOffersNo0L.png' class='respPic'></div></div>","3","1","Brian","7","Shared","0.65,0.2","14","0.65","trustrating_stim/white_00299_940422_fa_edt.bmp","3","5","1"
"","","","decisionFB","6162341a644c08d5cca4b7bb","bdp_trlrn","Sun Mar 12 2023 17:19:10 GMT-0400 (Eastern Daylight Time)","523927","Untrustworthy,Trustworthy","html-keyboard-response","139","222035","0.0-19.0-2.0","","null","","<div class='trialDiv'><img src='trustrating_stim/white_00299_940422_fa_edt.bmp'><br><font class='baseline'><strong>Brian</strong><p>Choose number of points to send.</font><div class='respPicDiv'><img src='img/responseButtonOffersNo0L3.png' class='respPic'></div></div>","null","1","Brian","7","Shared","0.65,0.2","14","0.65","trustrating_stim/white_00299_940422_fa_edt.bmp","3","2","1"
"","","","feedback","6162341a644c08d5cca4b7bb","bdp_trlrn","Sun Mar 12 2023 17:19:10 GMT-0400 (Eastern Daylight Time)","523927","Untrustworthy,Trustworthy","html-keyboard-response","140","223038","0.0-19.0-3.0","","null","","<div class='trialDiv'><img src='trustrating_stim/white_00299_940422_fa_edt.bmp'><br><font class='baseline'><strong>Brian</strong><p>Received: <strong>12</strong></font> &nbsp; &nbsp; &nbsp; &nbsp; &nbsp; &nbsp;<font class='posOutcome'>Shared back: <strong>6</strong></font></font><div class='respPicDiv'><img src='img/responseButtonOffersNo0_wht.png' class='respPic'></div></div>","null","1","Brian","7","Shared","0.65,0.2","14","0.65","trustrating_stim/white_00299_940422_fa_edt.bmp","3","8","1"
"","","","decision","6162341a644c08d5cca4b7bb","bdp_trlrn","Sun Mar 12 2023 17:19:10 GMT-0400 (Eastern Daylight Time)","523927","Untrustworthy,Trustworthy","html-keyboard-response","141","224513","0.0-19.0-1.1","","1473","","<div class='trialDiv'><img src='trustrating_stim/white_mw048.bmp'><br><font class='baseline'><strong>Ryan</strong><p>Choose number of points to send.</font><div class='respPicDiv'><img src='img/responseButtonOffersNo0L.png' class='respPic'></div></div>","3","1","Ryan","2","Kept","0.35,0.65","13","0.35","trustrating_stim/white_mw048.bmp","2.5","13","2"
"","","","decisionFB","6162341a644c08d5cca4b7bb","bdp_trlrn","Sun Mar 12 2023 17:19:10 GMT-0400 (Eastern Daylight Time)","523927","Untrustworthy,Trustworthy","html-keyboard-response","142","224765","0.0-19.0-2.1","","null","","<div class='trialDiv'><img src='trustrating_stim/white_mw048.bmp'><br><font class='baseline'><strong>Ryan</strong><p>Choose number of points to send.</font><div class='respPicDiv'><img src='img/responseButtonOffersNo0L3.png' class='respPic'></div></div>","null","1","Ryan","2","Kept","0.35,0.65","13","0.35","trustrating_stim/white_mw048.bmp","2.5","10","2"
"","","","feedback","6162341a644c08d5cca4b7bb","bdp_trlrn","Sun Mar 12 2023 17:19:10 GMT-0400 (Eastern Daylight Time)","523927","Untrustworthy,Trustworthy","html-keyboard-response","143","225768","0.0-19.0-3.1","","null","","<div class='trialDiv'><img src='trustrating_stim/white_mw048.bmp'><br><font class='baseline'><strong>Ryan</strong><p>Received: <strong>12</strong></font> &nbsp; &nbsp; &nbsp; &nbsp; &nbsp; &nbsp;<font class='negOutcome'>Shared back: <strong>0</strong></font></font><div class='respPicDiv'><img src='img/responseButtonOffersNo0_wht.png' class='respPic'></div></div>","null","1","Ryan","2","Kept","0.35,0.65","13","0.35","trustrating_stim/white_mw048.bmp","2.5","10","2"
"","","","decision","6162341a644c08d5cca4b7bb","bdp_trlrn","Sun Mar 12 2023 17:19:10 GMT-0400 (Eastern Daylight Time)","523927","Untrustworthy,Trustworthy","html-keyboard-response","144","226853","0.0-19.0-1.2","","1084","","<div class='trialDiv'><img src='trustrating_stim/white_00129_931230_fb_edt.bmp'><br><font class='baseline'><strong>Joseph</strong><p>Choose number of points to send.</font><div class='respPicDiv'><img src='img/responseButtonOffersNo0L.png' class='respPic'></div></div>","3","1","Joseph","8","Shared","0.2,0.65","8","0.2","trustrating_stim/white_00129_931230_fb_edt.bmp","4.5","15","3"
"","","","decisionFB","6162341a644c08d5cca4b7bb","bdp_trlrn","Sun Mar 12 2023 17:19:10 GMT-0400 (Eastern Daylight Time)","523927","Untrustworthy,Trustworthy","html-keyboard-response","145","227104","0.0-19.0-2.2","","null","","<div class='trialDiv'><img src='trustrating_stim/white_00129_931230_fb_edt.bmp'><br><font class='baseline'><strong>Joseph</strong><p>Choose number of points to send.</font><div class='respPicDiv'><img src='img/responseButtonOffersNo0L3.png' class='respPic'></div></div>","null","1","Joseph","8","Shared","0.2,0.65","8","0.2","trustrating_stim/white_00129_931230_fb_edt.bmp","4.5","12","3"
"","","","feedback","6162341a644c08d5cca4b7bb","bdp_trlrn","Sun Mar 12 2023 17:19:10 GMT-0400 (Eastern Daylight Time)","523927","Untrustworthy,Trustworthy","html-keyboard-response","146","228105","0.0-19.0-3.2","","null","","<div class='trialDiv'><img src='trustrating_stim/white_00129_931230_fb_edt.bmp'><br><font class='baseline'><strong>Joseph</strong><p>Received: <strong>12</strong></font> &nbsp; &nbsp; &nbsp; &nbsp; &nbsp; &nbsp;<font class='posOutcome'>Shared back: <strong>6</strong></font></font><div class='respPicDiv'><img src='img/responseButtonOffersNo0_wht.png' class='respPic'></div></div>","null","1","Joseph","8","Shared","0.2,0.65","8","0.2","trustrating_stim/white_00129_931230_fb_edt.bmp","4.5","18","3"
"","","","decision","6162341a644c08d5cca4b7bb","bdp_trlrn","Sun Mar 12 2023 17:19:10 GMT-0400 (Eastern Daylight Time)","523927","Untrustworthy,Trustworthy","html-keyboard-response","147","230639","0.0-19.0-1.3","","2532","","<div class='trialDiv'><img src='trustrating_stim/white_00299_940422_fa_edt.bmp'><br><font class='baseline'><strong>Brian</strong><p>Choose number of points to send.</font><div class='respPicDiv'><img src='img/responseButtonOffersNo0L.png' class='respPic'></div></div>","3","2","Brian","7","Shared","0.65,0.2","14","0.65","trustrating_stim/white_00299_940422_fa_edt.bmp","3","23","4"
"","","","decisionFB","6162341a644c08d5cca4b7bb","bdp_trlrn","Sun Mar 12 2023 17:19:10 GMT-0400 (Eastern Daylight Time)","523927","Untrustworthy,Trustworthy","html-keyboard-response","148","230890","0.0-19.0-2.3","","null","","<div class='trialDiv'><img src='trustrating_stim/white_00299_940422_fa_edt.bmp'><br><font class='baseline'><strong>Brian</strong><p>Choose number of points to send.</font><div class='respPicDiv'><img src='img/responseButtonOffersNo0L3.png' class='respPic'></div></div>","null","2","Brian","7","Shared","0.65,0.2","14","0.65","trustrating_stim/white_00299_940422_fa_edt.bmp","3","20","4"
"","","","feedback","6162341a644c08d5cca4b7bb","bdp_trlrn","Sun Mar 12 2023 17:19:10 GMT-0400 (Eastern Daylight Time)","523927","Untrustworthy,Trustworthy","html-keyboard-response","149","231893","0.0-19.0-3.3","","null","","<div class='trialDiv'><img src='trustrating_stim/white_00299_940422_fa_edt.bmp'><br><font class='baseline'><strong>Brian</strong><p>Received: <strong>12</strong></font> &nbsp; &nbsp; &nbsp; &nbsp; &nbsp; &nbsp;<font class='posOutcome'>Shared back: <strong>6</strong></font></font><div class='respPicDiv'><img src='img/responseButtonOffersNo0_wht.png' class='respPic'></div></div>","null","2","Brian","7","Shared","0.65,0.2","14","0.65","trustrating_stim/white_00299_940422_fa_edt.bmp","3","26","4"
"","","","decision","6162341a644c08d5cca4b7bb","bdp_trlrn","Sun Mar 12 2023 17:19:10 GMT-0400 (Eastern Daylight Time)","523927","Untrustworthy,Trustworthy","html-keyboard-response","150","234010","0.0-19.0-1.4","","2115","","<div class='trialDiv'><img src='trustrating_stim/white_00129_931230_fb_edt.bmp'><br><font class='baseline'><strong>Joseph</strong><p>Choose number of points to send.</font><div class='respPicDiv'><img src='img/responseButtonOffersNo0L.png' class='respPic'></div></div>","4","2","Joseph","8","Kept","0.2,0.65","8","0.2","trustrating_stim/white_00129_931230_fb_edt.bmp","4.5","31","5"
"","","","decisionFB","6162341a644c08d5cca4b7bb","bdp_trlrn","Sun Mar 12 2023 17:19:10 GMT-0400 (Eastern Daylight Time)","523927","Untrustworthy,Trustworthy","html-keyboard-response","151","234261","0.0-19.0-2.4","","null","","<div class='trialDiv'><img src='trustrating_stim/white_00129_931230_fb_edt.bmp'><br><font class='baseline'><strong>Joseph</strong><p>Choose number of points to send.</font><div class='respPicDiv'><img src='img/responseButtonOffersNo0L4.png' class='respPic'></div></div>","null","2","Joseph","8","Kept","0.2,0.65","8","0.2","trustrating_stim/white_00129_931230_fb_edt.bmp","4.5","27","5"
"","","","feedback","6162341a644c08d5cca4b7bb","bdp_trlrn","Sun Mar 12 2023 17:19:10 GMT-0400 (Eastern Daylight Time)","523927","Untrustworthy,Trustworthy","html-keyboard-response","152","235264","0.0-19.0-3.4","","null","","<div class='trialDiv'><img src='trustrating_stim/white_00129_931230_fb_edt.bmp'><br><font class='baseline'><strong>Joseph</strong><p>Received: <strong>16</strong></font> &nbsp; &nbsp; &nbsp; &nbsp; &nbsp; &nbsp;<font class='negOutcome'>Shared back: <strong>0</strong></font></font><div class='respPicDiv'><img src='img/responseButtonOffersNo0_wht.png' class='respPic'></div></div>","null","2","Joseph","8","Kept","0.2,0.65","8","0.2","trustrating_stim/white_00129_931230_fb_edt.bmp","4.5","27","5"
"","","","decision","6162341a644c08d5cca4b7bb","bdp_trlrn","Sun Mar 12 2023 17:19:10 GMT-0400 (Eastern Daylight Time)","523927","Untrustworthy,Trustworthy","html-keyboard-response","153","236965","0.0-19.0-1.5","","1699","","<div class='trialDiv'><img src='trustrating_stim/white_mw048.bmp'><br><font class='baseline'><strong>Ryan</strong><p>Choose number of points to send.</font><div class='respPicDiv'><img src='img/responseButtonOffersNo0L.png' class='respPic'></div></div>","1","2","Ryan","2","Shared","0.35,0.65","13","0.35","trustrating_stim/white_mw048.bmp","2.5","32","6"
"","","","decisionFB","6162341a644c08d5cca4b7bb","bdp_trlrn","Sun Mar 12 2023 17:19:10 GMT-0400 (Eastern Daylight Time)","523927","Untrustworthy,Trustworthy","html-keyboard-response","154","237217","0.0-19.0-2.5","","null","","<div class='trialDiv'><img src='trustrating_stim/white_mw048.bmp'><br><font class='baseline'><strong>Ryan</strong><p>Choose number of points to send.</font><div class='respPicDiv'><img src='img/responseButtonOffersNo0L1.png' class='respPic'></div></div>","null","2","Ryan","2","Shared","0.35,0.65","13","0.35","trustrating_stim/white_mw048.bmp","2.5","31","6"
"","","","feedback","6162341a644c08d5cca4b7bb","bdp_trlrn","Sun Mar 12 2023 17:19:10 GMT-0400 (Eastern Daylight Time)","523927","Untrustworthy,Trustworthy","html-keyboard-response","155","238217","0.0-19.0-3.5","","null","","<div class='trialDiv'><img src='trustrating_stim/white_mw048.bmp'><br><font class='baseline'><strong>Ryan</strong><p>Received: <strong>4</strong></font> &nbsp; &nbsp; &nbsp; &nbsp; &nbsp; &nbsp;<font class='posOutcome'>Shared back: <strong>2</strong></font></font><div class='respPicDiv'><img src='img/responseButtonOffersNo0_wht.png' class='respPic'></div></div>","null","2","Ryan","2","Shared","0.35,0.65","13","0.35","trustrating_stim/white_mw048.bmp","2.5","33","6"
"","","","decision","6162341a644c08d5cca4b7bb","bdp_trlrn","Sun Mar 12 2023 17:19:10 GMT-0400 (Eastern Daylight Time)","523927","Untrustworthy,Trustworthy","html-keyboard-response","156","240498","0.0-19.0-1.6","","2281","","<div class='trialDiv'><img src='trustrating_stim/white_00129_931230_fb_edt.bmp'><br><font class='baseline'><strong>Joseph</strong><p>Choose number of points to send.</font><div class='respPicDiv'><img src='img/responseButtonOffersNo0L.png' class='respPic'></div></div>","2","3","Joseph","8","Shared","0.2,0.65","8","0.2","trustrating_stim/white_00129_931230_fb_edt.bmp","4.5","38","7"
"","","","decisionFB","6162341a644c08d5cca4b7bb","bdp_trlrn","Sun Mar 12 2023 17:19:10 GMT-0400 (Eastern Daylight Time)","523927","Untrustworthy,Trustworthy","html-keyboard-response","157","240750","0.0-19.0-2.6","","null","","<div class='trialDiv'><img src='trustrating_stim/white_00129_931230_fb_edt.bmp'><br><font class='baseline'><strong>Joseph</strong><p>Choose number of points to send.</font><div class='respPicDiv'><img src='img/responseButtonOffersNo0L2.png' class='respPic'></div></div>","null","3","Joseph","8","Shared","0.2,0.65","8","0.2","trustrating_stim/white_00129_931230_fb_edt.bmp","4.5","36","7"
"","","","feedback","6162341a644c08d5cca4b7bb","bdp_trlrn","Sun Mar 12 2023 17:19:10 GMT-0400 (Eastern Daylight Time)","523927","Untrustworthy,Trustworthy","html-keyboard-response","158","241752","0.0-19.0-3.6","","null","","<div class='trialDiv'><img src='trustrating_stim/white_00129_931230_fb_edt.bmp'><br><font class='baseline'><strong>Joseph</strong><p>Received: <strong>8</strong></font> &nbsp; &nbsp; &nbsp; &nbsp; &nbsp; &nbsp;<font class='posOutcome'>Shared back: <strong>4</strong></font></font><div class='respPicDiv'><img src='img/responseButtonOffersNo0_wht.png' class='respPic'></div></div>","null","3","Joseph","8","Shared","0.2,0.65","8","0.2","trustrating_stim/white_00129_931230_fb_edt.bmp","4.5","40","7"
"","","","decision","6162341a644c08d5cca4b7bb","bdp_trlrn","Sun Mar 12 2023 17:19:10 GMT-0400 (Eastern Daylight Time)","523927","Untrustworthy,Trustworthy","html-keyboard-response","159","243389","0.0-19.0-1.7","","1636","","<div class='trialDiv'><img src='trustrating_stim/white_00299_940422_fa_edt.bmp'><br><font class='baseline'><strong>Brian</strong><p>Choose number of points to send.</font><div class='respPicDiv'><img src='img/responseButtonOffersNo0L.png' class='respPic'></div></div>","3","3","Brian","7","Kept","0.65,0.2","14","0.65","trustrating_stim/white_00299_940422_fa_edt.bmp","3","45","8"
"","","","decisionFB","6162341a644c08d5cca4b7bb","bdp_trlrn","Sun Mar 12 2023 17:19:10 GMT-0400 (Eastern Daylight Time)","523927","Untrustworthy,Trustworthy","html-keyboard-response","160","243640","0.0-19.0-2.7","","null","","<div class='trialDiv'><img src='trustrating_stim/white_00299_940422_fa_edt.bmp'><br><font class='baseline'><strong>Brian</strong><p>Choose number of points to send.</font><div class='respPicDiv'><img src='img/responseButtonOffersNo0L3.png' class='respPic'></div></div>","null","3","Brian","7","Kept","0.65,0.2","14","0.65","trustrating_stim/white_00299_940422_fa_edt.bmp","3","42","8"
"","","","feedback","6162341a644c08d5cca4b7bb","bdp_trlrn","Sun Mar 12 2023 17:19:10 GMT-0400 (Eastern Daylight Time)","523927","Untrustworthy,Trustworthy","html-keyboard-response","161","244643","0.0-19.0-3.7","","null","","<div class='trialDiv'><img src='trustrating_stim/white_00299_940422_fa_edt.bmp'><br><font class='baseline'><strong>Brian</strong><p>Received: <strong>12</strong></font> &nbsp; &nbsp; &nbsp; &nbsp; &nbsp; &nbsp;<font class='negOutcome'>Shared back: <strong>0</strong></font></font><div class='respPicDiv'><img src='img/responseButtonOffersNo0_wht.png' class='respPic'></div></div>","null","3","Brian","7","Kept","0.65,0.2","14","0.65","trustrating_stim/white_00299_940422_fa_edt.bmp","3","42","8"
"","","","decision","6162341a644c08d5cca4b7bb","bdp_trlrn","Sun Mar 12 2023 17:19:10 GMT-0400 (Eastern Daylight Time)","523927","Untrustworthy,Trustworthy","html-keyboard-response","162","246028","0.0-19.0-1.8","","1383","","<div class='trialDiv'><img src='trustrating_stim/white_mw048.bmp'><br><font class='baseline'><strong>Ryan</strong><p>Choose number of points to send.</font><div class='respPicDiv'><img src='img/responseButtonOffersNo0L.png' class='respPic'></div></div>","4","3","Ryan","2","Shared","0.35,0.65","13","0.35","trustrating_stim/white_mw048.bmp","2.5","47","9"
"","","","decisionFB","6162341a644c08d5cca4b7bb","bdp_trlrn","Sun Mar 12 2023 17:19:10 GMT-0400 (Eastern Daylight Time)","523927","Untrustworthy,Trustworthy","html-keyboard-response","163","246278","0.0-19.0-2.8","","null","","<div class='trialDiv'><img src='trustrating_stim/white_mw048.bmp'><br><font class='baseline'><strong>Ryan</strong><p>Choose number of points to send.</font><div class='respPicDiv'><img src='img/responseButtonOffersNo0L4.png' class='respPic'></div></div>","null","3","Ryan","2","Shared","0.35,0.65","13","0.35","trustrating_stim/white_mw048.bmp","2.5","43","9"
"","","","feedback","6162341a644c08d5cca4b7bb","bdp_trlrn","Sun Mar 12 2023 17:19:10 GMT-0400 (Eastern Daylight Time)","523927","Untrustworthy,Trustworthy","html-keyboard-response","164","247280","0.0-19.0-3.8","","null","","<div class='trialDiv'><img src='trustrating_stim/white_mw048.bmp'><br><font class='baseline'><strong>Ryan</strong><p>Received: <strong>16</strong></font> &nbsp; &nbsp; &nbsp; &nbsp; &nbsp; &nbsp;<font class='posOutcome'>Shared back: <strong>8</strong></font></font><div class='respPicDiv'><img src='img/responseButtonOffersNo0_wht.png' class='respPic'></div></div>","null","3","Ryan","2","Shared","0.35,0.65","13","0.35","trustrating_stim/white_mw048.bmp","2.5","51","9"
"","","","decision","6162341a644c08d5cca4b7bb","bdp_trlrn","Sun Mar 12 2023 17:19:10 GMT-0400 (Eastern Daylight Time)","523927","Untrustworthy,Trustworthy","html-keyboard-response","165","249237","0.0-19.0-1.9","","1957","","<div class='trialDiv'><img src='trustrating_stim/white_00299_940422_fa_edt.bmp'><br><font class='baseline'><strong>Brian</strong><p>Choose number of points to send.</font><div class='respPicDiv'><img src='img/responseButtonOffersNo0L.png' class='respPic'></div></div>","1","4","Brian","7","Shared","0.65,0.2","14","0.65","trustrating_stim/white_00299_940422_fa_edt.bmp","3","56","10"
"","","","decisionFB","6162341a644c08d5cca4b7bb","bdp_trlrn","Sun Mar 12 2023 17:19:10 GMT-0400 (Eastern Daylight Time)","523927","Untrustworthy,Trustworthy","html-keyboard-response","166","249488","0.0-19.0-2.9","","null","","<div class='trialDiv'><img src='trustrating_stim/white_00299_940422_fa_edt.bmp'><br><font class='baseline'><strong>Brian</strong><p>Choose number of points to send.</font><div class='respPicDiv'><img src='img/responseButtonOffersNo0L1.png' class='respPic'></div></div>","null","4","Brian","7","Shared","0.65,0.2","14","0.65","trustrating_stim/white_00299_940422_fa_edt.bmp","3","55","10"
"","","","feedback","6162341a644c08d5cca4b7bb","bdp_trlrn","Sun Mar 12 2023 17:19:10 GMT-0400 (Eastern Daylight Time)","523927","Untrustworthy,Trustworthy","html-keyboard-response","167","250490","0.0-19.0-3.9","","null","","<div class='trialDiv'><img src='trustrating_stim/white_00299_940422_fa_edt.bmp'><br><font class='baseline'><strong>Brian</strong><p>Received: <strong>4</strong></font> &nbsp; &nbsp; &nbsp; &nbsp; &nbsp; &nbsp;<font class='posOutcome'>Shared back: <strong>2</strong></font></font><div class='respPicDiv'><img src='img/responseButtonOffersNo0_wht.png' class='respPic'></div></div>","null","4","Brian","7","Shared","0.65,0.2","14","0.65","trustrating_stim/white_00299_940422_fa_edt.bmp","3","57","10"
"","","","decision","6162341a644c08d5cca4b7bb","bdp_trlrn","Sun Mar 12 2023 17:19:10 GMT-0400 (Eastern Daylight Time)","523927","Untrustworthy,Trustworthy","html-keyboard-response","168","252019","0.0-19.0-1.10","","1528","","<div class='trialDiv'><img src='trustrating_stim/white_mw048.bmp'><br><font class='baseline'><strong>Ryan</strong><p>Choose number of points to send.</font><div class='respPicDiv'><img src='img/responseButtonOffersNo0L.png' class='respPic'></div></div>","5","4","Ryan","2","Kept","0.35,0.65","13","0.35","trustrating_stim/white_mw048.bmp","2.5","62","11"
"","","","decisionFB","6162341a644c08d5cca4b7bb","bdp_trlrn","Sun Mar 12 2023 17:19:10 GMT-0400 (Eastern Daylight Time)","523927","Untrustworthy,Trustworthy","html-keyboard-response","169","252271","0.0-19.0-2.10","","null","","<div class='trialDiv'><img src='trustrating_stim/white_mw048.bmp'><br><font class='baseline'><strong>Ryan</strong><p>Choose number of points to send.</font><div class='respPicDiv'><img src='img/responseButtonOffersNo0L5.png' class='respPic'></div></div>","null","4","Ryan","2","Kept","0.35,0.65","13","0.35","trustrating_stim/white_mw048.bmp","2.5","57","11"
"","","","feedback","6162341a644c08d5cca4b7bb","bdp_trlrn","Sun Mar 12 2023 17:19:10 GMT-0400 (Eastern Daylight Time)","523927","Untrustworthy,Trustworthy","html-keyboard-response","170","253274","0.0-19.0-3.10","","null","","<div class='trialDiv'><img src='trustrating_stim/white_mw048.bmp'><br><font class='baseline'><strong>Ryan</strong><p>Received: <strong>20</strong></font> &nbsp; &nbsp; &nbsp; &nbsp; &nbsp; &nbsp;<font class='negOutcome'>Shared back: <strong>0</strong></font></font><div class='respPicDiv'><img src='img/responseButtonOffersNo0_wht.png' class='respPic'></div></div>","null","4","Ryan","2","Kept","0.35,0.65","13","0.35","trustrating_stim/white_mw048.bmp","2.5","57","11"
"","","","decision","6162341a644c08d5cca4b7bb","bdp_trlrn","Sun Mar 12 2023 17:19:10 GMT-0400 (Eastern Daylight Time)","523927","Untrustworthy,Trustworthy","html-keyboard-response","171","254520","0.0-19.0-1.11","","1245","","<div class='trialDiv'><img src='trustrating_stim/white_00129_931230_fb_edt.bmp'><br><font class='baseline'><strong>Joseph</strong><p>Choose number of points to send.</font><div class='respPicDiv'><img src='img/responseButtonOffersNo0L.png' class='respPic'></div></div>","5","4","Joseph","8","Kept","0.2,0.65","8","0.2","trustrating_stim/white_00129_931230_fb_edt.bmp","4.5","62","12"
"","","","decisionFB","6162341a644c08d5cca4b7bb","bdp_trlrn","Sun Mar 12 2023 17:19:10 GMT-0400 (Eastern Daylight Time)","523927","Untrustworthy,Trustworthy","html-keyboard-response","172","254772","0.0-19.0-2.11","","null","","<div class='trialDiv'><img src='trustrating_stim/white_00129_931230_fb_edt.bmp'><br><font class='baseline'><strong>Joseph</strong><p>Choose number of points to send.</font><div class='respPicDiv'><img src='img/responseButtonOffersNo0L5.png' class='respPic'></div></div>","null","4","Joseph","8","Kept","0.2,0.65","8","0.2","trustrating_stim/white_00129_931230_fb_edt.bmp","4.5","57","12"
"","","","feedback","6162341a644c08d5cca4b7bb","bdp_trlrn","Sun Mar 12 2023 17:19:10 GMT-0400 (Eastern Daylight Time)","523927","Untrustworthy,Trustworthy","html-keyboard-response","173","255774","0.0-19.0-3.11","","null","","<div class='trialDiv'><img src='trustrating_stim/white_00129_931230_fb_edt.bmp'><br><font class='baseline'><strong>Joseph</strong><p>Received: <strong>20</strong></font> &nbsp; &nbsp; &nbsp; &nbsp; &nbsp; &nbsp;<font class='negOutcome'>Shared back: <strong>0</strong></font></font><div class='respPicDiv'><img src='img/responseButtonOffersNo0_wht.png' class='respPic'></div></div>","null","4","Joseph","8","Kept","0.2,0.65","8","0.2","trustrating_stim/white_00129_931230_fb_edt.bmp","4.5","57","12"
"","","","decision","6162341a644c08d5cca4b7bb","bdp_trlrn","Sun Mar 12 2023 17:19:10 GMT-0400 (Eastern Daylight Time)","523927","Untrustworthy,Trustworthy","html-keyboard-response","174","256674","0.0-19.0-1.12","","898","","<div class='trialDiv'><img src='trustrating_stim/white_mw048.bmp'><br><font class='baseline'><strong>Ryan</strong><p>Choose number of points to send.</font><div class='respPicDiv'><img src='img/responseButtonOffersNo0L.png' class='respPic'></div></div>","1","5","Ryan","2","Kept","0.35,0.65","13","0.35","trustrating_stim/white_mw048.bmp","2.5","62","13"
"","","","decisionFB","6162341a644c08d5cca4b7bb","bdp_trlrn","Sun Mar 12 2023 17:19:10 GMT-0400 (Eastern Daylight Time)","523927","Untrustworthy,Trustworthy","html-keyboard-response","175","256927","0.0-19.0-2.12","","null","","<div class='trialDiv'><img src='trustrating_stim/white_mw048.bmp'><br><font class='baseline'><strong>Ryan</strong><p>Choose number of points to send.</font><div class='respPicDiv'><img src='img/responseButtonOffersNo0L1.png' class='respPic'></div></div>","null","5","Ryan","2","Kept","0.35,0.65","13","0.35","trustrating_stim/white_mw048.bmp","2.5","61","13"
"","","","feedback","6162341a644c08d5cca4b7bb","bdp_trlrn","Sun Mar 12 2023 17:19:10 GMT-0400 (Eastern Daylight Time)","523927","Untrustworthy,Trustworthy","html-keyboard-response","176","257928","0.0-19.0-3.12","","null","","<div class='trialDiv'><img src='trustrating_stim/white_mw048.bmp'><br><font class='baseline'><strong>Ryan</strong><p>Received: <strong>4</strong></font> &nbsp; &nbsp; &nbsp; &nbsp; &nbsp; &nbsp;<font class='negOutcome'>Shared back: <strong>0</strong></font></font><div class='respPicDiv'><img src='img/responseButtonOffersNo0_wht.png' class='respPic'></div></div>","null","5","Ryan","2","Kept","0.35,0.65","13","0.35","trustrating_stim/white_mw048.bmp","2.5","61","13"
"","","","decision","6162341a644c08d5cca4b7bb","bdp_trlrn","Sun Mar 12 2023 17:19:10 GMT-0400 (Eastern Daylight Time)","523927","Untrustworthy,Trustworthy","html-keyboard-response","177","258630","0.0-19.0-1.13","","701","","<div class='trialDiv'><img src='trustrating_stim/white_00299_940422_fa_edt.bmp'><br><font class='baseline'><strong>Brian</strong><p>Choose number of points to send.</font><div class='respPicDiv'><img src='img/responseButtonOffersNo0L.png' class='respPic'></div></div>","5","5","Brian","7","Shared","0.65,0.2","14","0.65","trustrating_stim/white_00299_940422_fa_edt.bmp","3","66","14"
"","","","decisionFB","6162341a644c08d5cca4b7bb","bdp_trlrn","Sun Mar 12 2023 17:19:10 GMT-0400 (Eastern Daylight Time)","523927","Untrustworthy,Trustworthy","html-keyboard-response","178","258881","0.0-19.0-2.13","","null","","<div class='trialDiv'><img src='trustrating_stim/white_00299_940422_fa_edt.bmp'><br><font class='baseline'><strong>Brian</strong><p>Choose number of points to send.</font><div class='respPicDiv'><img src='img/responseButtonOffersNo0L5.png' class='respPic'></div></div>","null","5","Brian","7","Shared","0.65,0.2","14","0.65","trustrating_stim/white_00299_940422_fa_edt.bmp","3","61","14"
"","","","feedback","6162341a644c08d5cca4b7bb","bdp_trlrn","Sun Mar 12 2023 17:19:10 GMT-0400 (Eastern Daylight Time)","523927","Untrustworthy,Trustworthy","html-keyboard-response","179","259883","0.0-19.0-3.13","","null","","<div class='trialDiv'><img src='trustrating_stim/white_00299_940422_fa_edt.bmp'><br><font class='baseline'><strong>Brian</strong><p>Received: <strong>20</strong></font> &nbsp; &nbsp; &nbsp; &nbsp; &nbsp; &nbsp;<font class='posOutcome'>Shared back: <strong>10</strong></font></font><div class='respPicDiv'><img src='img/responseButtonOffersNo0_wht.png' class='respPic'></div></div>","null","5","Brian","7","Shared","0.65,0.2","14","0.65","trustrating_stim/white_00299_940422_fa_edt.bmp","3","71","14"
"","","","decision","6162341a644c08d5cca4b7bb","bdp_trlrn","Sun Mar 12 2023 17:19:10 GMT-0400 (Eastern Daylight Time)","523927","Untrustworthy,Trustworthy","html-keyboard-response","180","261951","0.0-19.0-1.14","","2066","","<div class='trialDiv'><img src='trustrating_stim/white_00129_931230_fb_edt.bmp'><br><font class='baseline'><strong>Joseph</strong><p>Choose number of points to send.</font><div class='respPicDiv'><img src='img/responseButtonOffersNo0L.png' class='respPic'></div></div>","3","5","Joseph","8","Shared","0.2,0.65","8","0.2","trustrating_stim/white_00129_931230_fb_edt.bmp","4.5","76","15"
"","","","decisionFB","6162341a644c08d5cca4b7bb","bdp_trlrn","Sun Mar 12 2023 17:19:10 GMT-0400 (Eastern Daylight Time)","523927","Untrustworthy,Trustworthy","html-keyboard-response","181","262201","0.0-19.0-2.14","","null","","<div class='trialDiv'><img src='trustrating_stim/white_00129_931230_fb_edt.bmp'><br><font class='baseline'><strong>Joseph</strong><p>Choose number of points to send.</font><div class='respPicDiv'><img src='img/responseButtonOffersNo0L3.png' class='respPic'></div></div>","null","5","Joseph","8","Shared","0.2,0.65","8","0.2","trustrating_stim/white_00129_931230_fb_edt.bmp","4.5","73","15"
"","","","feedback","6162341a644c08d5cca4b7bb","bdp_trlrn","Sun Mar 12 2023 17:19:10 GMT-0400 (Eastern Daylight Time)","523927","Untrustworthy,Trustworthy","html-keyboard-response","182","263202","0.0-19.0-3.14","","null","","<div class='trialDiv'><img src='trustrating_stim/white_00129_931230_fb_edt.bmp'><br><font class='baseline'><strong>Joseph</strong><p>Received: <strong>12</strong></font> &nbsp; &nbsp; &nbsp; &nbsp; &nbsp; &nbsp;<font class='posOutcome'>Shared back: <strong>6</strong></font></font><div class='respPicDiv'><img src='img/responseButtonOffersNo0_wht.png' class='respPic'></div></div>","null","5","Joseph","8","Shared","0.2,0.65","8","0.2","trustrating_stim/white_00129_931230_fb_edt.bmp","4.5","79","15"
"","","","decision","6162341a644c08d5cca4b7bb","bdp_trlrn","Sun Mar 12 2023 17:19:10 GMT-0400 (Eastern Daylight Time)","523927","Untrustworthy,Trustworthy","html-keyboard-response","183","264131","0.0-19.0-1.15","","928","","<div class='trialDiv'><img src='trustrating_stim/white_mw048.bmp'><br><font class='baseline'><strong>Ryan</strong><p>Choose number of points to send.</font><div class='respPicDiv'><img src='img/responseButtonOffersNo0L.png' class='respPic'></div></div>","3","6","Ryan","2","Shared","0.35,0.65","13","0.35","trustrating_stim/white_mw048.bmp","2.5","84","16"
"","","","decisionFB","6162341a644c08d5cca4b7bb","bdp_trlrn","Sun Mar 12 2023 17:19:10 GMT-0400 (Eastern Daylight Time)","523927","Untrustworthy,Trustworthy","html-keyboard-response","184","264382","0.0-19.0-2.15","","null","","<div class='trialDiv'><img src='trustrating_stim/white_mw048.bmp'><br><font class='baseline'><strong>Ryan</strong><p>Choose number of points to send.</font><div class='respPicDiv'><img src='img/responseButtonOffersNo0L3.png' class='respPic'></div></div>","null","6","Ryan","2","Shared","0.35,0.65","13","0.35","trustrating_stim/white_mw048.bmp","2.5","81","16"
"","","","feedback","6162341a644c08d5cca4b7bb","bdp_trlrn","Sun Mar 12 2023 17:19:10 GMT-0400 (Eastern Daylight Time)","523927","Untrustworthy,Trustworthy","html-keyboard-response","185","265383","0.0-19.0-3.15","","null","","<div class='trialDiv'><img src='trustrating_stim/white_mw048.bmp'><br><font class='baseline'><strong>Ryan</strong><p>Received: <strong>12</strong></font> &nbsp; &nbsp; &nbsp; &nbsp; &nbsp; &nbsp;<font class='posOutcome'>Shared back: <strong>6</strong></font></font><div class='respPicDiv'><img src='img/responseButtonOffersNo0_wht.png' class='respPic'></div></div>","null","6","Ryan","2","Shared","0.35,0.65","13","0.35","trustrating_stim/white_mw048.bmp","2.5","87","16"
"","","","decision","6162341a644c08d5cca4b7bb","bdp_trlrn","Sun Mar 12 2023 17:19:10 GMT-0400 (Eastern Daylight Time)","523927","Untrustworthy,Trustworthy","html-keyboard-response","186","265901","0.0-19.0-1.16","","517","","<div class='trialDiv'><img src='trustrating_stim/white_00129_931230_fb_edt.bmp'><br><font class='baseline'><strong>Joseph</strong><p>Choose number of points to send.</font><div class='respPicDiv'><img src='img/responseButtonOffersNo0L.png' class='respPic'></div></div>","3","6","Joseph","8","Shared","0.2,0.65","8","0.2","trustrating_stim/white_00129_931230_fb_edt.bmp","4.5","92","17"
"","","","decisionFB","6162341a644c08d5cca4b7bb","bdp_trlrn","Sun Mar 12 2023 17:19:10 GMT-0400 (Eastern Daylight Time)","523927","Untrustworthy,Trustworthy","html-keyboard-response","187","266152","0.0-19.0-2.16","","null","","<div class='trialDiv'><img src='trustrating_stim/white_00129_931230_fb_edt.bmp'><br><font class='baseline'><strong>Joseph</strong><p>Choose number of points to send.</font><div class='respPicDiv'><img src='img/responseButtonOffersNo0L3.png' class='respPic'></div></div>","null","6","Joseph","8","Shared","0.2,0.65","8","0.2","trustrating_stim/white_00129_931230_fb_edt.bmp","4.5","89","17"
"","","","feedback","6162341a644c08d5cca4b7bb","bdp_trlrn","Sun Mar 12 2023 17:19:10 GMT-0400 (Eastern Daylight Time)","523927","Untrustworthy,Trustworthy","html-keyboard-response","188","267153","0.0-19.0-3.16","","null","","<div class='trialDiv'><img src='trustrating_stim/white_00129_931230_fb_edt.bmp'><br><font class='baseline'><strong>Joseph</strong><p>Received: <strong>12</strong></font> &nbsp; &nbsp; &nbsp; &nbsp; &nbsp; &nbsp;<font class='posOutcome'>Shared back: <strong>6</strong></font></font><div class='respPicDiv'><img src='img/responseButtonOffersNo0_wht.png' class='respPic'></div></div>","null","6","Joseph","8","Shared","0.2,0.65","8","0.2","trustrating_stim/white_00129_931230_fb_edt.bmp","4.5","95","17"
"","","","decision","6162341a644c08d5cca4b7bb","bdp_trlrn","Sun Mar 12 2023 17:19:10 GMT-0400 (Eastern Daylight Time)","523927","Untrustworthy,Trustworthy","html-keyboard-response","189","267694","0.0-19.0-1.17","","539","","<div class='trialDiv'><img src='trustrating_stim/white_00299_940422_fa_edt.bmp'><br><font class='baseline'><strong>Brian</strong><p>Choose number of points to send.</font><div class='respPicDiv'><img src='img/responseButtonOffersNo0L.png' class='respPic'></div></div>","3","6","Brian","7","Shared","0.65,0.2","14","0.65","trustrating_stim/white_00299_940422_fa_edt.bmp","3","100","18"
"","","","decisionFB","6162341a644c08d5cca4b7bb","bdp_trlrn","Sun Mar 12 2023 17:19:10 GMT-0400 (Eastern Daylight Time)","523927","Untrustworthy,Trustworthy","html-keyboard-response","190","267945","0.0-19.0-2.17","","null","","<div class='trialDiv'><img src='trustrating_stim/white_00299_940422_fa_edt.bmp'><br><font class='baseline'><strong>Brian</strong><p>Choose number of points to send.</font><div class='respPicDiv'><img src='img/responseButtonOffersNo0L3.png' class='respPic'></div></div>","null","6","Brian","7","Shared","0.65,0.2","14","0.65","trustrating_stim/white_00299_940422_fa_edt.bmp","3","97","18"
"","","","feedback","6162341a644c08d5cca4b7bb","bdp_trlrn","Sun Mar 12 2023 17:19:10 GMT-0400 (Eastern Daylight Time)","523927","Untrustworthy,Trustworthy","html-keyboard-response","191","268946","0.0-19.0-3.17","","null","","<div class='trialDiv'><img src='trustrating_stim/white_00299_940422_fa_edt.bmp'><br><font class='baseline'><strong>Brian</strong><p>Received: <strong>12</strong></font> &nbsp; &nbsp; &nbsp; &nbsp; &nbsp; &nbsp;<font class='posOutcome'>Shared back: <strong>6</strong></font></font><div class='respPicDiv'><img src='img/responseButtonOffersNo0_wht.png' class='respPic'></div></div>","null","6","Brian","7","Shared","0.65,0.2","14","0.65","trustrating_stim/white_00299_940422_fa_edt.bmp","3","103","18"
"","","","decision","6162341a644c08d5cca4b7bb","bdp_trlrn","Sun Mar 12 2023 17:19:10 GMT-0400 (Eastern Daylight Time)","523927","Untrustworthy,Trustworthy","html-keyboard-response","192","269508","0.0-19.0-1.18","","561","","<div class='trialDiv'><img src='trustrating_stim/white_00129_931230_fb_edt.bmp'><br><font class='baseline'><strong>Joseph</strong><p>Choose number of points to send.</font><div class='respPicDiv'><img src='img/responseButtonOffersNo0L.png' class='respPic'></div></div>","3","7","Joseph","8","Kept","0.2,0.65","8","0.2","trustrating_stim/white_00129_931230_fb_edt.bmp","4.5","108","19"
"","","","decisionFB","6162341a644c08d5cca4b7bb","bdp_trlrn","Sun Mar 12 2023 17:19:10 GMT-0400 (Eastern Daylight Time)","523927","Untrustworthy,Trustworthy","html-keyboard-response","193","269760","0.0-19.0-2.18","","null","","<div class='trialDiv'><img src='trustrating_stim/white_00129_931230_fb_edt.bmp'><br><font class='baseline'><strong>Joseph</strong><p>Choose number of points to send.</font><div class='respPicDiv'><img src='img/responseButtonOffersNo0L3.png' class='respPic'></div></div>","null","7","Joseph","8","Kept","0.2,0.65","8","0.2","trustrating_stim/white_00129_931230_fb_edt.bmp","4.5","105","19"
"","","","feedback","6162341a644c08d5cca4b7bb","bdp_trlrn","Sun Mar 12 2023 17:19:10 GMT-0400 (Eastern Daylight Time)","523927","Untrustworthy,Trustworthy","html-keyboard-response","194","270763","0.0-19.0-3.18","","null","","<div class='trialDiv'><img src='trustrating_stim/white_00129_931230_fb_edt.bmp'><br><font class='baseline'><strong>Joseph</strong><p>Received: <strong>12</strong></font> &nbsp; &nbsp; &nbsp; &nbsp; &nbsp; &nbsp;<font class='negOutcome'>Shared back: <strong>0</strong></font></font><div class='respPicDiv'><img src='img/responseButtonOffersNo0_wht.png' class='respPic'></div></div>","null","7","Joseph","8","Kept","0.2,0.65","8","0.2","trustrating_stim/white_00129_931230_fb_edt.bmp","4.5","105","19"
"","","","decision","6162341a644c08d5cca4b7bb","bdp_trlrn","Sun Mar 12 2023 17:19:10 GMT-0400 (Eastern Daylight Time)","523927","Untrustworthy,Trustworthy","html-keyboard-response","195","272101","0.0-19.0-1.19","","1336","","<div class='trialDiv'><img src='trustrating_stim/white_00299_940422_fa_edt.bmp'><br><font class='baseline'><strong>Brian</strong><p>Choose number of points to send.</font><div class='respPicDiv'><img src='img/responseButtonOffersNo0L.png' class='respPic'></div></div>","4","7","Brian","7","Kept","0.65,0.2","14","0.65","trustrating_stim/white_00299_940422_fa_edt.bmp","3","110","20"
"","","","decisionFB","6162341a644c08d5cca4b7bb","bdp_trlrn","Sun Mar 12 2023 17:19:10 GMT-0400 (Eastern Daylight Time)","523927","Untrustworthy,Trustworthy","html-keyboard-response","196","272351","0.0-19.0-2.19","","null","","<div class='trialDiv'><img src='trustrating_stim/white_00299_940422_fa_edt.bmp'><br><font class='baseline'><strong>Brian</strong><p>Choose number of points to send.</font><div class='respPicDiv'><img src='img/responseButtonOffersNo0L4.png' class='respPic'></div></div>","null","7","Brian","7","Kept","0.65,0.2","14","0.65","trustrating_stim/white_00299_940422_fa_edt.bmp","3","106","20"
"","","","feedback","6162341a644c08d5cca4b7bb","bdp_trlrn","Sun Mar 12 2023 17:19:10 GMT-0400 (Eastern Daylight Time)","523927","Untrustworthy,Trustworthy","html-keyboard-response","197","273353","0.0-19.0-3.19","","null","","<div class='trialDiv'><img src='trustrating_stim/white_00299_940422_fa_edt.bmp'><br><font class='baseline'><strong>Brian</strong><p>Received: <strong>16</strong></font> &nbsp; &nbsp; &nbsp; &nbsp; &nbsp; &nbsp;<font class='negOutcome'>Shared back: <strong>0</strong></font></font><div class='respPicDiv'><img src='img/responseButtonOffersNo0_wht.png' class='respPic'></div></div>","null","7","Brian","7","Kept","0.65,0.2","14","0.65","trustrating_stim/white_00299_940422_fa_edt.bmp","3","106","20"
"","","","decision","6162341a644c08d5cca4b7bb","bdp_trlrn","Sun Mar 12 2023 17:19:10 GMT-0400 (Eastern Daylight Time)","523927","Untrustworthy,Trustworthy","html-keyboard-response","198","273919","0.0-19.0-1.20","","565","","<div class='trialDiv'><img src='trustrating_stim/white_mw048.bmp'><br><font class='baseline'><strong>Ryan</strong><p>Choose number of points to send.</font><div class='respPicDiv'><img src='img/responseButtonOffersNo0L.png' class='respPic'></div></div>","5","7","Ryan","2","Shared","0.35,0.65","13","0.35","trustrating_stim/white_mw048.bmp","2.5","111","21"
"","","","decisionFB","6162341a644c08d5cca4b7bb","bdp_trlrn","Sun Mar 12 2023 17:19:10 GMT-0400 (Eastern Daylight Time)","523927","Untrustworthy,Trustworthy","html-keyboard-response","199","274171","0.0-19.0-2.20","","null","","<div class='trialDiv'><img src='trustrating_stim/white_mw048.bmp'><br><font class='baseline'><strong>Ryan</strong><p>Choose number of points to send.</font><div class='respPicDiv'><img src='img/responseButtonOffersNo0L5.png' class='respPic'></div></div>","null","7","Ryan","2","Shared","0.35,0.65","13","0.35","trustrating_stim/white_mw048.bmp","2.5","106","21"
"","","","feedback","6162341a644c08d5cca4b7bb","bdp_trlrn","Sun Mar 12 2023 17:19:10 GMT-0400 (Eastern Daylight Time)","523927","Untrustworthy,Trustworthy","html-keyboard-response","200","275172","0.0-19.0-3.20","","null","","<div class='trialDiv'><img src='trustrating_stim/white_mw048.bmp'><br><font class='baseline'><strong>Ryan</strong><p>Received: <strong>20</strong></font> &nbsp; &nbsp; &nbsp; &nbsp; &nbsp; &nbsp;<font class='posOutcome'>Shared back: <strong>10</strong></font></font><div class='respPicDiv'><img src='img/responseButtonOffersNo0_wht.png' class='respPic'></div></div>","null","7","Ryan","2","Shared","0.35,0.65","13","0.35","trustrating_stim/white_mw048.bmp","2.5","116","21"
"","","","decision","6162341a644c08d5cca4b7bb","bdp_trlrn","Sun Mar 12 2023 17:19:10 GMT-0400 (Eastern Daylight Time)","523927","Untrustworthy,Trustworthy","html-keyboard-response","201","276438","0.0-19.0-1.21","","1266","","<div class='trialDiv'><img src='trustrating_stim/white_00129_931230_fb_edt.bmp'><br><font class='baseline'><strong>Joseph</strong><p>Choose number of points to send.</font><div class='respPicDiv'><img src='img/responseButtonOffersNo0L.png' class='respPic'></div></div>","1","8","Joseph","8","Shared","0.2,0.65","8","0.2","trustrating_stim/white_00129_931230_fb_edt.bmp","4.5","121","22"
"","","","decisionFB","6162341a644c08d5cca4b7bb","bdp_trlrn","Sun Mar 12 2023 17:19:10 GMT-0400 (Eastern Daylight Time)","523927","Untrustworthy,Trustworthy","html-keyboard-response","202","276690","0.0-19.0-2.21","","null","","<div class='trialDiv'><img src='trustrating_stim/white_00129_931230_fb_edt.bmp'><br><font class='baseline'><strong>Joseph</strong><p>Choose number of points to send.</font><div class='respPicDiv'><img src='img/responseButtonOffersNo0L1.png' class='respPic'></div></div>","null","8","Joseph","8","Shared","0.2,0.65","8","0.2","trustrating_stim/white_00129_931230_fb_edt.bmp","4.5","120","22"
"","","","feedback","6162341a644c08d5cca4b7bb","bdp_trlrn","Sun Mar 12 2023 17:19:10 GMT-0400 (Eastern Daylight Time)","523927","Untrustworthy,Trustworthy","html-keyboard-response","203","277692","0.0-19.0-3.21","","null","","<div class='trialDiv'><img src='trustrating_stim/white_00129_931230_fb_edt.bmp'><br><font class='baseline'><strong>Joseph</strong><p>Received: <strong>4</strong></font> &nbsp; &nbsp; &nbsp; &nbsp; &nbsp; &nbsp;<font class='posOutcome'>Shared back: <strong>2</strong></font></font><div class='respPicDiv'><img src='img/responseButtonOffersNo0_wht.png' class='respPic'></div></div>","null","8","Joseph","8","Shared","0.2,0.65","8","0.2","trustrating_stim/white_00129_931230_fb_edt.bmp","4.5","122","22"
"","","","decision","6162341a644c08d5cca4b7bb","bdp_trlrn","Sun Mar 12 2023 17:19:10 GMT-0400 (Eastern Daylight Time)","523927","Untrustworthy,Trustworthy","html-keyboard-response","204","278350","0.0-19.0-1.22","","657","","<div class='trialDiv'><img src='trustrating_stim/white_00299_940422_fa_edt.bmp'><br><font class='baseline'><strong>Brian</strong><p>Choose number of points to send.</font><div class='respPicDiv'><img src='img/responseButtonOffersNo0L.png' class='respPic'></div></div>","5","8","Brian","7","Kept","0.65,0.2","14","0.65","trustrating_stim/white_00299_940422_fa_edt.bmp","3","127","23"
"","","","decisionFB","6162341a644c08d5cca4b7bb","bdp_trlrn","Sun Mar 12 2023 17:19:10 GMT-0400 (Eastern Daylight Time)","523927","Untrustworthy,Trustworthy","html-keyboard-response","205","278602","0.0-19.0-2.22","","null","","<div class='trialDiv'><img src='trustrating_stim/white_00299_940422_fa_edt.bmp'><br><font class='baseline'><strong>Brian</strong><p>Choose number of points to send.</font><div class='respPicDiv'><img src='img/responseButtonOffersNo0L5.png' class='respPic'></div></div>","null","8","Brian","7","Kept","0.65,0.2","14","0.65","trustrating_stim/white_00299_940422_fa_edt.bmp","3","122","23"
"","","","feedback","6162341a644c08d5cca4b7bb","bdp_trlrn","Sun Mar 12 2023 17:19:10 GMT-0400 (Eastern Daylight Time)","523927","Untrustworthy,Trustworthy","html-keyboard-response","206","279604","0.0-19.0-3.22","","null","","<div class='trialDiv'><img src='trustrating_stim/white_00299_940422_fa_edt.bmp'><br><font class='baseline'><strong>Brian</strong><p>Received: <strong>20</strong></font> &nbsp; &nbsp; &nbsp; &nbsp; &nbsp; &nbsp;<font class='negOutcome'>Shared back: <strong>0</strong></font></font><div class='respPicDiv'><img src='img/responseButtonOffersNo0_wht.png' class='respPic'></div></div>","null","8","Brian","7","Kept","0.65,0.2","14","0.65","trustrating_stim/white_00299_940422_fa_edt.bmp","3","122","23"
"","","","decision","6162341a644c08d5cca4b7bb","bdp_trlrn","Sun Mar 12 2023 17:19:10 GMT-0400 (Eastern Daylight Time)","523927","Untrustworthy,Trustworthy","html-keyboard-response","207","280096","0.0-19.0-1.23","","490","","<div class='trialDiv'><img src='trustrating_stim/white_mw048.bmp'><br><font class='baseline'><strong>Ryan</strong><p>Choose number of points to send.</font><div class='respPicDiv'><img src='img/responseButtonOffersNo0L.png' class='respPic'></div></div>","5","8","Ryan","2","Kept","0.35,0.65","13","0.35","trustrating_stim/white_mw048.bmp","2.5","127","24"
"","","","decisionFB","6162341a644c08d5cca4b7bb","bdp_trlrn","Sun Mar 12 2023 17:19:10 GMT-0400 (Eastern Daylight Time)","523927","Untrustworthy,Trustworthy","html-keyboard-response","208","280348","0.0-19.0-2.23","","null","","<div class='trialDiv'><img src='trustrating_stim/white_mw048.bmp'><br><font class='baseline'><strong>Ryan</strong><p>Choose number of points to send.</font><div class='respPicDiv'><img src='img/responseButtonOffersNo0L5.png' class='respPic'></div></div>","null","8","Ryan","2","Kept","0.35,0.65","13","0.35","trustrating_stim/white_mw048.bmp","2.5","122","24"
"","","","feedback","6162341a644c08d5cca4b7bb","bdp_trlrn","Sun Mar 12 2023 17:19:10 GMT-0400 (Eastern Daylight Time)","523927","Untrustworthy,Trustworthy","html-keyboard-response","209","281349","0.0-19.0-3.23","","null","","<div class='trialDiv'><img src='trustrating_stim/white_mw048.bmp'><br><font class='baseline'><strong>Ryan</strong><p>Received: <strong>20</strong></font> &nbsp; &nbsp; &nbsp; &nbsp; &nbsp; &nbsp;<font class='negOutcome'>Shared back: <strong>0</strong></font></font><div class='respPicDiv'><img src='img/responseButtonOffersNo0_wht.png' class='respPic'></div></div>","null","8","Ryan","2","Kept","0.35,0.65","13","0.35","trustrating_stim/white_mw048.bmp","2.5","122","24"
"","","","decision","6162341a644c08d5cca4b7bb","bdp_trlrn","Sun Mar 12 2023 17:19:10 GMT-0400 (Eastern Daylight Time)","523927","Untrustworthy,Trustworthy","html-keyboard-response","210","281747","0.0-19.0-1.24","","396","","<div class='trialDiv'><img src='trustrating_stim/white_00299_940422_fa_edt.bmp'><br><font class='baseline'><strong>Brian</strong><p>Choose number of points to send.</font><div class='respPicDiv'><img src='img/responseButtonOffersNo0L.png' class='respPic'></div></div>","2","9","Brian","7","Kept","0.65,0.2","14","0.65","trustrating_stim/white_00299_940422_fa_edt.bmp","3","127","25"
"","","","decisionFB","6162341a644c08d5cca4b7bb","bdp_trlrn","Sun Mar 12 2023 17:19:10 GMT-0400 (Eastern Daylight Time)","523927","Untrustworthy,Trustworthy","html-keyboard-response","211","282000","0.0-19.0-2.24","","null","","<div class='trialDiv'><img src='trustrating_stim/white_00299_940422_fa_edt.bmp'><br><font class='baseline'><strong>Brian</strong><p>Choose number of points to send.</font><div class='respPicDiv'><img src='img/responseButtonOffersNo0L2.png' class='respPic'></div></div>","null","9","Brian","7","Kept","0.65,0.2","14","0.65","trustrating_stim/white_00299_940422_fa_edt.bmp","3","125","25"
"","","","feedback","6162341a644c08d5cca4b7bb","bdp_trlrn","Sun Mar 12 2023 17:19:10 GMT-0400 (Eastern Daylight Time)","523927","Untrustworthy,Trustworthy","html-keyboard-response","212","283000","0.0-19.0-3.24","","null","","<div class='trialDiv'><img src='trustrating_stim/white_00299_940422_fa_edt.bmp'><br><font class='baseline'><strong>Brian</strong><p>Received: <strong>8</strong></font> &nbsp; &nbsp; &nbsp; &nbsp; &nbsp; &nbsp;<font class='negOutcome'>Shared back: <strong>0</strong></font></font><div class='respPicDiv'><img src='img/responseButtonOffersNo0_wht.png' class='respPic'></div></div>","null","9","Brian","7","Kept","0.65,0.2","14","0.65","trustrating_stim/white_00299_940422_fa_edt.bmp","3","125","25"
"","","","decision","6162341a644c08d5cca4b7bb","bdp_trlrn","Sun Mar 12 2023 17:19:10 GMT-0400 (Eastern Daylight Time)","523927","Untrustworthy,Trustworthy","html-keyboard-response","213","283352","0.0-19.0-1.25","","351","","<div class='trialDiv'><img src='trustrating_stim/white_mw048.bmp'><br><font class='baseline'><strong>Ryan</strong><p>Choose number of points to send.</font><div class='respPicDiv'><img src='img/responseButtonOffersNo0L.png' class='respPic'></div></div>","1","9","Ryan","2","Kept","0.35,0.65","13","0.35","trustrating_stim/white_mw048.bmp","2.5","130","26"
"","","","decisionFB","6162341a644c08d5cca4b7bb","bdp_trlrn","Sun Mar 12 2023 17:19:10 GMT-0400 (Eastern Daylight Time)","523927","Untrustworthy,Trustworthy","html-keyboard-response","214","283603","0.0-19.0-2.25","","null","","<div class='trialDiv'><img src='trustrating_stim/white_mw048.bmp'><br><font class='baseline'><strong>Ryan</strong><p>Choose number of points to send.</font><div class='respPicDiv'><img src='img/responseButtonOffersNo0L1.png' class='respPic'></div></div>","null","9","Ryan","2","Kept","0.35,0.65","13","0.35","trustrating_stim/white_mw048.bmp","2.5","129","26"
"","","","feedback","6162341a644c08d5cca4b7bb","bdp_trlrn","Sun Mar 12 2023 17:19:10 GMT-0400 (Eastern Daylight Time)","523927","Untrustworthy,Trustworthy","html-keyboard-response","215","284605","0.0-19.0-3.25","","null","","<div class='trialDiv'><img src='trustrating_stim/white_mw048.bmp'><br><font class='baseline'><strong>Ryan</strong><p>Received: <strong>4</strong></font> &nbsp; &nbsp; &nbsp; &nbsp; &nbsp; &nbsp;<font class='negOutcome'>Shared back: <strong>0</strong></font></font><div class='respPicDiv'><img src='img/responseButtonOffersNo0_wht.png' class='respPic'></div></div>","null","9","Ryan","2","Kept","0.35,0.65","13","0.35","trustrating_stim/white_mw048.bmp","2.5","129","26"
"","","","decision","6162341a644c08d5cca4b7bb","bdp_trlrn","Sun Mar 12 2023 17:19:10 GMT-0400 (Eastern Daylight Time)","523927","Untrustworthy,Trustworthy","html-keyboard-response","216","284966","0.0-19.0-1.26","","359","","<div class='trialDiv'><img src='trustrating_stim/white_00129_931230_fb_edt.bmp'><br><font class='baseline'><strong>Joseph</strong><p>Choose number of points to send.</font><div class='respPicDiv'><img src='img/responseButtonOffersNo0L.png' class='respPic'></div></div>","4","9","Joseph","8","Shared","0.2,0.65","8","0.2","trustrating_stim/white_00129_931230_fb_edt.bmp","4.5","134","27"
"","","","decisionFB","6162341a644c08d5cca4b7bb","bdp_trlrn","Sun Mar 12 2023 17:19:10 GMT-0400 (Eastern Daylight Time)","523927","Untrustworthy,Trustworthy","html-keyboard-response","217","285217","0.0-19.0-2.26","","null","","<div class='trialDiv'><img src='trustrating_stim/white_00129_931230_fb_edt.bmp'><br><font class='baseline'><strong>Joseph</strong><p>Choose number of points to send.</font><div class='respPicDiv'><img src='img/responseButtonOffersNo0L4.png' class='respPic'></div></div>","null","9","Joseph","8","Shared","0.2,0.65","8","0.2","trustrating_stim/white_00129_931230_fb_edt.bmp","4.5","130","27"
"","","","feedback","6162341a644c08d5cca4b7bb","bdp_trlrn","Sun Mar 12 2023 17:19:10 GMT-0400 (Eastern Daylight Time)","523927","Untrustworthy,Trustworthy","html-keyboard-response","218","286220","0.0-19.0-3.26","","null","","<div class='trialDiv'><img src='trustrating_stim/white_00129_931230_fb_edt.bmp'><br><font class='baseline'><strong>Joseph</strong><p>Received: <strong>16</strong></font> &nbsp; &nbsp; &nbsp; &nbsp; &nbsp; &nbsp;<font class='posOutcome'>Shared back: <strong>8</strong></font></font><div class='respPicDiv'><img src='img/responseButtonOffersNo0_wht.png' class='respPic'></div></div>","null","9","Joseph","8","Shared","0.2,0.65","8","0.2","trustrating_stim/white_00129_931230_fb_edt.bmp","4.5","138","27"
"","","","decision","6162341a644c08d5cca4b7bb","bdp_trlrn","Sun Mar 12 2023 17:19:10 GMT-0400 (Eastern Daylight Time)","523927","Untrustworthy,Trustworthy","html-keyboard-response","219","286618","0.0-19.0-1.27","","398","","<div class='trialDiv'><img src='trustrating_stim/white_00299_940422_fa_edt.bmp'><br><font class='baseline'><strong>Brian</strong><p>Choose number of points to send.</font><div class='respPicDiv'><img src='img/responseButtonOffersNo0L.png' class='respPic'></div></div>","3","10","Brian","7","Shared","0.65,0.2","14","0.65","trustrating_stim/white_00299_940422_fa_edt.bmp","3","143","28"
"","","","decisionFB","6162341a644c08d5cca4b7bb","bdp_trlrn","Sun Mar 12 2023 17:19:10 GMT-0400 (Eastern Daylight Time)","523927","Untrustworthy,Trustworthy","html-keyboard-response","220","286870","0.0-19.0-2.27","","null","","<div class='trialDiv'><img src='trustrating_stim/white_00299_940422_fa_edt.bmp'><br><font class='baseline'><strong>Brian</strong><p>Choose number of points to send.</font><div class='respPicDiv'><img src='img/responseButtonOffersNo0L3.png' class='respPic'></div></div>","null","10","Brian","7","Shared","0.65,0.2","14","0.65","trustrating_stim/white_00299_940422_fa_edt.bmp","3","140","28"
