"trial_type","trial_index","time_elapsed","internal_node_id","subject_id","task","startTime","totalTime","labels","event","trial","time","trialtype","numBlurs","view_history","rt","success","stimulus","key_press","aground","name","faceID","outcome","agenttype","agentswpt","agentcurrpshare","face","avgRating","point_total","round"
"pavlovia","0","13","0.0-0.0","633fa968afc8d3d2c0d8745c","bdp_trlrn","Sat Mar 11 2023 02:38:16 GMT-0700 (Mountain Standard Time)","995756","Trustworthy,Untrustworthy","","","","","","","","","","","","","","","","","","","","",""
"","","","","633fa968afc8d3d2c0d8745c","bdp_trlrn","Sat Mar 11 2023 02:38:16 GMT-0700 (Mountain Standard Time)","995756","Trustworthy,Untrustworthy","blur","1","22742","blurevent","1","","","","","","","","","","","","","","","",""
"","","","","633fa968afc8d3d2c0d8745c","bdp_trlrn","Sat Mar 11 2023 02:38:16 GMT-0700 (Mountain Standard Time)","995756","Trustworthy,Untrustworthy","focus","1","36570","focusevent","","","","","","","","","","","","","","","","",""
"instructions","1","51959","0.0-1.0","633fa968afc8d3d2c0d8745c","bdp_trlrn","Sat Mar 11 2023 02:38:16 GMT-0700 (Mountain Standard Time)","995756","Trustworthy,Untrustworthy","","","","","","[{""page_index"":0,""viewing_time"":51944}]","51944","","","","","","","","","","","","","",""
"","","","","633fa968afc8d3d2c0d8745c","bdp_trlrn","Sat Mar 11 2023 02:38:16 GMT-0700 (Mountain Standard Time)","995756","Trustworthy,Untrustworthy","fullscreenenter","2","55619","fullscreenenter","","","","","","","","","","","","","","","","",""
"fullscreen","2","56576","0.0-2.0","633fa968afc8d3d2c0d8745c","bdp_trlrn","Sat Mar 11 2023 02:38:16 GMT-0700 (Mountain Standard Time)","995756","Trustworthy,Untrustworthy","","","","","","","","true","","","","","","","","","","","","",""
"instructions","3","106707","0.0-4.0","633fa968afc8d3d2c0d8745c","bdp_trlrn","Sat Mar 11 2023 02:38:16 GMT-0700 (Mountain Standard Time)","995756","Trustworthy,Untrustworthy","","","","","","[{""page_index"":0,""viewing_time"":17745},{""page_index"":1,""viewing_time"":32383}]","50129","","","","","","","","","","","","","",""
"instructions","4","112480","0.0-5.0","633fa968afc8d3d2c0d8745c","bdp_trlrn","Sat Mar 11 2023 02:38:16 GMT-0700 (Mountain Standard Time)","995756","Trustworthy,Untrustworthy","","","","","","[{""page_index"":0,""viewing_time"":5771}]","5771","","","","","","","","","","","","","",""
"image-keyboard-response","5","118419","0.0-6.0-1.0","633fa968afc8d3d2c0d8745c","bdp_trlrn","Sat Mar 11 2023 02:38:16 GMT-0700 (Mountain Standard Time)","995756","Trustworthy,Untrustworthy","","","","rating","","","5825","","trustrating_stim/white_00120_931230_fa_edt.bmp","5","","","","","","","","","","",""
"image-keyboard-response","6","118626","0.0-6.0-2.0","633fa968afc8d3d2c0d8745c","bdp_trlrn","Sat Mar 11 2023 02:38:16 GMT-0700 (Mountain Standard Time)","995756","Trustworthy,Untrustworthy","","","","ratingFB","","","null","","trustrating_stim/white_00120_931230_fa_edt.bmp","null","","","","","","","","","","",""
"image-keyboard-response","7","120916","0.0-6.0-1.1","633fa968afc8d3d2c0d8745c","bdp_trlrn","Sat Mar 11 2023 02:38:16 GMT-0700 (Mountain Standard Time)","995756","Trustworthy,Untrustworthy","","","","rating","","","2182","","trustrating_stim/white_00602_940928_fb_edt.bmp","6","","","","","","","","","","",""
"image-keyboard-response","8","121122","0.0-6.0-2.1","633fa968afc8d3d2c0d8745c","bdp_trlrn","Sat Mar 11 2023 02:38:16 GMT-0700 (Mountain Standard Time)","995756","Trustworthy,Untrustworthy","","","","ratingFB","","","null","","trustrating_stim/white_00602_940928_fb_edt.bmp","null","","","","","","","","","","",""
"image-keyboard-response","9","123141","0.0-6.0-1.2","633fa968afc8d3d2c0d8745c","bdp_trlrn","Sat Mar 11 2023 02:38:16 GMT-0700 (Mountain Standard Time)","995756","Trustworthy,Untrustworthy","","","","rating","","","1908","","trustrating_stim/white_00340_940422_fa_edt.bmp","1","","","","","","","","","","",""
"image-keyboard-response","10","123343","0.0-6.0-2.2","633fa968afc8d3d2c0d8745c","bdp_trlrn","Sat Mar 11 2023 02:38:16 GMT-0700 (Mountain Standard Time)","995756","Trustworthy,Untrustworthy","","","","ratingFB","","","null","","trustrating_stim/white_00340_940422_fa_edt.bmp","null","","","","","","","","","","",""
"image-keyboard-response","11","124893","0.0-6.0-1.3","633fa968afc8d3d2c0d8745c","bdp_trlrn","Sat Mar 11 2023 02:38:16 GMT-0700 (Mountain Standard Time)","995756","Trustworthy,Untrustworthy","","","","rating","","","1440","","trustrating_stim/white_00659_941121_fa_edt.bmp","2","","","","","","","","","","",""
"image-keyboard-response","12","125103","0.0-6.0-2.3","633fa968afc8d3d2c0d8745c","bdp_trlrn","Sat Mar 11 2023 02:38:16 GMT-0700 (Mountain Standard Time)","995756","Trustworthy,Untrustworthy","","","","ratingFB","","","null","","trustrating_stim/white_00659_941121_fa_edt.bmp","null","","","","","","","","","","",""
"image-keyboard-response","13","127037","0.0-6.0-1.4","633fa968afc8d3d2c0d8745c","bdp_trlrn","Sat Mar 11 2023 02:38:16 GMT-0700 (Mountain Standard Time)","995756","Trustworthy,Untrustworthy","","","","rating","","","1823","","trustrating_stim/white_00577_940928_fa_edt.bmp","4","","","","","","","","","","",""
"image-keyboard-response","14","127250","0.0-6.0-2.4","633fa968afc8d3d2c0d8745c","bdp_trlrn","Sat Mar 11 2023 02:38:16 GMT-0700 (Mountain Standard Time)","995756","Trustworthy,Untrustworthy","","","","ratingFB","","","null","","trustrating_stim/white_00577_940928_fa_edt.bmp","null","","","","","","","","","","",""
"image-keyboard-response","15","129015","0.0-6.0-1.5","633fa968afc8d3d2c0d8745c","bdp_trlrn","Sat Mar 11 2023 02:38:16 GMT-0700 (Mountain Standard Time)","995756","Trustworthy,Untrustworthy","","","","rating","","","1664","","trustrating_stim/white_mw063.bmp","5","","","","","","","","","","",""
"image-keyboard-response","16","129219","0.0-6.0-2.5","633fa968afc8d3d2c0d8745c","bdp_trlrn","Sat Mar 11 2023 02:38:16 GMT-0700 (Mountain Standard Time)","995756","Trustworthy,Untrustworthy","","","","ratingFB","","","null","","trustrating_stim/white_mw063.bmp","null","","","","","","","","","","",""
"image-keyboard-response","17","131068","0.0-6.0-1.6","633fa968afc8d3d2c0d8745c","bdp_trlrn","Sat Mar 11 2023 02:38:16 GMT-0700 (Mountain Standard Time)","995756","Trustworthy,Untrustworthy","","","","rating","","","1739","","trustrating_stim/white_mw035.bmp","7","","","","","","","","","","",""
"image-keyboard-response","18","131281","0.0-6.0-2.6","633fa968afc8d3d2c0d8745c","bdp_trlrn","Sat Mar 11 2023 02:38:16 GMT-0700 (Mountain Standard Time)","995756","Trustworthy,Untrustworthy","","","","ratingFB","","","null","","trustrating_stim/white_mw035.bmp","null","","","","","","","","","","",""
"image-keyboard-response","19","132883","0.0-6.0-1.7","633fa968afc8d3d2c0d8745c","bdp_trlrn","Sat Mar 11 2023 02:38:16 GMT-0700 (Mountain Standard Time)","995756","Trustworthy,Untrustworthy","","","","rating","","","1493","","trustrating_stim/white_00757_941201_fa_edt.bmp","2","","","","","","","","","","",""
"image-keyboard-response","20","133097","0.0-6.0-2.7","633fa968afc8d3d2c0d8745c","bdp_trlrn","Sat Mar 11 2023 02:38:16 GMT-0700 (Mountain Standard Time)","995756","Trustworthy,Untrustworthy","","","","ratingFB","","","null","","trustrating_stim/white_00757_941201_fa_edt.bmp","null","","","","","","","","","","",""
"image-keyboard-response","21","134585","0.0-6.0-1.8","633fa968afc8d3d2c0d8745c","bdp_trlrn","Sat Mar 11 2023 02:38:16 GMT-0700 (Mountain Standard Time)","995756","Trustworthy,Untrustworthy","","","","rating","","","1385","","trustrating_stim/white_mw099.bmp","8","","","","","","","","","","",""
"image-keyboard-response","22","134792","0.0-6.0-2.8","633fa968afc8d3d2c0d8745c","bdp_trlrn","Sat Mar 11 2023 02:38:16 GMT-0700 (Mountain Standard Time)","995756","Trustworthy,Untrustworthy","","","","ratingFB","","","null","","trustrating_stim/white_mw099.bmp","null","","","","","","","","","","",""
"image-keyboard-response","23","136502","0.0-6.0-1.9","633fa968afc8d3d2c0d8745c","bdp_trlrn","Sat Mar 11 2023 02:38:16 GMT-0700 (Mountain Standard Time)","995756","Trustworthy,Untrustworthy","","","","rating","","","1606","","trustrating_stim/white_mw071.bmp","3","","","","","","","","","","",""
"image-keyboard-response","24","136713","0.0-6.0-2.9","633fa968afc8d3d2c0d8745c","bdp_trlrn","Sat Mar 11 2023 02:38:16 GMT-0700 (Mountain Standard Time)","995756","Trustworthy,Untrustworthy","","","","ratingFB","","","null","","trustrating_stim/white_mw071.bmp","null","","","","","","","","","","",""
"image-keyboard-response","25","138145","0.0-6.0-1.10","633fa968afc8d3d2c0d8745c","bdp_trlrn","Sat Mar 11 2023 02:38:16 GMT-0700 (Mountain Standard Time)","995756","Trustworthy,Untrustworthy","","","","rating","","","1325","","trustrating_stim/white_mw033.bmp","7","","","","","","","","","","",""
"image-keyboard-response","26","138356","0.0-6.0-2.10","633fa968afc8d3d2c0d8745c","bdp_trlrn","Sat Mar 11 2023 02:38:16 GMT-0700 (Mountain Standard Time)","995756","Trustworthy,Untrustworthy","","","","ratingFB","","","null","","trustrating_stim/white_mw033.bmp","null","","","","","","","","","","",""
"image-keyboard-response","27","140636","0.0-6.0-1.11","633fa968afc8d3d2c0d8745c","bdp_trlrn","Sat Mar 11 2023 02:38:16 GMT-0700 (Mountain Standard Time)","995756","Trustworthy,Untrustworthy","","","","rating","","","2171","","trustrating_stim/white_00129_931230_fb_edt.bmp","8","","","","","","","","","","",""
"image-keyboard-response","28","140852","0.0-6.0-2.11","633fa968afc8d3d2c0d8745c","bdp_trlrn","Sat Mar 11 2023 02:38:16 GMT-0700 (Mountain Standard Time)","995756","Trustworthy,Untrustworthy","","","","ratingFB","","","null","","trustrating_stim/white_00129_931230_fb_edt.bmp","null","","","","","","","","","","",""
"image-keyboard-response","29","142602","0.0-6.0-1.12","633fa968afc8d3d2c0d8745c","bdp_trlrn","Sat Mar 11 2023 02:38:16 GMT-0700 (Mountain Standard Time)","995756","Trustworthy,Untrustworthy","","","","rating","","","1642","","trustrating_stim/white_mw097.bmp","3","","","","","","","","","","",""
"image-keyboard-response","30","142805","0.0-6.0-2.12","633fa968afc8d3d2c0d8745c","bdp_trlrn","Sat Mar 11 2023 02:38:16 GMT-0700 (Mountain Standard Time)","995756","Trustworthy,Untrustworthy","","","","ratingFB","","","null","","trustrating_stim/white_mw097.bmp","null","","","","","","","","","","",""
"image-keyboard-response","31","144799","0.0-6.0-1.13","633fa968afc8d3d2c0d8745c","bdp_trlrn","Sat Mar 11 2023 02:38:16 GMT-0700 (Mountain Standard Time)","995756","Trustworthy,Untrustworthy","","","","rating","","","1884","","trustrating_stim/white_mw053.bmp","8","","","","","","","","","","",""
"image-keyboard-response","32","145008","0.0-6.0-2.13","633fa968afc8d3d2c0d8745c","bdp_trlrn","Sat Mar 11 2023 02:38:16 GMT-0700 (Mountain Standard Time)","995756","Trustworthy,Untrustworthy","","","","ratingFB","","","null","","trustrating_stim/white_mw053.bmp","null","","","","","","","","","","",""
"image-keyboard-response","33","146688","0.0-6.0-1.14","633fa968afc8d3d2c0d8745c","bdp_trlrn","Sat Mar 11 2023 02:38:16 GMT-0700 (Mountain Standard Time)","995756","Trustworthy,Untrustworthy","","","","rating","","","1569","","trustrating_stim/white_00299_940422_fa_edt.bmp","3","","","","","","","","","","",""
"image-keyboard-response","34","146903","0.0-6.0-2.14","633fa968afc8d3d2c0d8745c","bdp_trlrn","Sat Mar 11 2023 02:38:16 GMT-0700 (Mountain Standard Time)","995756","Trustworthy,Untrustworthy","","","","ratingFB","","","null","","trustrating_stim/white_00299_940422_fa_edt.bmp","null","","","","","","","","","","",""
"image-keyboard-response","35","148438","0.0-6.0-1.15","633fa968afc8d3d2c0d8745c","bdp_trlrn","Sat Mar 11 2023 02:38:16 GMT-0700 (Mountain Standard Time)","995756","Trustworthy,Untrustworthy","","","","rating","","","1425","","trustrating_stim/white_00785_941205_fb_edt.bmp","2","","","","","","","","","","",""
"image-keyboard-response","36","148651","0.0-6.0-2.15","633fa968afc8d3d2c0d8745c","bdp_trlrn","Sat Mar 11 2023 02:38:16 GMT-0700 (Mountain Standard Time)","995756","Trustworthy,Untrustworthy","","","","ratingFB","","","null","","trustrating_stim/white_00785_941205_fb_edt.bmp","null","","","","","","","","","","",""
"image-keyboard-response","37","150274","0.0-6.0-1.16","633fa968afc8d3d2c0d8745c","bdp_trlrn","Sat Mar 11 2023 02:38:16 GMT-0700 (Mountain Standard Time)","995756","Trustworthy,Untrustworthy","","","","rating","","","1515","","trustrating_stim/white_00761_941201_fb_edt.bmp","9","","","","","","","","","","",""
"image-keyboard-response","38","150481","0.0-6.0-2.16","633fa968afc8d3d2c0d8745c","bdp_trlrn","Sat Mar 11 2023 02:38:16 GMT-0700 (Mountain Standard Time)","995756","Trustworthy,Untrustworthy","","","","ratingFB","","","null","","trustrating_stim/white_00761_941201_fb_edt.bmp","null","","","","","","","","","","",""
"image-keyboard-response","39","152552","0.0-6.0-1.17","633fa968afc8d3d2c0d8745c","bdp_trlrn","Sat Mar 11 2023 02:38:16 GMT-0700 (Mountain Standard Time)","995756","Trustworthy,Untrustworthy","","","","rating","","","1963","","trustrating_stim/white_00898_960530_fa_edt.bmp","4","","","","","","","","","","",""
"image-keyboard-response","40","152760","0.0-6.0-2.17","633fa968afc8d3d2c0d8745c","bdp_trlrn","Sat Mar 11 2023 02:38:16 GMT-0700 (Mountain Standard Time)","995756","Trustworthy,Untrustworthy","","","","ratingFB","","","null","","trustrating_stim/white_00898_960530_fa_edt.bmp","null","","","","","","","","","","",""
"image-keyboard-response","41","154271","0.0-6.0-1.18","633fa968afc8d3d2c0d8745c","bdp_trlrn","Sat Mar 11 2023 02:38:16 GMT-0700 (Mountain Standard Time)","995756","Trustworthy,Untrustworthy","","","","rating","","","1401","","trustrating_stim/white_00519_940519_fb_edt.bmp","7","","","","","","","","","","",""
"image-keyboard-response","42","154477","0.0-6.0-2.18","633fa968afc8d3d2c0d8745c","bdp_trlrn","Sat Mar 11 2023 02:38:16 GMT-0700 (Mountain Standard Time)","995756","Trustworthy,Untrustworthy","","","","ratingFB","","","null","","trustrating_stim/white_00519_940519_fb_edt.bmp","null","","","","","","","","","","",""
"image-keyboard-response","43","156197","0.0-6.0-1.19","633fa968afc8d3d2c0d8745c","bdp_trlrn","Sat Mar 11 2023 02:38:16 GMT-0700 (Mountain Standard Time)","995756","Trustworthy,Untrustworthy","","","","rating","","","1612","","trustrating_stim/white_mw089.bmp","2","","","","","","","","","","",""
"image-keyboard-response","44","156414","0.0-6.0-2.19","633fa968afc8d3d2c0d8745c","bdp_trlrn","Sat Mar 11 2023 02:38:16 GMT-0700 (Mountain Standard Time)","995756","Trustworthy,Untrustworthy","","","","ratingFB","","","null","","trustrating_stim/white_mw089.bmp","null","","","","","","","","","","",""
"image-keyboard-response","45","157873","0.0-6.0-1.20","633fa968afc8d3d2c0d8745c","bdp_trlrn","Sat Mar 11 2023 02:38:16 GMT-0700 (Mountain Standard Time)","995756","Trustworthy,Untrustworthy","","","","rating","","","1349","","trustrating_stim/white_mw056.bmp","4","","","","","","","","","","",""
"image-keyboard-response","46","158089","0.0-6.0-2.20","633fa968afc8d3d2c0d8745c","bdp_trlrn","Sat Mar 11 2023 02:38:16 GMT-0700 (Mountain Standard Time)","995756","Trustworthy,Untrustworthy","","","","ratingFB","","","null","","trustrating_stim/white_mw056.bmp","null","","","","","","","","","","",""
"image-keyboard-response","47","159855","0.0-6.0-1.21","633fa968afc8d3d2c0d8745c","bdp_trlrn","Sat Mar 11 2023 02:38:16 GMT-0700 (Mountain Standard Time)","995756","Trustworthy,Untrustworthy","","","","rating","","","1657","","trustrating_stim/white_mw066.bmp","5","","","","","","","","","","",""
"image-keyboard-response","48","160071","0.0-6.0-2.21","633fa968afc8d3d2c0d8745c","bdp_trlrn","Sat Mar 11 2023 02:38:16 GMT-0700 (Mountain Standard Time)","995756","Trustworthy,Untrustworthy","","","","ratingFB","","","null","","trustrating_stim/white_mw066.bmp","null","","","","","","","","","","",""
"image-keyboard-response","49","161720","0.0-6.0-1.22","633fa968afc8d3d2c0d8745c","bdp_trlrn","Sat Mar 11 2023 02:38:16 GMT-0700 (Mountain Standard Time)","995756","Trustworthy,Untrustworthy","","","","rating","","","1541","","trustrating_stim/white_mw084.bmp","8","","","","","","","","","","",""
"image-keyboard-response","50","161931","0.0-6.0-2.22","633fa968afc8d3d2c0d8745c","bdp_trlrn","Sat Mar 11 2023 02:38:16 GMT-0700 (Mountain Standard Time)","995756","Trustworthy,Untrustworthy","","","","ratingFB","","","null","","trustrating_stim/white_mw084.bmp","null","","","","","","","","","","",""
"image-keyboard-response","51","163390","0.0-6.0-1.23","633fa968afc8d3d2c0d8745c","bdp_trlrn","Sat Mar 11 2023 02:38:16 GMT-0700 (Mountain Standard Time)","995756","Trustworthy,Untrustworthy","","","","rating","","","1351","","trustrating_stim/white_mw048.bmp","3","","","","","","","","","","",""
"image-keyboard-response","52","163601","0.0-6.0-2.23","633fa968afc8d3d2c0d8745c","bdp_trlrn","Sat Mar 11 2023 02:38:16 GMT-0700 (Mountain Standard Time)","995756","Trustworthy,Untrustworthy","","","","ratingFB","","","null","","trustrating_stim/white_mw048.bmp","null","","","","","","","","","","",""
"image-keyboard-response","53","165011","0.0-6.0-1.24","633fa968afc8d3d2c0d8745c","bdp_trlrn","Sat Mar 11 2023 02:38:16 GMT-0700 (Mountain Standard Time)","995756","Trustworthy,Untrustworthy","","","","rating","","","1301","","trustrating_stim/white_00223_940128_fb_edt.bmp","9","","","","","","","","","","",""
"image-keyboard-response","54","165215","0.0-6.0-2.24","633fa968afc8d3d2c0d8745c","bdp_trlrn","Sat Mar 11 2023 02:38:16 GMT-0700 (Mountain Standard Time)","995756","Trustworthy,Untrustworthy","","","","ratingFB","","","null","","trustrating_stim/white_00223_940128_fb_edt.bmp","null","","","","","","","","","","",""
"image-keyboard-response","55","166544","0.0-6.0-1.25","633fa968afc8d3d2c0d8745c","bdp_trlrn","Sat Mar 11 2023 02:38:16 GMT-0700 (Mountain Standard Time)","995756","Trustworthy,Untrustworthy","","","","rating","","","1220","","trustrating_stim/white_00109_931230_fa_edt.bmp","9","","","","","","","","","","",""
"image-keyboard-response","56","166750","0.0-6.0-2.25","633fa968afc8d3d2c0d8745c","bdp_trlrn","Sat Mar 11 2023 02:38:16 GMT-0700 (Mountain Standard Time)","995756","Trustworthy,Untrustworthy","","","","ratingFB","","","null","","trustrating_stim/white_00109_931230_fa_edt.bmp","null","","","","","","","","","","",""
"image-keyboard-response","57","168365","0.0-6.0-1.26","633fa968afc8d3d2c0d8745c","bdp_trlrn","Sat Mar 11 2023 02:38:16 GMT-0700 (Mountain Standard Time)","995756","Trustworthy,Untrustworthy","","","","rating","","","1507","","trustrating_stim/white_mw060.bmp","5","","","","","","","","","","",""
"image-keyboard-response","58","168580","0.0-6.0-2.26","633fa968afc8d3d2c0d8745c","bdp_trlrn","Sat Mar 11 2023 02:38:16 GMT-0700 (Mountain Standard Time)","995756","Trustworthy,Untrustworthy","","","","ratingFB","","","null","","trustrating_stim/white_mw060.bmp","null","","","","","","","","","","",""
"image-keyboard-response","59","169949","0.0-6.0-1.27","633fa968afc8d3d2c0d8745c","bdp_trlrn","Sat Mar 11 2023 02:38:16 GMT-0700 (Mountain Standard Time)","995756","Trustworthy,Untrustworthy","","","","rating","","","1267","","trustrating_stim/white_mw046.bmp","7","","","","","","","","","","",""
"image-keyboard-response","60","170160","0.0-6.0-2.27","633fa968afc8d3d2c0d8745c","bdp_trlrn","Sat Mar 11 2023 02:38:16 GMT-0700 (Mountain Standard Time)","995756","Trustworthy,Untrustworthy","","","","ratingFB","","","null","","trustrating_stim/white_mw046.bmp","null","","","","","","","","","","",""
"image-keyboard-response","61","171591","0.0-6.0-1.28","633fa968afc8d3d2c0d8745c","bdp_trlrn","Sat Mar 11 2023 02:38:16 GMT-0700 (Mountain Standard Time)","995756","Trustworthy,Untrustworthy","","","","rating","","","1321","","trustrating_stim/white_mw049.bmp","8","","","","","","","","","","",""
"image-keyboard-response","62","171804","0.0-6.0-2.28","633fa968afc8d3d2c0d8745c","bdp_trlrn","Sat Mar 11 2023 02:38:16 GMT-0700 (Mountain Standard Time)","995756","Trustworthy,Untrustworthy","","","","ratingFB","","","null","","trustrating_stim/white_mw049.bmp","null","","","","","","","","","","",""
"image-keyboard-response","63","173184","0.0-6.0-1.29","633fa968afc8d3d2c0d8745c","bdp_trlrn","Sat Mar 11 2023 02:38:16 GMT-0700 (Mountain Standard Time)","995756","Trustworthy,Untrustworthy","","","","rating","","","1271","","trustrating_stim/white_00807_941205_fb_edt.bmp","3","","","","","","","","","","",""
"image-keyboard-response","64","173402","0.0-6.0-2.29","633fa968afc8d3d2c0d8745c","bdp_trlrn","Sat Mar 11 2023 02:38:16 GMT-0700 (Mountain Standard Time)","995756","Trustworthy,Untrustworthy","","","","ratingFB","","","null","","trustrating_stim/white_00807_941205_fb_edt.bmp","null","","","","","","","","","","",""
"image-keyboard-response","65","175027","0.0-6.0-1.30","633fa968afc8d3d2c0d8745c","bdp_trlrn","Sat Mar 11 2023 02:38:16 GMT-0700 (Mountain Standard Time)","995756","Trustworthy,Untrustworthy","","","","rating","","","1521","","trustrating_stim/white_00602_940928_fb_edt.bmp","2","","","","","","","","","","",""
"image-keyboard-response","66","175242","0.0-6.0-2.30","633fa968afc8d3d2c0d8745c","bdp_trlrn","Sat Mar 11 2023 02:38:16 GMT-0700 (Mountain Standard Time)","995756","Trustworthy,Untrustworthy","","","","ratingFB","","","null","","trustrating_stim/white_00602_940928_fb_edt.bmp","null","","","","","","","","","","",""
"image-keyboard-response","67","177358","0.0-6.0-1.31","633fa968afc8d3d2c0d8745c","bdp_trlrn","Sat Mar 11 2023 02:38:16 GMT-0700 (Mountain Standard Time)","995756","Trustworthy,Untrustworthy","","","","rating","","","2006","","trustrating_stim/white_00120_931230_fa_edt.bmp","7","","","","","","","","","","",""
"image-keyboard-response","68","177567","0.0-6.0-2.31","633fa968afc8d3d2c0d8745c","bdp_trlrn","Sat Mar 11 2023 02:38:16 GMT-0700 (Mountain Standard Time)","995756","Trustworthy,Untrustworthy","","","","ratingFB","","","null","","trustrating_stim/white_00120_931230_fa_edt.bmp","null","","","","","","","","","","",""
"image-keyboard-response","69","179154","0.0-6.0-1.32","633fa968afc8d3d2c0d8745c","bdp_trlrn","Sat Mar 11 2023 02:38:16 GMT-0700 (Mountain Standard Time)","995756","Trustworthy,Untrustworthy","","","","rating","","","1483","","trustrating_stim/white_mw033.bmp","6","","","","","","","","","","",""
"image-keyboard-response","70","179366","0.0-6.0-2.32","633fa968afc8d3d2c0d8745c","bdp_trlrn","Sat Mar 11 2023 02:38:16 GMT-0700 (Mountain Standard Time)","995756","Trustworthy,Untrustworthy","","","","ratingFB","","","null","","trustrating_stim/white_mw033.bmp","null","","","","","","","","","","",""
"image-keyboard-response","71","181002","0.0-6.0-1.33","633fa968afc8d3d2c0d8745c","bdp_trlrn","Sat Mar 11 2023 02:38:16 GMT-0700 (Mountain Standard Time)","995756","Trustworthy,Untrustworthy","","","","rating","","","1529","","trustrating_stim/white_mw048.bmp","4","","","","","","","","","","",""
"image-keyboard-response","72","181207","0.0-6.0-2.33","633fa968afc8d3d2c0d8745c","bdp_trlrn","Sat Mar 11 2023 02:38:16 GMT-0700 (Mountain Standard Time)","995756","Trustworthy,Untrustworthy","","","","ratingFB","","","null","","trustrating_stim/white_mw048.bmp","null","","","","","","","","","","",""
"image-keyboard-response","73","182649","0.0-6.0-1.34","633fa968afc8d3d2c0d8745c","bdp_trlrn","Sat Mar 11 2023 02:38:16 GMT-0700 (Mountain Standard Time)","995756","Trustworthy,Untrustworthy","","","","rating","","","1338","","trustrating_stim/white_mw053.bmp","8","","","","","","","","","","",""
"image-keyboard-response","74","182866","0.0-6.0-2.34","633fa968afc8d3d2c0d8745c","bdp_trlrn","Sat Mar 11 2023 02:38:16 GMT-0700 (Mountain Standard Time)","995756","Trustworthy,Untrustworthy","","","","ratingFB","","","null","","trustrating_stim/white_mw053.bmp","null","","","","","","","","","","",""
"image-keyboard-response","75","184639","0.0-6.0-1.35","633fa968afc8d3d2c0d8745c","bdp_trlrn","Sat Mar 11 2023 02:38:16 GMT-0700 (Mountain Standard Time)","995756","Trustworthy,Untrustworthy","","","","rating","","","1664","","trustrating_stim/white_00340_940422_fa_edt.bmp","1","","","","","","","","","","",""
"image-keyboard-response","76","184845","0.0-6.0-2.35","633fa968afc8d3d2c0d8745c","bdp_trlrn","Sat Mar 11 2023 02:38:16 GMT-0700 (Mountain Standard Time)","995756","Trustworthy,Untrustworthy","","","","ratingFB","","","null","","trustrating_stim/white_00340_940422_fa_edt.bmp","null","","","","","","","","","","",""
"image-keyboard-response","77","186507","0.0-6.0-1.36","633fa968afc8d3d2c0d8745c","bdp_trlrn","Sat Mar 11 2023 02:38:16 GMT-0700 (Mountain Standard Time)","995756","Trustworthy,Untrustworthy","","","","rating","","","1558","","trustrating_stim/white_00898_960530_fa_edt.bmp","5","","","","","","","","","","",""
"image-keyboard-response","78","186720","0.0-6.0-2.36","633fa968afc8d3d2c0d8745c","bdp_trlrn","Sat Mar 11 2023 02:38:16 GMT-0700 (Mountain Standard Time)","995756","Trustworthy,Untrustworthy","","","","ratingFB","","","null","","trustrating_stim/white_00898_960530_fa_edt.bmp","null","","","","","","","","","","",""
"image-keyboard-response","79","188639","0.0-6.0-1.37","633fa968afc8d3d2c0d8745c","bdp_trlrn","Sat Mar 11 2023 02:38:16 GMT-0700 (Mountain Standard Time)","995756","Trustworthy,Untrustworthy","","","","rating","","","1815","","trustrating_stim/white_mw089.bmp","2","","","","","","","","","","",""
"image-keyboard-response","80","188845","0.0-6.0-2.37","633fa968afc8d3d2c0d8745c","bdp_trlrn","Sat Mar 11 2023 02:38:16 GMT-0700 (Mountain Standard Time)","995756","Trustworthy,Untrustworthy","","","","ratingFB","","","null","","trustrating_stim/white_mw089.bmp","null","","","","","","","","","","",""
"image-keyboard-response","81","190447","0.0-6.0-1.38","633fa968afc8d3d2c0d8745c","bdp_trlrn","Sat Mar 11 2023 02:38:16 GMT-0700 (Mountain Standard Time)","995756","Trustworthy,Untrustworthy","","","","rating","","","1498","","trustrating_stim/white_mw035.bmp","7","","","","","","","","","","",""
"image-keyboard-response","82","190659","0.0-6.0-2.38","633fa968afc8d3d2c0d8745c","bdp_trlrn","Sat Mar 11 2023 02:38:16 GMT-0700 (Mountain Standard Time)","995756","Trustworthy,Untrustworthy","","","","ratingFB","","","null","","trustrating_stim/white_mw035.bmp","null","","","","","","","","","","",""
"image-keyboard-response","83","192076","0.0-6.0-1.39","633fa968afc8d3d2c0d8745c","bdp_trlrn","Sat Mar 11 2023 02:38:16 GMT-0700 (Mountain Standard Time)","995756","Trustworthy,Untrustworthy","","","","rating","","","1307","","trustrating_stim/white_00785_941205_fb_edt.bmp","3","","","","","","","","","","",""
"image-keyboard-response","84","192286","0.0-6.0-2.39","633fa968afc8d3d2c0d8745c","bdp_trlrn","Sat Mar 11 2023 02:38:16 GMT-0700 (Mountain Standard Time)","995756","Trustworthy,Untrustworthy","","","","ratingFB","","","null","","trustrating_stim/white_00785_941205_fb_edt.bmp","null","","","","","","","","","","",""
"image-keyboard-response","85","193805","0.0-6.0-1.40","633fa968afc8d3d2c0d8745c","bdp_trlrn","Sat Mar 11 2023 02:38:16 GMT-0700 (Mountain Standard Time)","995756","Trustworthy,Untrustworthy","","","","rating","","","1410","","trustrating_stim/white_00761_941201_fb_edt.bmp","7","","","","","","","","","","",""
"image-keyboard-response","86","194020","0.0-6.0-2.40","633fa968afc8d3d2c0d8745c","bdp_trlrn","Sat Mar 11 2023 02:38:16 GMT-0700 (Mountain Standard Time)","995756","Trustworthy,Untrustworthy","","","","ratingFB","","","null","","trustrating_stim/white_00761_941201_fb_edt.bmp","null","","","","","","","","","","",""
"image-keyboard-response","87","195613","0.0-6.0-1.41","633fa968afc8d3d2c0d8745c","bdp_trlrn","Sat Mar 11 2023 02:38:16 GMT-0700 (Mountain Standard Time)","995756","Trustworthy,Untrustworthy","","","","rating","","","1483","","trustrating_stim/white_mw060.bmp","3","","","","","","","","","","",""
"image-keyboard-response","88","195824","0.0-6.0-2.41","633fa968afc8d3d2c0d8745c","bdp_trlrn","Sat Mar 11 2023 02:38:16 GMT-0700 (Mountain Standard Time)","995756","Trustworthy,Untrustworthy","","","","ratingFB","","","null","","trustrating_stim/white_mw060.bmp","null","","","","","","","","","","",""
"image-keyboard-response","89","197717","0.0-6.0-1.42","633fa968afc8d3d2c0d8745c","bdp_trlrn","Sat Mar 11 2023 02:38:16 GMT-0700 (Mountain Standard Time)","995756","Trustworthy,Untrustworthy","","","","rating","","","1782","","trustrating_stim/white_mw097.bmp","4","","","","","","","","","","",""
"image-keyboard-response","90","197919","0.0-6.0-2.42","633fa968afc8d3d2c0d8745c","bdp_trlrn","Sat Mar 11 2023 02:38:16 GMT-0700 (Mountain Standard Time)","995756","Trustworthy,Untrustworthy","","","","ratingFB","","","null","","trustrating_stim/white_mw097.bmp","null","","","","","","","","","","",""
"image-keyboard-response","91","199434","0.0-6.0-1.43","633fa968afc8d3d2c0d8745c","bdp_trlrn","Sat Mar 11 2023 02:38:16 GMT-0700 (Mountain Standard Time)","995756","Trustworthy,Untrustworthy","","","","rating","","","1405","","trustrating_stim/white_mw046.bmp","3","","","","","","","","","","",""
"image-keyboard-response","92","199642","0.0-6.0-2.43","633fa968afc8d3d2c0d8745c","bdp_trlrn","Sat Mar 11 2023 02:38:16 GMT-0700 (Mountain Standard Time)","995756","Trustworthy,Untrustworthy","","","","ratingFB","","","null","","trustrating_stim/white_mw046.bmp","null","","","","","","","","","","",""
"image-keyboard-response","93","201034","0.0-6.0-1.44","633fa968afc8d3d2c0d8745c","bdp_trlrn","Sat Mar 11 2023 02:38:16 GMT-0700 (Mountain Standard Time)","995756","Trustworthy,Untrustworthy","","","","rating","","","1281","","trustrating_stim/white_00807_941205_fb_edt.bmp","4","","","","","","","","","","",""
"image-keyboard-response","94","201242","0.0-6.0-2.44","633fa968afc8d3d2c0d8745c","bdp_trlrn","Sat Mar 11 2023 02:38:16 GMT-0700 (Mountain Standard Time)","995756","Trustworthy,Untrustworthy","","","","ratingFB","","","null","","trustrating_stim/white_00807_941205_fb_edt.bmp","null","","","","","","","","","","",""
"image-keyboard-response","95","202742","0.0-6.0-1.45","633fa968afc8d3d2c0d8745c","bdp_trlrn","Sat Mar 11 2023 02:38:16 GMT-0700 (Mountain Standard Time)","995756","Trustworthy,Untrustworthy","","","","rating","","","1392","","trustrating_stim/white_00519_940519_fb_edt.bmp","7","","","","","","","","","","",""
"image-keyboard-response","96","202947","0.0-6.0-2.45","633fa968afc8d3d2c0d8745c","bdp_trlrn","Sat Mar 11 2023 02:38:16 GMT-0700 (Mountain Standard Time)","995756","Trustworthy,Untrustworthy","","","","ratingFB","","","null","","trustrating_stim/white_00519_940519_fb_edt.bmp","null","","","","","","","","","","",""
"image-keyboard-response","97","204919","0.0-6.0-1.46","633fa968afc8d3d2c0d8745c","bdp_trlrn","Sat Mar 11 2023 02:38:16 GMT-0700 (Mountain Standard Time)","995756","Trustworthy,Untrustworthy","","","","rating","","","1869","","trustrating_stim/white_00659_941121_fa_edt.bmp","4","","","","","","","","","","",""
"image-keyboard-response","98","205130","0.0-6.0-2.46","633fa968afc8d3d2c0d8745c","bdp_trlrn","Sat Mar 11 2023 02:38:16 GMT-0700 (Mountain Standard Time)","995756","Trustworthy,Untrustworthy","","","","ratingFB","","","null","","trustrating_stim/white_00659_941121_fa_edt.bmp","null","","","","","","","","","","",""
"image-keyboard-response","99","207181","0.0-6.0-1.47","633fa968afc8d3d2c0d8745c","bdp_trlrn","Sat Mar 11 2023 02:38:16 GMT-0700 (Mountain Standard Time)","995756","Trustworthy,Untrustworthy","","","","rating","","","1940","","trustrating_stim/white_mw063.bmp","4","","","","","","","","","","",""
"image-keyboard-response","100","207391","0.0-6.0-2.47","633fa968afc8d3d2c0d8745c","bdp_trlrn","Sat Mar 11 2023 02:38:16 GMT-0700 (Mountain Standard Time)","995756","Trustworthy,Untrustworthy","","","","ratingFB","","","null","","trustrating_stim/white_mw063.bmp","null","","","","","","","","","","",""
"image-keyboard-response","101","208835","0.0-6.0-1.48","633fa968afc8d3d2c0d8745c","bdp_trlrn","Sat Mar 11 2023 02:38:16 GMT-0700 (Mountain Standard Time)","995756","Trustworthy,Untrustworthy","","","","rating","","","1335","","trustrating_stim/white_00757_941201_fa_edt.bmp","3","","","","","","","","","","",""
"image-keyboard-response","102","209049","0.0-6.0-2.48","633fa968afc8d3d2c0d8745c","bdp_trlrn","Sat Mar 11 2023 02:38:16 GMT-0700 (Mountain Standard Time)","995756","Trustworthy,Untrustworthy","","","","ratingFB","","","null","","trustrating_stim/white_00757_941201_fa_edt.bmp","null","","","","","","","","","","",""
"image-keyboard-response","103","211503","0.0-6.0-1.49","633fa968afc8d3d2c0d8745c","bdp_trlrn","Sat Mar 11 2023 02:38:16 GMT-0700 (Mountain Standard Time)","995756","Trustworthy,Untrustworthy","","","","rating","","","2344","","trustrating_stim/white_mw071.bmp","5","","","","","","","","","","",""
"image-keyboard-response","104","211709","0.0-6.0-2.49","633fa968afc8d3d2c0d8745c","bdp_trlrn","Sat Mar 11 2023 02:38:16 GMT-0700 (Mountain Standard Time)","995756","Trustworthy,Untrustworthy","","","","ratingFB","","","null","","trustrating_stim/white_mw071.bmp","null","","","","","","","","","","",""
"image-keyboard-response","105","213273","0.0-6.0-1.50","633fa968afc8d3d2c0d8745c","bdp_trlrn","Sat Mar 11 2023 02:38:16 GMT-0700 (Mountain Standard Time)","995756","Trustworthy,Untrustworthy","","","","rating","","","1454","","trustrating_stim/white_00109_931230_fa_edt.bmp","7","","","","","","","","","","",""
"image-keyboard-response","106","213476","0.0-6.0-2.50","633fa968afc8d3d2c0d8745c","bdp_trlrn","Sat Mar 11 2023 02:38:16 GMT-0700 (Mountain Standard Time)","995756","Trustworthy,Untrustworthy","","","","ratingFB","","","null","","trustrating_stim/white_00109_931230_fa_edt.bmp","null","","","","","","","","","","",""
"image-keyboard-response","107","214866","0.0-6.0-1.51","633fa968afc8d3d2c0d8745c","bdp_trlrn","Sat Mar 11 2023 02:38:16 GMT-0700 (Mountain Standard Time)","995756","Trustworthy,Untrustworthy","","","","rating","","","1280","","trustrating_stim/white_mw066.bmp","6","","","","","","","","","","",""
"image-keyboard-response","108","215075","0.0-6.0-2.51","633fa968afc8d3d2c0d8745c","bdp_trlrn","Sat Mar 11 2023 02:38:16 GMT-0700 (Mountain Standard Time)","995756","Trustworthy,Untrustworthy","","","","ratingFB","","","null","","trustrating_stim/white_mw066.bmp","null","","","","","","","","","","",""
"image-keyboard-response","109","216828","0.0-6.0-1.52","633fa968afc8d3d2c0d8745c","bdp_trlrn","Sat Mar 11 2023 02:38:16 GMT-0700 (Mountain Standard Time)","995756","Trustworthy,Untrustworthy","","","","rating","","","1645","","trustrating_stim/white_00223_940128_fb_edt.bmp","3","","","","","","","","","","",""
"image-keyboard-response","110","217046","0.0-6.0-2.52","633fa968afc8d3d2c0d8745c","bdp_trlrn","Sat Mar 11 2023 02:38:16 GMT-0700 (Mountain Standard Time)","995756","Trustworthy,Untrustworthy","","","","ratingFB","","","null","","trustrating_stim/white_00223_940128_fb_edt.bmp","null","","","","","","","","","","",""
"image-keyboard-response","111","218978","0.0-6.0-1.53","633fa968afc8d3d2c0d8745c","bdp_trlrn","Sat Mar 11 2023 02:38:16 GMT-0700 (Mountain Standard Time)","995756","Trustworthy,Untrustworthy","","","","rating","","","1823","","trustrating_stim/white_00129_931230_fb_edt.bmp","5","","","","","","","","","","",""
"image-keyboard-response","112","219186","0.0-6.0-2.53","633fa968afc8d3d2c0d8745c","bdp_trlrn","Sat Mar 11 2023 02:38:16 GMT-0700 (Mountain Standard Time)","995756","Trustworthy,Untrustworthy","","","","ratingFB","","","null","","trustrating_stim/white_00129_931230_fb_edt.bmp","null","","","","","","","","","","",""
"image-keyboard-response","113","221333","0.0-6.0-1.54","633fa968afc8d3d2c0d8745c","bdp_trlrn","Sat Mar 11 2023 02:38:16 GMT-0700 (Mountain Standard Time)","995756","Trustworthy,Untrustworthy","","","","rating","","","2038","","trustrating_stim/white_mw099.bmp","7","","","","","","","","","","",""
"image-keyboard-response","114","221545","0.0-6.0-2.54","633fa968afc8d3d2c0d8745c","bdp_trlrn","Sat Mar 11 2023 02:38:16 GMT-0700 (Mountain Standard Time)","995756","Trustworthy,Untrustworthy","","","","ratingFB","","","null","","trustrating_stim/white_mw099.bmp","null","","","","","","","","","","",""
"image-keyboard-response","115","222831","0.0-6.0-1.55","633fa968afc8d3d2c0d8745c","bdp_trlrn","Sat Mar 11 2023 02:38:16 GMT-0700 (Mountain Standard Time)","995756","Trustworthy,Untrustworthy","","","","rating","","","1178","","trustrating_stim/white_mw084.bmp","8","","","","","","","","","","",""
"image-keyboard-response","116","223044","0.0-6.0-2.55","633fa968afc8d3d2c0d8745c","bdp_trlrn","Sat Mar 11 2023 02:38:16 GMT-0700 (Mountain Standard Time)","995756","Trustworthy,Untrustworthy","","","","ratingFB","","","null","","trustrating_stim/white_mw084.bmp","null","","","","","","","","","","",""
"image-keyboard-response","117","224283","0.0-6.0-1.56","633fa968afc8d3d2c0d8745c","bdp_trlrn","Sat Mar 11 2023 02:38:16 GMT-0700 (Mountain Standard Time)","995756","Trustworthy,Untrustworthy","","","","rating","","","1136","","trustrating_stim/white_mw056.bmp","6","","","","","","","","","","",""
"image-keyboard-response","118","224497","0.0-6.0-2.56","633fa968afc8d3d2c0d8745c","bdp_trlrn","Sat Mar 11 2023 02:38:16 GMT-0700 (Mountain Standard Time)","995756","Trustworthy,Untrustworthy","","","","ratingFB","","","null","","trustrating_stim/white_mw056.bmp","null","","","","","","","","","","",""
"image-keyboard-response","119","225774","0.0-6.0-1.57","633fa968afc8d3d2c0d8745c","bdp_trlrn","Sat Mar 11 2023 02:38:16 GMT-0700 (Mountain Standard Time)","995756","Trustworthy,Untrustworthy","","","","rating","","","1169","","trustrating_stim/white_00299_940422_fa_edt.bmp","4","","","","","","","","","","",""
"image-keyboard-response","120","225988","0.0-6.0-2.57","633fa968afc8d3d2c0d8745c","bdp_trlrn","Sat Mar 11 2023 02:38:16 GMT-0700 (Mountain Standard Time)","995756","Trustworthy,Untrustworthy","","","","ratingFB","","","null","","trustrating_stim/white_00299_940422_fa_edt.bmp","null","","","","","","","","","","",""
"image-keyboard-response","121","227831","0.0-6.0-1.58","633fa968afc8d3d2c0d8745c","bdp_trlrn","Sat Mar 11 2023 02:38:16 GMT-0700 (Mountain Standard Time)","995756","Trustworthy,Untrustworthy","","","","rating","","","1734","","trustrating_stim/white_00577_940928_fa_edt.bmp","6","","","","","","","","","","",""
"image-keyboard-response","122","228033","0.0-6.0-2.58","633fa968afc8d3d2c0d8745c","bdp_trlrn","Sat Mar 11 2023 02:38:16 GMT-0700 (Mountain Standard Time)","995756","Trustworthy,Untrustworthy","","","","ratingFB","","","null","","trustrating_stim/white_00577_940928_fa_edt.bmp","null","","","","","","","","","","",""
"image-keyboard-response","123","229268","0.0-6.0-1.59","633fa968afc8d3d2c0d8745c","bdp_trlrn","Sat Mar 11 2023 02:38:16 GMT-0700 (Mountain Standard Time)","995756","Trustworthy,Untrustworthy","","","","rating","","","1126","","trustrating_stim/white_mw049.bmp","8","","","","","","","","","","",""
"image-keyboard-response","124","229475","0.0-6.0-2.59","633fa968afc8d3d2c0d8745c","bdp_trlrn","Sat Mar 11 2023 02:38:16 GMT-0700 (Mountain Standard Time)","995756","Trustworthy,Untrustworthy","","","","ratingFB","","","null","","trustrating_stim/white_mw049.bmp","null","","","","","","","","","","",""
"instructions","125","233875","0.0-7.0","633fa968afc8d3d2c0d8745c","bdp_trlrn","Sat Mar 11 2023 02:38:16 GMT-0700 (Mountain Standard Time)","995756","Trustworthy,Untrustworthy","","","","","","[{""page_index"":0,""viewing_time"":4295}]","4295","","","","","","","","","","","","","",""
"instructions","126","519854","0.0-8.0","633fa968afc8d3d2c0d8745c","bdp_trlrn","Sat Mar 11 2023 02:38:16 GMT-0700 (Mountain Standard Time)","995756","Trustworthy,Untrustworthy","","","","","","[{""page_index"":0,""viewing_time"":94731},{""page_index"":1,""viewing_time"":11145},{""page_index"":2,""viewing_time"":25760},{""page_index"":3,""viewing_time"":26880},{""page_index"":4,""viewing_time"":64041},{""page_index"":5,""viewing_time"":8436},{""page_index"":6,""viewing_time"":47145},{""page_index"":7,""viewing_time"":7735}]","285873","","","","","","","","","","","","","",""
"html-keyboard-response","127","540516","0.0-9.0","633fa968afc8d3d2c0d8745c","bdp_trlrn","Sat Mar 11 2023 02:38:16 GMT-0700 (Mountain Standard Time)","995756","Trustworthy,Untrustworthy","","","","","","","20657","","<div class='header' style='text-align:left; position: absolute; top: 5%; left: 5%;'><small>Task 2 of 5</small></div><div class='instruxDiv'><p><strong>1) What is the minimum number of points you can choose to send to your partner?</strong></p><p>a) 0</p><p>b) 1</p><p>c) 5</p>","C","","","","","","","","","","",""
"html-keyboard-response","128","547764","0.0-10.0","633fa968afc8d3d2c0d8745c","bdp_trlrn","Sat Mar 11 2023 02:38:16 GMT-0700 (Mountain Standard Time)","995756","Trustworthy,Untrustworthy","","","","","","","7129","","<div class='header' style='text-align:left; position: absolute; top: 5%; left: 5%;'><small>Task 2 of 5</small></div><div class='instruxDiv'><p><strong>1) What is the minimum number of points you can choose to send to your partner?</strong></p><p>a) 1</p><p>b) 1</p><p style='color:#FF0000'>c) 5</p><h3 style='color:#FF0000'>Incorrect!</h3><h3 class='center-content'>The correct response is b).</h3><h3 class='center-content'>The minimum number of points you can choose to send to your partner is 1 point.</h3><p><em>Press SPACEBAR to continue</em></p></div>"," ","","","","","","","","","","",""
"html-keyboard-response","129","555224","0.0-11.0","633fa968afc8d3d2c0d8745c","bdp_trlrn","Sat Mar 11 2023 02:38:16 GMT-0700 (Mountain Standard Time)","995756","Trustworthy,Untrustworthy","","","","","","","7356","","<div class='header' style='text-align:left; position: absolute; top: 5%; left: 5%;'><small>Task 2 of 5</small></div><div class='instruxDiv'><p><strong>2) What is the maximum number of points you can choose to send to your partner?</strong></p><p>a) 8</p><p>b) 5</p><p>c) 3</p>","B","","","","","","","","","","",""
"html-keyboard-response","130","557958","0.0-12.0","633fa968afc8d3d2c0d8745c","bdp_trlrn","Sat Mar 11 2023 02:38:16 GMT-0700 (Mountain Standard Time)","995756","Trustworthy,Untrustworthy","","","","","","","2622","","<div class='header' style='text-align:left; position: absolute; top: 5%; left: 5%;'><small>Task 2 of 5</small></div><div class='instruxDiv'><p><strong>2) What is the maximum number of points you can choose to send to your partner?</strong></p><p>a) 8</p><p style='color:#00FF00'>b) 5</p><p>c) 3</p><h3 style='color:#00FF00'>Correct!</h3><h3 class='center-content'>The correct response is b).</h3><h3 class='center-content'>The maximum number of points you can choose to send to your partner is 5 points.</h3><p><em>Press SPACEBAR to continue</em></p></div>"," ","","","","","","","","","","",""
"html-keyboard-response","131","563964","0.0-13.0","633fa968afc8d3d2c0d8745c","bdp_trlrn","Sat Mar 11 2023 02:38:16 GMT-0700 (Mountain Standard Time)","995756","Trustworthy,Untrustworthy","","","","","","","5889","","<div class='header' style='text-align:left; position: absolute; top: 5%; left: 5%;'><small>Task 2 of 5</small></div><div class='instruxDiv'><p><strong>3) What happens to the amount of points you send to your partner?</strong></p><p>a) Nothing</p><p>b) It doubles</p><p>c) It quadruples</p>","C","","","","","","","","","","",""
"html-keyboard-response","132","565410","0.0-14.0","633fa968afc8d3d2c0d8745c","bdp_trlrn","Sat Mar 11 2023 02:38:16 GMT-0700 (Mountain Standard Time)","995756","Trustworthy,Untrustworthy","","","","","","","1327","","<div class='header' style='text-align:left; position: absolute; top: 5%; left: 5%;'><small>Task 2 of 5</small></div><div class='instruxDiv'><p><strong>3) What happens to the amount of points you send to your partner?</strong></p><p>a) Nothing</p><p>b) It doubles</p><p style='color:#00FF00'>c) It quadruples</p><h3 style='color:#00FF00'>Correct!</h3><h3 class='center-content'>The correct response is c).</h3><h3 class='center-content'>The amount of points you send to your partner quadruples.</h3><p><em>Press SPACEBAR to continue</em></p></div>"," ","","","","","","","","","","",""
"html-keyboard-response","133","598158","0.0-15.0","633fa968afc8d3d2c0d8745c","bdp_trlrn","Sat Mar 11 2023 02:38:16 GMT-0700 (Mountain Standard Time)","995756","Trustworthy,Untrustworthy","","","","","","","32636","","<div class='header' style='text-align:left; position: absolute; top: 5%; left: 5%;'><small>Task 2 of 5</small></div><div class='instruxDiv'><p><strong>4) If you decided to share 4 out of 5 points with your partner, and they decided to share half of the amount they received with you, how many points would you receive back from them on this round?</strong></p><p>a) 16</p><p>b) 0</p><p>c) 8</p>","B","","","","","","","","","","",""
"html-keyboard-response","134","603523","0.0-16.0","633fa968afc8d3d2c0d8745c","bdp_trlrn","Sat Mar 11 2023 02:38:16 GMT-0700 (Mountain Standard Time)","995756","Trustworthy,Untrustworthy","","","","","","","5255","","<div class='header' style='text-align:left; position: absolute; top: 5%; left: 5%;'><small>Task 2 of 5</small></div><div class='instruxDiv'><p><strong>4) If you decided to share 4 out of 5 points with your partner, and they decided to share half of the amount they received with you, how many points would you receive back from them on this round?</strong></p><p>a) 16</p><p style='color:#FF0000'>b) 0</p><p>c) 8</p><h3 style='color:#FF0000'>Incorrect!</h3><h3 class='center-content'>The correct response is c).</h3><h3 class='center-content'>If you shared 4 out of 5 points with your partner and they decided to share half of the amount they received with you, you would receive 8 points back (i.e. (4 x 4)/2 = 8).</h3><p><em>Press SPACEBAR to continue</em></p></div>"," ","","","","","","","","","","",""
"html-keyboard-response","135","608631","0.0-17.0","633fa968afc8d3d2c0d8745c","bdp_trlrn","Sat Mar 11 2023 02:38:16 GMT-0700 (Mountain Standard Time)","995756","Trustworthy,Untrustworthy","","","","","","","null","","<div class='header' style='text-align:left; position: absolute; top: 5%; left: 5%;'><small>Task 2 of 5</small></div><div class='instruxDiv'><p>Thank you for completing the quiz<p>These are the actual partners you will be interacting with in the next block:<p><div class='tc' align='center'><img class='introPic' src='trustrating_stim/white_mw089.bmp'><br><strong>Tyler</strong></div><div class='bl' align='center'><img class='introPic' src='trustrating_stim/white_mw056.bmp'><br><strong>Michael</strong></div><div class='br' align='center'><img class='introPic' src='trustrating_stim/white_00761_941201_fb_edt.bmp'><br><strong>Evan</strong></div></div><p>Across <strong>66 rounds</strong> you will interact with each partner <strong>22 times</strong> (in random order).<p style='align:center; color:white'><font <em>Press SPACEBAR to continue</em></p>","null","","","","","","","","","","",""
"instructions","136","632033","0.0-18.0","633fa968afc8d3d2c0d8745c","bdp_trlrn","Sat Mar 11 2023 02:38:16 GMT-0700 (Mountain Standard Time)","995756","Trustworthy,Untrustworthy","","","","","","[{""page_index"":0,""viewing_time"":12959},{""page_index"":1,""viewing_time"":10440}]","23400","","","","","","","","","","","","","",""
"html-keyboard-response","137","641864","0.0-19.0-1.0","633fa968afc8d3d2c0d8745c","bdp_trlrn","Sat Mar 11 2023 02:38:16 GMT-0700 (Mountain Standard Time)","995756","Trustworthy,Untrustworthy","","","","decision","","","9722","","<div class='trialDiv'><img src='trustrating_stim/white_mw089.bmp'><br><font class='baseline'><strong>Tyler</strong><p>Choose number of points to send.</font><div class='respPicDiv'><img src='img/responseButtonOffersNo0L.png' class='respPic'></div></div>","3","1","Tyler","1","Shared","0.65,0.35","10","0.65","trustrating_stim/white_mw089.bmp","2","5","1"
"html-keyboard-response","138","642129","0.0-19.0-2.0","633fa968afc8d3d2c0d8745c","bdp_trlrn","Sat Mar 11 2023 02:38:16 GMT-0700 (Mountain Standard Time)","995756","Trustworthy,Untrustworthy","","","","decisionFB","","","null","","<div class='trialDiv'><img src='trustrating_stim/white_mw089.bmp'><br><font class='baseline'><strong>Tyler</strong><p>Choose number of points to send.</font><div class='respPicDiv'><img src='img/responseButtonOffersNo0L3.png' class='respPic'></div></div>","null","1","Tyler","1","Shared","0.65,0.35","10","0.65","trustrating_stim/white_mw089.bmp","2","2","1"
"html-keyboard-response","139","643149","0.0-19.0-3.0","633fa968afc8d3d2c0d8745c","bdp_trlrn","Sat Mar 11 2023 02:38:16 GMT-0700 (Mountain Standard Time)","995756","Trustworthy,Untrustworthy","","","","feedback","","","null","","<div class='trialDiv'><img src='trustrating_stim/white_mw089.bmp'><br><font class='baseline'><strong>Tyler</strong><p>Received: <strong>12</strong></font> &nbsp; &nbsp; &nbsp; &nbsp; &nbsp; &nbsp;<font class='posOutcome'>Shared back: <strong>6</strong></font></font><div class='respPicDiv'><img src='img/responseButtonOffersNo0_wht.png' class='respPic'></div></div>","null","1","Tyler","1","Shared","0.65,0.35","10","0.65","trustrating_stim/white_mw089.bmp","2","8","1"
"html-keyboard-response","140","644537","0.0-19.0-1.1","633fa968afc8d3d2c0d8745c","bdp_trlrn","Sat Mar 11 2023 02:38:16 GMT-0700 (Mountain Standard Time)","995756","Trustworthy,Untrustworthy","","","","decision","","","1384","","<div class='trialDiv'><img src='trustrating_stim/white_00761_941201_fb_edt.bmp'><br><font class='baseline'><strong>Evan</strong><p>Choose number of points to send.</font><div class='respPicDiv'><img src='img/responseButtonOffersNo0L.png' class='respPic'></div></div>","4","1","Evan","11","Kept","0.65,0.2","14","0.65","trustrating_stim/white_00761_941201_fb_edt.bmp","8","13","2"
"html-keyboard-response","141","644796","0.0-19.0-2.1","633fa968afc8d3d2c0d8745c","bdp_trlrn","Sat Mar 11 2023 02:38:16 GMT-0700 (Mountain Standard Time)","995756","Trustworthy,Untrustworthy","","","","decisionFB","","","null","","<div class='trialDiv'><img src='trustrating_stim/white_00761_941201_fb_edt.bmp'><br><font class='baseline'><strong>Evan</strong><p>Choose number of points to send.</font><div class='respPicDiv'><img src='img/responseButtonOffersNo0L4.png' class='respPic'></div></div>","null","1","Evan","11","Kept","0.65,0.2","14","0.65","trustrating_stim/white_00761_941201_fb_edt.bmp","8","9","2"
"html-keyboard-response","142","645809","0.0-19.0-3.1","633fa968afc8d3d2c0d8745c","bdp_trlrn","Sat Mar 11 2023 02:38:16 GMT-0700 (Mountain Standard Time)","995756","Trustworthy,Untrustworthy","","","","feedback","","","null","","<div class='trialDiv'><img src='trustrating_stim/white_00761_941201_fb_edt.bmp'><br><font class='baseline'><strong>Evan</strong><p>Received: <strong>16</strong></font> &nbsp; &nbsp; &nbsp; &nbsp; &nbsp; &nbsp;<font class='negOutcome'>Shared back: <strong>0</strong></font></font><div class='respPicDiv'><img src='img/responseButtonOffersNo0_wht.png' class='respPic'></div></div>","null","1","Evan","11","Kept","0.65,0.2","14","0.65","trustrating_stim/white_00761_941201_fb_edt.bmp","8","9","2"
"html-keyboard-response","143","646713","0.0-19.0-1.2","633fa968afc8d3d2c0d8745c","bdp_trlrn","Sat Mar 11 2023 02:38:16 GMT-0700 (Mountain Standard Time)","995756","Trustworthy,Untrustworthy","","","","decision","","","900","","<div class='trialDiv'><img src='trustrating_stim/white_mw056.bmp'><br><font class='baseline'><strong>Michael</strong><p>Choose number of points to send.</font><div class='respPicDiv'><img src='img/responseButtonOffersNo0L.png' class='respPic'></div></div>","2","1","Michael","6","Shared","0.2,0.65","11","0.2","trustrating_stim/white_mw056.bmp","5","14","3"
"html-keyboard-response","144","646973","0.0-19.0-2.2","633fa968afc8d3d2c0d8745c","bdp_trlrn","Sat Mar 11 2023 02:38:16 GMT-0700 (Mountain Standard Time)","995756","Trustworthy,Untrustworthy","","","","decisionFB","","","null","","<div class='trialDiv'><img src='trustrating_stim/white_mw056.bmp'><br><font class='baseline'><strong>Michael</strong><p>Choose number of points to send.</font><div class='respPicDiv'><img src='img/responseButtonOffersNo0L2.png' class='respPic'></div></div>","null","1","Michael","6","Shared","0.2,0.65","11","0.2","trustrating_stim/white_mw056.bmp","5","12","3"
"html-keyboard-response","145","647987","0.0-19.0-3.2","633fa968afc8d3d2c0d8745c","bdp_trlrn","Sat Mar 11 2023 02:38:16 GMT-0700 (Mountain Standard Time)","995756","Trustworthy,Untrustworthy","","","","feedback","","","null","","<div class='trialDiv'><img src='trustrating_stim/white_mw056.bmp'><br><font class='baseline'><strong>Michael</strong><p>Received: <strong>8</strong></font> &nbsp; &nbsp; &nbsp; &nbsp; &nbsp; &nbsp;<font class='posOutcome'>Shared back: <strong>4</strong></font></font><div class='respPicDiv'><img src='img/responseButtonOffersNo0_wht.png' class='respPic'></div></div>","null","1","Michael","6","Shared","0.2,0.65","11","0.2","trustrating_stim/white_mw056.bmp","5","16","3"
"html-keyboard-response","146","650858","0.0-19.0-1.3","633fa968afc8d3d2c0d8745c","bdp_trlrn","Sat Mar 11 2023 02:38:16 GMT-0700 (Mountain Standard Time)","995756","Trustworthy,Untrustworthy","","","","decision","","","2867","","<div class='trialDiv'><img src='trustrating_stim/white_mw089.bmp'><br><font class='baseline'><strong>Tyler</strong><p>Choose number of points to send.</font><div class='respPicDiv'><img src='img/responseButtonOffersNo0L.png' class='respPic'></div></div>","3","2","Tyler","1","Kept","0.65,0.35","10","0.65","trustrating_stim/white_mw089.bmp","2","21","4"
"html-keyboard-response","147","651114","0.0-19.0-2.3","633fa968afc8d3d2c0d8745c","bdp_trlrn","Sat Mar 11 2023 02:38:16 GMT-0700 (Mountain Standard Time)","995756","Trustworthy,Untrustworthy","","","","decisionFB","","","null","","<div class='trialDiv'><img src='trustrating_stim/white_mw089.bmp'><br><font class='baseline'><strong>Tyler</strong><p>Choose number of points to send.</font><div class='respPicDiv'><img src='img/responseButtonOffersNo0L3.png' class='respPic'></div></div>","null","2","Tyler","1","Kept","0.65,0.35","10","0.65","trustrating_stim/white_mw089.bmp","2","18","4"
"html-keyboard-response","148","652133","0.0-19.0-3.3","633fa968afc8d3d2c0d8745c","bdp_trlrn","Sat Mar 11 2023 02:38:16 GMT-0700 (Mountain Standard Time)","995756","Trustworthy,Untrustworthy","","","","feedback","","","null","","<div class='trialDiv'><img src='trustrating_stim/white_mw089.bmp'><br><font class='baseline'><strong>Tyler</strong><p>Received: <strong>12</strong></font> &nbsp; &nbsp; &nbsp; &nbsp; &nbsp; &nbsp;<font class='negOutcome'>Shared back: <strong>0</strong></font></font><div class='respPicDiv'><img src='img/responseButtonOffersNo0_wht.png' class='respPic'></div></div>","null","2","Tyler","1","Kept","0.65,0.35","10","0.65","trustrating_stim/white_mw089.bmp","2","18","4"
"html-keyboard-response","149","653482","0.0-19.0-1.4","633fa968afc8d3d2c0d8745c","bdp_trlrn","Sat Mar 11 2023 02:38:16 GMT-0700 (Mountain Standard Time)","995756","Trustworthy,Untrustworthy","","","","decision","","","1343","","<div class='trialDiv'><img src='trustrating_stim/white_mw056.bmp'><br><font class='baseline'><strong>Michael</strong><p>Choose number of points to send.</font><div class='respPicDiv'><img src='img/responseButtonOffersNo0L.png' class='respPic'></div></div>","1","2","Michael","6","Kept","0.2,0.65","11","0.2","trustrating_stim/white_mw056.bmp","5","23","5"
"html-keyboard-response","150","653745","0.0-19.0-2.4","633fa968afc8d3d2c0d8745c","bdp_trlrn","Sat Mar 11 2023 02:38:16 GMT-0700 (Mountain Standard Time)","995756","Trustworthy,Untrustworthy","","","","decisionFB","","","null","","<div class='trialDiv'><img src='trustrating_stim/white_mw056.bmp'><br><font class='baseline'><strong>Michael</strong><p>Choose number of points to send.</font><div class='respPicDiv'><img src='img/responseButtonOffersNo0L1.png' class='respPic'></div></div>","null","2","Michael","6","Kept","0.2,0.65","11","0.2","trustrating_stim/white_mw056.bmp","5","22","5"
"html-keyboard-response","151","654765","0.0-19.0-3.4","633fa968afc8d3d2c0d8745c","bdp_trlrn","Sat Mar 11 2023 02:38:16 GMT-0700 (Mountain Standard Time)","995756","Trustworthy,Untrustworthy","","","","feedback","","","null","","<div class='trialDiv'><img src='trustrating_stim/white_mw056.bmp'><br><font class='baseline'><strong>Michael</strong><p>Received: <strong>4</strong></font> &nbsp; &nbsp; &nbsp; &nbsp; &nbsp; &nbsp;<font class='negOutcome'>Shared back: <strong>0</strong></font></font><div class='respPicDiv'><img src='img/responseButtonOffersNo0_wht.png' class='respPic'></div></div>","null","2","Michael","6","Kept","0.2,0.65","11","0.2","trustrating_stim/white_mw056.bmp","5","22","5"
"html-keyboard-response","152","655803","0.0-19.0-1.5","633fa968afc8d3d2c0d8745c","bdp_trlrn","Sat Mar 11 2023 02:38:16 GMT-0700 (Mountain Standard Time)","995756","Trustworthy,Untrustworthy","","","","decision","","","1034","","<div class='trialDiv'><img src='trustrating_stim/white_00761_941201_fb_edt.bmp'><br><font class='baseline'><strong>Evan</strong><p>Choose number of points to send.</font><div class='respPicDiv'><img src='img/responseButtonOffersNo0L.png' class='respPic'></div></div>","4","2","Evan","11","Shared","0.65,0.2","14","0.65","trustrating_stim/white_00761_941201_fb_edt.bmp","8","27","6"
"html-keyboard-response","153","656064","0.0-19.0-2.5","633fa968afc8d3d2c0d8745c","bdp_trlrn","Sat Mar 11 2023 02:38:16 GMT-0700 (Mountain Standard Time)","995756","Trustworthy,Untrustworthy","","","","decisionFB","","","null","","<div class='trialDiv'><img src='trustrating_stim/white_00761_941201_fb_edt.bmp'><br><font class='baseline'><strong>Evan</strong><p>Choose number of points to send.</font><div class='respPicDiv'><img src='img/responseButtonOffersNo0L4.png' class='respPic'></div></div>","null","2","Evan","11","Shared","0.65,0.2","14","0.65","trustrating_stim/white_00761_941201_fb_edt.bmp","8","23","6"
"html-keyboard-response","154","657071","0.0-19.0-3.5","633fa968afc8d3d2c0d8745c","bdp_trlrn","Sat Mar 11 2023 02:38:16 GMT-0700 (Mountain Standard Time)","995756","Trustworthy,Untrustworthy","","","","feedback","","","null","","<div class='trialDiv'><img src='trustrating_stim/white_00761_941201_fb_edt.bmp'><br><font class='baseline'><strong>Evan</strong><p>Received: <strong>16</strong></font> &nbsp; &nbsp; &nbsp; &nbsp; &nbsp; &nbsp;<font class='posOutcome'>Shared back: <strong>8</strong></font></font><div class='respPicDiv'><img src='img/responseButtonOffersNo0_wht.png' class='respPic'></div></div>","null","2","Evan","11","Shared","0.65,0.2","14","0.65","trustrating_stim/white_00761_941201_fb_edt.bmp","8","31","6"
"html-keyboard-response","155","657645","0.0-19.0-1.6","633fa968afc8d3d2c0d8745c","bdp_trlrn","Sat Mar 11 2023 02:38:16 GMT-0700 (Mountain Standard Time)","995756","Trustworthy,Untrustworthy","","","","decision","","","571","","<div class='trialDiv'><img src='trustrating_stim/white_mw089.bmp'><br><font class='baseline'><strong>Tyler</strong><p>Choose number of points to send.</font><div class='respPicDiv'><img src='img/responseButtonOffersNo0L.png' class='respPic'></div></div>","3","3","Tyler","1","Shared","0.65,0.35","10","0.65","trustrating_stim/white_mw089.bmp","2","36","7"
"html-keyboard-response","156","657906","0.0-19.0-2.6","633fa968afc8d3d2c0d8745c","bdp_trlrn","Sat Mar 11 2023 02:38:16 GMT-0700 (Mountain Standard Time)","995756","Trustworthy,Untrustworthy","","","","decisionFB","","","null","","<div class='trialDiv'><img src='trustrating_stim/white_mw089.bmp'><br><font class='baseline'><strong>Tyler</strong><p>Choose number of points to send.</font><div class='respPicDiv'><img src='img/responseButtonOffersNo0L3.png' class='respPic'></div></div>","null","3","Tyler","1","Shared","0.65,0.35","10","0.65","trustrating_stim/white_mw089.bmp","2","33","7"
"html-keyboard-response","157","658912","0.0-19.0-3.6","633fa968afc8d3d2c0d8745c","bdp_trlrn","Sat Mar 11 2023 02:38:16 GMT-0700 (Mountain Standard Time)","995756","Trustworthy,Untrustworthy","","","","feedback","","","null","","<div class='trialDiv'><img src='trustrating_stim/white_mw089.bmp'><br><font class='baseline'><strong>Tyler</strong><p>Received: <strong>12</strong></font> &nbsp; &nbsp; &nbsp; &nbsp; &nbsp; &nbsp;<font class='posOutcome'>Shared back: <strong>6</strong></font></font><div class='respPicDiv'><img src='img/responseButtonOffersNo0_wht.png' class='respPic'></div></div>","null","3","Tyler","1","Shared","0.65,0.35","10","0.65","trustrating_stim/white_mw089.bmp","2","39","7"
"html-keyboard-response","158","659404","0.0-19.0-1.7","633fa968afc8d3d2c0d8745c","bdp_trlrn","Sat Mar 11 2023 02:38:16 GMT-0700 (Mountain Standard Time)","995756","Trustworthy,Untrustworthy","","","","decision","","","488","","<div class='trialDiv'><img src='trustrating_stim/white_mw056.bmp'><br><font class='baseline'><strong>Michael</strong><p>Choose number of points to send.</font><div class='respPicDiv'><img src='img/responseButtonOffersNo0L.png' class='respPic'></div></div>","2","3","Michael","6","Shared","0.2,0.65","11","0.2","trustrating_stim/white_mw056.bmp","5","44","8"
"html-keyboard-response","159","659671","0.0-19.0-2.7","633fa968afc8d3d2c0d8745c","bdp_trlrn","Sat Mar 11 2023 02:38:16 GMT-0700 (Mountain Standard Time)","995756","Trustworthy,Untrustworthy","","","","decisionFB","","","null","","<div class='trialDiv'><img src='trustrating_stim/white_mw056.bmp'><br><font class='baseline'><strong>Michael</strong><p>Choose number of points to send.</font><div class='respPicDiv'><img src='img/responseButtonOffersNo0L2.png' class='respPic'></div></div>","null","3","Michael","6","Shared","0.2,0.65","11","0.2","trustrating_stim/white_mw056.bmp","5","42","8"
"html-keyboard-response","160","660675","0.0-19.0-3.7","633fa968afc8d3d2c0d8745c","bdp_trlrn","Sat Mar 11 2023 02:38:16 GMT-0700 (Mountain Standard Time)","995756","Trustworthy,Untrustworthy","","","","feedback","","","null","","<div class='trialDiv'><img src='trustrating_stim/white_mw056.bmp'><br><font class='baseline'><strong>Michael</strong><p>Received: <strong>8</strong></font> &nbsp; &nbsp; &nbsp; &nbsp; &nbsp; &nbsp;<font class='posOutcome'>Shared back: <strong>4</strong></font></font><div class='respPicDiv'><img src='img/responseButtonOffersNo0_wht.png' class='respPic'></div></div>","null","3","Michael","6","Shared","0.2,0.65","11","0.2","trustrating_stim/white_mw056.bmp","5","46","8"
"html-keyboard-response","161","661206","0.0-19.0-1.8","633fa968afc8d3d2c0d8745c","bdp_trlrn","Sat Mar 11 2023 02:38:16 GMT-0700 (Mountain Standard Time)","995756","Trustworthy,Untrustworthy","","","","decision","","","527","","<div class='trialDiv'><img src='trustrating_stim/white_00761_941201_fb_edt.bmp'><br><font class='baseline'><strong>Evan</strong><p>Choose number of points to send.</font><div class='respPicDiv'><img src='img/responseButtonOffersNo0L.png' class='respPic'></div></div>","3","3","Evan","11","Shared","0.65,0.2","14","0.65","trustrating_stim/white_00761_941201_fb_edt.bmp","8","51","9"
"html-keyboard-response","162","661463","0.0-19.0-2.8","633fa968afc8d3d2c0d8745c","bdp_trlrn","Sat Mar 11 2023 02:38:16 GMT-0700 (Mountain Standard Time)","995756","Trustworthy,Untrustworthy","","","","decisionFB","","","null","","<div class='trialDiv'><img src='trustrating_stim/white_00761_941201_fb_edt.bmp'><br><font class='baseline'><strong>Evan</strong><p>Choose number of points to send.</font><div class='respPicDiv'><img src='img/responseButtonOffersNo0L3.png' class='respPic'></div></div>","null","3","Evan","11","Shared","0.65,0.2","14","0.65","trustrating_stim/white_00761_941201_fb_edt.bmp","8","48","9"
"html-keyboard-response","163","662468","0.0-19.0-3.8","633fa968afc8d3d2c0d8745c","bdp_trlrn","Sat Mar 11 2023 02:38:16 GMT-0700 (Mountain Standard Time)","995756","Trustworthy,Untrustworthy","","","","feedback","","","null","","<div class='trialDiv'><img src='trustrating_stim/white_00761_941201_fb_edt.bmp'><br><font class='baseline'><strong>Evan</strong><p>Received: <strong>12</strong></font> &nbsp; &nbsp; &nbsp; &nbsp; &nbsp; &nbsp;<font class='posOutcome'>Shared back: <strong>6</strong></font></font><div class='respPicDiv'><img src='img/responseButtonOffersNo0_wht.png' class='respPic'></div></div>","null","3","Evan","11","Shared","0.65,0.2","14","0.65","trustrating_stim/white_00761_941201_fb_edt.bmp","8","54","9"
"html-keyboard-response","164","663222","0.0-19.0-1.9","633fa968afc8d3d2c0d8745c","bdp_trlrn","Sat Mar 11 2023 02:38:16 GMT-0700 (Mountain Standard Time)","995756","Trustworthy,Untrustworthy","","","","decision","","","750","","<div class='trialDiv'><img src='trustrating_stim/white_mw056.bmp'><br><font class='baseline'><strong>Michael</strong><p>Choose number of points to send.</font><div class='respPicDiv'><img src='img/responseButtonOffersNo0L.png' class='respPic'></div></div>","4","4","Michael","6","Kept","0.2,0.65","11","0.2","trustrating_stim/white_mw056.bmp","5","59","10"
"html-keyboard-response","165","663490","0.0-19.0-2.9","633fa968afc8d3d2c0d8745c","bdp_trlrn","Sat Mar 11 2023 02:38:16 GMT-0700 (Mountain Standard Time)","995756","Trustworthy,Untrustworthy","","","","decisionFB","","","null","","<div class='trialDiv'><img src='trustrating_stim/white_mw056.bmp'><br><font class='baseline'><strong>Michael</strong><p>Choose number of points to send.</font><div class='respPicDiv'><img src='img/responseButtonOffersNo0L4.png' class='respPic'></div></div>","null","4","Michael","6","Kept","0.2,0.65","11","0.2","trustrating_stim/white_mw056.bmp","5","55","10"
"html-keyboard-response","166","664496","0.0-19.0-3.9","633fa968afc8d3d2c0d8745c","bdp_trlrn","Sat Mar 11 2023 02:38:16 GMT-0700 (Mountain Standard Time)","995756","Trustworthy,Untrustworthy","","","","feedback","","","null","","<div class='trialDiv'><img src='trustrating_stim/white_mw056.bmp'><br><font class='baseline'><strong>Michael</strong><p>Received: <strong>16</strong></font> &nbsp; &nbsp; &nbsp; &nbsp; &nbsp; &nbsp;<font class='negOutcome'>Shared back: <strong>0</strong></font></font><div class='respPicDiv'><img src='img/responseButtonOffersNo0_wht.png' class='respPic'></div></div>","null","4","Michael","6","Kept","0.2,0.65","11","0.2","trustrating_stim/white_mw056.bmp","5","55","10"
"html-keyboard-response","167","665185","0.0-19.0-1.10","633fa968afc8d3d2c0d8745c","bdp_trlrn","Sat Mar 11 2023 02:38:16 GMT-0700 (Mountain Standard Time)","995756","Trustworthy,Untrustworthy","","","","decision","","","686","","<div class='trialDiv'><img src='trustrating_stim/white_mw089.bmp'><br><font class='baseline'><strong>Tyler</strong><p>Choose number of points to send.</font><div class='respPicDiv'><img src='img/responseButtonOffersNo0L.png' class='respPic'></div></div>","1","4","Tyler","1","Shared","0.65,0.35","10","0.65","trustrating_stim/white_mw089.bmp","2","60","11"
"html-keyboard-response","168","665438","0.0-19.0-2.10","633fa968afc8d3d2c0d8745c","bdp_trlrn","Sat Mar 11 2023 02:38:16 GMT-0700 (Mountain Standard Time)","995756","Trustworthy,Untrustworthy","","","","decisionFB","","","null","","<div class='trialDiv'><img src='trustrating_stim/white_mw089.bmp'><br><font class='baseline'><strong>Tyler</strong><p>Choose number of points to send.</font><div class='respPicDiv'><img src='img/responseButtonOffersNo0L1.png' class='respPic'></div></div>","null","4","Tyler","1","Shared","0.65,0.35","10","0.65","trustrating_stim/white_mw089.bmp","2","59","11"
"html-keyboard-response","169","666458","0.0-19.0-3.10","633fa968afc8d3d2c0d8745c","bdp_trlrn","Sat Mar 11 2023 02:38:16 GMT-0700 (Mountain Standard Time)","995756","Trustworthy,Untrustworthy","","","","feedback","","","null","","<div class='trialDiv'><img src='trustrating_stim/white_mw089.bmp'><br><font class='baseline'><strong>Tyler</strong><p>Received: <strong>4</strong></font> &nbsp; &nbsp; &nbsp; &nbsp; &nbsp; &nbsp;<font class='posOutcome'>Shared back: <strong>2</strong></font></font><div class='respPicDiv'><img src='img/responseButtonOffersNo0_wht.png' class='respPic'></div></div>","null","4","Tyler","1","Shared","0.65,0.35","10","0.65","trustrating_stim/white_mw089.bmp","2","61","11"
"html-keyboard-response","170","666896","0.0-19.0-1.11","633fa968afc8d3d2c0d8745c","bdp_trlrn","Sat Mar 11 2023 02:38:16 GMT-0700 (Mountain Standard Time)","995756","Trustworthy,Untrustworthy","","","","decision","","","435","","<div class='trialDiv'><img src='trustrating_stim/white_00761_941201_fb_edt.bmp'><br><font class='baseline'><strong>Evan</strong><p>Choose number of points to send.</font><div class='respPicDiv'><img src='img/responseButtonOffersNo0L.png' class='respPic'></div></div>","2","4","Evan","11","Shared","0.65,0.2","14","0.65","trustrating_stim/white_00761_941201_fb_edt.bmp","8","66","12"
"html-keyboard-response","171","667155","0.0-19.0-2.11","633fa968afc8d3d2c0d8745c","bdp_trlrn","Sat Mar 11 2023 02:38:16 GMT-0700 (Mountain Standard Time)","995756","Trustworthy,Untrustworthy","","","","decisionFB","","","null","","<div class='trialDiv'><img src='trustrating_stim/white_00761_941201_fb_edt.bmp'><br><font class='baseline'><strong>Evan</strong><p>Choose number of points to send.</font><div class='respPicDiv'><img src='img/responseButtonOffersNo0L2.png' class='respPic'></div></div>","null","4","Evan","11","Shared","0.65,0.2","14","0.65","trustrating_stim/white_00761_941201_fb_edt.bmp","8","64","12"
"html-keyboard-response","172","668163","0.0-19.0-3.11","633fa968afc8d3d2c0d8745c","bdp_trlrn","Sat Mar 11 2023 02:38:16 GMT-0700 (Mountain Standard Time)","995756","Trustworthy,Untrustworthy","","","","feedback","","","null","","<div class='trialDiv'><img src='trustrating_stim/white_00761_941201_fb_edt.bmp'><br><font class='baseline'><strong>Evan</strong><p>Received: <strong>8</strong></font> &nbsp; &nbsp; &nbsp; &nbsp; &nbsp; &nbsp;<font class='posOutcome'>Shared back: <strong>4</strong></font></font><div class='respPicDiv'><img src='img/responseButtonOffersNo0_wht.png' class='respPic'></div></div>","null","4","Evan","11","Shared","0.65,0.2","14","0.65","trustrating_stim/white_00761_941201_fb_edt.bmp","8","68","12"
"html-keyboard-response","173","668863","0.0-19.0-1.12","633fa968afc8d3d2c0d8745c","bdp_trlrn","Sat Mar 11 2023 02:38:16 GMT-0700 (Mountain Standard Time)","995756","Trustworthy,Untrustworthy","","","","decision","","","697","","<div class='trialDiv'><img src='trustrating_stim/white_mw056.bmp'><br><font class='baseline'><strong>Michael</strong><p>Choose number of points to send.</font><div class='respPicDiv'><img src='img/responseButtonOffersNo0L.png' class='respPic'></div></div>","2","5","Michael","6","Kept","0.2,0.65","11","0.2","trustrating_stim/white_mw056.bmp","5","73","13"
"html-keyboard-response","174","669128","0.0-19.0-2.12","633fa968afc8d3d2c0d8745c","bdp_trlrn","Sat Mar 11 2023 02:38:16 GMT-0700 (Mountain Standard Time)","995756","Trustworthy,Untrustworthy","","","","decisionFB","","","null","","<div class='trialDiv'><img src='trustrating_stim/white_mw056.bmp'><br><font class='baseline'><strong>Michael</strong><p>Choose number of points to send.</font><div class='respPicDiv'><img src='img/responseButtonOffersNo0L2.png' class='respPic'></div></div>","null","5","Michael","6","Kept","0.2,0.65","11","0.2","trustrating_stim/white_mw056.bmp","5","71","13"
"html-keyboard-response","175","670136","0.0-19.0-3.12","633fa968afc8d3d2c0d8745c","bdp_trlrn","Sat Mar 11 2023 02:38:16 GMT-0700 (Mountain Standard Time)","995756","Trustworthy,Untrustworthy","","","","feedback","","","null","","<div class='trialDiv'><img src='trustrating_stim/white_mw056.bmp'><br><font class='baseline'><strong>Michael</strong><p>Received: <strong>8</strong></font> &nbsp; &nbsp; &nbsp; &nbsp; &nbsp; &nbsp;<font class='negOutcome'>Shared back: <strong>0</strong></font></font><div class='respPicDiv'><img src='img/responseButtonOffersNo0_wht.png' class='respPic'></div></div>","null","5","Michael","6","Kept","0.2,0.65","11","0.2","trustrating_stim/white_mw056.bmp","5","71","13"
"html-keyboard-response","176","672096","0.0-19.0-1.13","633fa968afc8d3d2c0d8745c","bdp_trlrn","Sat Mar 11 2023 02:38:16 GMT-0700 (Mountain Standard Time)","995756","Trustworthy,Untrustworthy","","","","decision","","","1956","","<div class='trialDiv'><img src='trustrating_stim/white_00761_941201_fb_edt.bmp'><br><font class='baseline'><strong>Evan</strong><p>Choose number of points to send.</font><div class='respPicDiv'><img src='img/responseButtonOffersNo0L.png' class='respPic'></div></div>","1","5","Evan","11","Kept","0.65,0.2","14","0.65","trustrating_stim/white_00761_941201_fb_edt.bmp","8","76","14"
"html-keyboard-response","177","672364","0.0-19.0-2.13","633fa968afc8d3d2c0d8745c","bdp_trlrn","Sat Mar 11 2023 02:38:16 GMT-0700 (Mountain Standard Time)","995756","Trustworthy,Untrustworthy","","","","decisionFB","","","null","","<div class='trialDiv'><img src='trustrating_stim/white_00761_941201_fb_edt.bmp'><br><font class='baseline'><strong>Evan</strong><p>Choose number of points to send.</font><div class='respPicDiv'><img src='img/responseButtonOffersNo0L1.png' class='respPic'></div></div>","null","5","Evan","11","Kept","0.65,0.2","14","0.65","trustrating_stim/white_00761_941201_fb_edt.bmp","8","75","14"
"html-keyboard-response","178","673374","0.0-19.0-3.13","633fa968afc8d3d2c0d8745c","bdp_trlrn","Sat Mar 11 2023 02:38:16 GMT-0700 (Mountain Standard Time)","995756","Trustworthy,Untrustworthy","","","","feedback","","","null","","<div class='trialDiv'><img src='trustrating_stim/white_00761_941201_fb_edt.bmp'><br><font class='baseline'><strong>Evan</strong><p>Received: <strong>4</strong></font> &nbsp; &nbsp; &nbsp; &nbsp; &nbsp; &nbsp;<font class='negOutcome'>Shared back: <strong>0</strong></font></font><div class='respPicDiv'><img src='img/responseButtonOffersNo0_wht.png' class='respPic'></div></div>","null","5","Evan","11","Kept","0.65,0.2","14","0.65","trustrating_stim/white_00761_941201_fb_edt.bmp","8","75","14"
"html-keyboard-response","179","673876","0.0-19.0-1.14","633fa968afc8d3d2c0d8745c","bdp_trlrn","Sat Mar 11 2023 02:38:16 GMT-0700 (Mountain Standard Time)","995756","Trustworthy,Untrustworthy","","","","decision","","","499","","<div class='trialDiv'><img src='trustrating_stim/white_mw089.bmp'><br><font class='baseline'><strong>Tyler</strong><p>Choose number of points to send.</font><div class='respPicDiv'><img src='img/responseButtonOffersNo0L.png' class='respPic'></div></div>","4","5","Tyler","1","Shared","0.65,0.35","10","0.65","trustrating_stim/white_mw089.bmp","2","80","15"
"html-keyboard-response","180","674137","0.0-19.0-2.14","633fa968afc8d3d2c0d8745c","bdp_trlrn","Sat Mar 11 2023 02:38:16 GMT-0700 (Mountain Standard Time)","995756","Trustworthy,Untrustworthy","","","","decisionFB","","","null","","<div class='trialDiv'><img src='trustrating_stim/white_mw089.bmp'><br><font class='baseline'><strong>Tyler</strong><p>Choose number of points to send.</font><div class='respPicDiv'><img src='img/responseButtonOffersNo0L4.png' class='respPic'></div></div>","null","5","Tyler","1","Shared","0.65,0.35","10","0.65","trustrating_stim/white_mw089.bmp","2","76","15"
"html-keyboard-response","181","675147","0.0-19.0-3.14","633fa968afc8d3d2c0d8745c","bdp_trlrn","Sat Mar 11 2023 02:38:16 GMT-0700 (Mountain Standard Time)","995756","Trustworthy,Untrustworthy","","","","feedback","","","null","","<div class='trialDiv'><img src='trustrating_stim/white_mw089.bmp'><br><font class='baseline'><strong>Tyler</strong><p>Received: <strong>16</strong></font> &nbsp; &nbsp; &nbsp; &nbsp; &nbsp; &nbsp;<font class='posOutcome'>Shared back: <strong>8</strong></font></font><div class='respPicDiv'><img src='img/responseButtonOffersNo0_wht.png' class='respPic'></div></div>","null","5","Tyler","1","Shared","0.65,0.35","10","0.65","trustrating_stim/white_mw089.bmp","2","84","15"
"html-keyboard-response","182","675663","0.0-19.0-1.15","633fa968afc8d3d2c0d8745c","bdp_trlrn","Sat Mar 11 2023 02:38:16 GMT-0700 (Mountain Standard Time)","995756","Trustworthy,Untrustworthy","","","","decision","","","513","","<div class='trialDiv'><img src='trustrating_stim/white_mw056.bmp'><br><font class='baseline'><strong>Michael</strong><p>Choose number of points to send.</font><div class='respPicDiv'><img src='img/responseButtonOffersNo0L.png' class='respPic'></div></div>","5","6","Michael","6","Kept","0.2,0.65","11","0.2","trustrating_stim/white_mw056.bmp","5","89","16"
"html-keyboard-response","183","675919","0.0-19.0-2.15","633fa968afc8d3d2c0d8745c","bdp_trlrn","Sat Mar 11 2023 02:38:16 GMT-0700 (Mountain Standard Time)","995756","Trustworthy,Untrustworthy","","","","decisionFB","","","null","","<div class='trialDiv'><img src='trustrating_stim/white_mw056.bmp'><br><font class='baseline'><strong>Michael</strong><p>Choose number of points to send.</font><div class='respPicDiv'><img src='img/responseButtonOffersNo0L5.png' class='respPic'></div></div>","null","6","Michael","6","Kept","0.2,0.65","11","0.2","trustrating_stim/white_mw056.bmp","5","84","16"
"html-keyboard-response","184","676925","0.0-19.0-3.15","633fa968afc8d3d2c0d8745c","bdp_trlrn","Sat Mar 11 2023 02:38:16 GMT-0700 (Mountain Standard Time)","995756","Trustworthy,Untrustworthy","","","","feedback","","","null","","<div class='trialDiv'><img src='trustrating_stim/white_mw056.bmp'><br><font class='baseline'><strong>Michael</strong><p>Received: <strong>20</strong></font> &nbsp; &nbsp; &nbsp; &nbsp; &nbsp; &nbsp;<font class='negOutcome'>Shared back: <strong>0</strong></font></font><div class='respPicDiv'><img src='img/responseButtonOffersNo0_wht.png' class='respPic'></div></div>","null","6","Michael","6","Kept","0.2,0.65","11","0.2","trustrating_stim/white_mw056.bmp","5","84","16"
"html-keyboard-response","185","677326","0.0-19.0-1.16","633fa968afc8d3d2c0d8745c","bdp_trlrn","Sat Mar 11 2023 02:38:16 GMT-0700 (Mountain Standard Time)","995756","Trustworthy,Untrustworthy","","","","decision","","","396","","<div class='trialDiv'><img src='trustrating_stim/white_00761_941201_fb_edt.bmp'><br><font class='baseline'><strong>Evan</strong><p>Choose number of points to send.</font><div class='respPicDiv'><img src='img/responseButtonOffersNo0L.png' class='respPic'></div></div>","3","6","Evan","11","Kept","0.65,0.2","14","0.65","trustrating_stim/white_00761_941201_fb_edt.bmp","8","89","17"
"html-keyboard-response","186","677592","0.0-19.0-2.16","633fa968afc8d3d2c0d8745c","bdp_trlrn","Sat Mar 11 2023 02:38:16 GMT-0700 (Mountain Standard Time)","995756","Trustworthy,Untrustworthy","","","","decisionFB","","","null","","<div class='trialDiv'><img src='trustrating_stim/white_00761_941201_fb_edt.bmp'><br><font class='baseline'><strong>Evan</strong><p>Choose number of points to send.</font><div class='respPicDiv'><img src='img/responseButtonOffersNo0L3.png' class='respPic'></div></div>","null","6","Evan","11","Kept","0.65,0.2","14","0.65","trustrating_stim/white_00761_941201_fb_edt.bmp","8","86","17"
"html-keyboard-response","187","678605","0.0-19.0-3.16","633fa968afc8d3d2c0d8745c","bdp_trlrn","Sat Mar 11 2023 02:38:16 GMT-0700 (Mountain Standard Time)","995756","Trustworthy,Untrustworthy","","","","feedback","","","null","","<div class='trialDiv'><img src='trustrating_stim/white_00761_941201_fb_edt.bmp'><br><font class='baseline'><strong>Evan</strong><p>Received: <strong>12</strong></font> &nbsp; &nbsp; &nbsp; &nbsp; &nbsp; &nbsp;<font class='negOutcome'>Shared back: <strong>0</strong></font></font><div class='respPicDiv'><img src='img/responseButtonOffersNo0_wht.png' class='respPic'></div></div>","null","6","Evan","11","Kept","0.65,0.2","14","0.65","trustrating_stim/white_00761_941201_fb_edt.bmp","8","86","17"
"html-keyboard-response","188","679376","0.0-19.0-1.17","633fa968afc8d3d2c0d8745c","bdp_trlrn","Sat Mar 11 2023 02:38:16 GMT-0700 (Mountain Standard Time)","995756","Trustworthy,Untrustworthy","","","","decision","","","767","","<div class='trialDiv'><img src='trustrating_stim/white_mw089.bmp'><br><font class='baseline'><strong>Tyler</strong><p>Choose number of points to send.</font><div class='respPicDiv'><img src='img/responseButtonOffersNo0L.png' class='respPic'></div></div>","2","6","Tyler","1","Shared","0.65,0.35","10","0.65","trustrating_stim/white_mw089.bmp","2","91","18"
"html-keyboard-response","189","679641","0.0-19.0-2.17","633fa968afc8d3d2c0d8745c","bdp_trlrn","Sat Mar 11 2023 02:38:16 GMT-0700 (Mountain Standard Time)","995756","Trustworthy,Untrustworthy","","","","decisionFB","","","null","","<div class='trialDiv'><img src='trustrating_stim/white_mw089.bmp'><br><font class='baseline'><strong>Tyler</strong><p>Choose number of points to send.</font><div class='respPicDiv'><img src='img/responseButtonOffersNo0L2.png' class='respPic'></div></div>","null","6","Tyler","1","Shared","0.65,0.35","10","0.65","trustrating_stim/white_mw089.bmp","2","89","18"
"html-keyboard-response","190","680659","0.0-19.0-3.17","633fa968afc8d3d2c0d8745c","bdp_trlrn","Sat Mar 11 2023 02:38:16 GMT-0700 (Mountain Standard Time)","995756","Trustworthy,Untrustworthy","","","","feedback","","","null","","<div class='trialDiv'><img src='trustrating_stim/white_mw089.bmp'><br><font class='baseline'><strong>Tyler</strong><p>Received: <strong>8</strong></font> &nbsp; &nbsp; &nbsp; &nbsp; &nbsp; &nbsp;<font class='posOutcome'>Shared back: <strong>4</strong></font></font><div class='respPicDiv'><img src='img/responseButtonOffersNo0_wht.png' class='respPic'></div></div>","null","6","Tyler","1","Shared","0.65,0.35","10","0.65","trustrating_stim/white_mw089.bmp","2","93","18"
"html-keyboard-response","191","681230","0.0-19.0-1.18","633fa968afc8d3d2c0d8745c","bdp_trlrn","Sat Mar 11 2023 02:38:16 GMT-0700 (Mountain Standard Time)","995756","Trustworthy,Untrustworthy","","","","decision","","","568","","<div class='trialDiv'><img src='trustrating_stim/white_mw056.bmp'><br><font class='baseline'><strong>Michael</strong><p>Choose number of points to send.</font><div class='respPicDiv'><img src='img/responseButtonOffersNo0L.png' class='respPic'></div></div>","4","7","Michael","6","Shared","0.2,0.65","11","0.2","trustrating_stim/white_mw056.bmp","5","98","19"
"html-keyboard-response","192","681495","0.0-19.0-2.18","633fa968afc8d3d2c0d8745c","bdp_trlrn","Sat Mar 11 2023 02:38:16 GMT-0700 (Mountain Standard Time)","995756","Trustworthy,Untrustworthy","","","","decisionFB","","","null","","<div class='trialDiv'><img src='trustrating_stim/white_mw056.bmp'><br><font class='baseline'><strong>Michael</strong><p>Choose number of points to send.</font><div class='respPicDiv'><img src='img/responseButtonOffersNo0L4.png' class='respPic'></div></div>","null","7","Michael","6","Shared","0.2,0.65","11","0.2","trustrating_stim/white_mw056.bmp","5","94","19"
"html-keyboard-response","193","682505","0.0-19.0-3.18","633fa968afc8d3d2c0d8745c","bdp_trlrn","Sat Mar 11 2023 02:38:16 GMT-0700 (Mountain Standard Time)","995756","Trustworthy,Untrustworthy","","","","feedback","","","null","","<div class='trialDiv'><img src='trustrating_stim/white_mw056.bmp'><br><font class='baseline'><strong>Michael</strong><p>Received: <strong>16</strong></font> &nbsp; &nbsp; &nbsp; &nbsp; &nbsp; &nbsp;<font class='posOutcome'>Shared back: <strong>8</strong></font></font><div class='respPicDiv'><img src='img/responseButtonOffersNo0_wht.png' class='respPic'></div></div>","null","7","Michael","6","Shared","0.2,0.65","11","0.2","trustrating_stim/white_mw056.bmp","5","102","19"
"html-keyboard-response","194","682861","0.0-19.0-1.19","633fa968afc8d3d2c0d8745c","bdp_trlrn","Sat Mar 11 2023 02:38:16 GMT-0700 (Mountain Standard Time)","995756","Trustworthy,Untrustworthy","","","","decision","","","352","","<div class='trialDiv'><img src='trustrating_stim/white_mw089.bmp'><br><font class='baseline'><strong>Tyler</strong><p>Choose number of points to send.</font><div class='respPicDiv'><img src='img/responseButtonOffersNo0L.png' class='respPic'></div></div>","2","7","Tyler","1","Kept","0.65,0.35","10","0.65","trustrating_stim/white_mw089.bmp","2","107","20"
"html-keyboard-response","195","683126","0.0-19.0-2.19","633fa968afc8d3d2c0d8745c","bdp_trlrn","Sat Mar 11 2023 02:38:16 GMT-0700 (Mountain Standard Time)","995756","Trustworthy,Untrustworthy","","","","decisionFB","","","null","","<div class='trialDiv'><img src='trustrating_stim/white_mw089.bmp'><br><font class='baseline'><strong>Tyler</strong><p>Choose number of points to send.</font><div class='respPicDiv'><img src='img/responseButtonOffersNo0L2.png' class='respPic'></div></div>","null","7","Tyler","1","Kept","0.65,0.35","10","0.65","trustrating_stim/white_mw089.bmp","2","105","20"
"html-keyboard-response","196","684144","0.0-19.0-3.19","633fa968afc8d3d2c0d8745c","bdp_trlrn","Sat Mar 11 2023 02:38:16 GMT-0700 (Mountain Standard Time)","995756","Trustworthy,Untrustworthy","","","","feedback","","","null","","<div class='trialDiv'><img src='trustrating_stim/white_mw089.bmp'><br><font class='baseline'><strong>Tyler</strong><p>Received: <strong>8</strong></font> &nbsp; &nbsp; &nbsp; &nbsp; &nbsp; &nbsp;<font class='negOutcome'>Shared back: <strong>0</strong></font></font><div class='respPicDiv'><img src='img/responseButtonOffersNo0_wht.png' class='respPic'></div></div>","null","7","Tyler","1","Kept","0.65,0.35","10","0.65","trustrating_stim/white_mw089.bmp","2","105","20"
"html-keyboard-response","197","684461","0.0-19.0-1.20","633fa968afc8d3d2c0d8745c","bdp_trlrn","Sat Mar 11 2023 02:38:16 GMT-0700 (Mountain Standard Time)","995756","Trustworthy,Untrustworthy","","","","decision","","","313","","<div class='trialDiv'><img src='trustrating_stim/white_00761_941201_fb_edt.bmp'><br><font class='baseline'><strong>Evan</strong><p>Choose number of points to send.</font><div class='respPicDiv'><img src='img/responseButtonOffersNo0L.png' class='respPic'></div></div>","3","7","Evan","11","Kept","0.65,0.2","14","0.65","trustrating_stim/white_00761_941201_fb_edt.bmp","8","110","21"
"html-keyboard-response","198","684715","0.0-19.0-2.20","633fa968afc8d3d2c0d8745c","bdp_trlrn","Sat Mar 11 2023 02:38:16 GMT-0700 (Mountain Standard Time)","995756","Trustworthy,Untrustworthy","","","","decisionFB","","","null","","<div class='trialDiv'><img src='trustrating_stim/white_00761_941201_fb_edt.bmp'><br><font class='baseline'><strong>Evan</strong><p>Choose number of points to send.</font><div class='respPicDiv'><img src='img/responseButtonOffersNo0L3.png' class='respPic'></div></div>","null","7","Evan","11","Kept","0.65,0.2","14","0.65","trustrating_stim/white_00761_941201_fb_edt.bmp","8","107","21"
"html-keyboard-response","199","685734","0.0-19.0-3.20","633fa968afc8d3d2c0d8745c","bdp_trlrn","Sat Mar 11 2023 02:38:16 GMT-0700 (Mountain Standard Time)","995756","Trustworthy,Untrustworthy","","","","feedback","","","null","","<div class='trialDiv'><img src='trustrating_stim/white_00761_941201_fb_edt.bmp'><br><font class='baseline'><strong>Evan</strong><p>Received: <strong>12</strong></font> &nbsp; &nbsp; &nbsp; &nbsp; &nbsp; &nbsp;<font class='negOutcome'>Shared back: <strong>0</strong></font></font><div class='respPicDiv'><img src='img/responseButtonOffersNo0_wht.png' class='respPic'></div></div>","null","7","Evan","11","Kept","0.65,0.2","14","0.65","trustrating_stim/white_00761_941201_fb_edt.bmp","8","107","21"
"html-keyboard-response","200","686327","0.0-19.0-1.21","633fa968afc8d3d2c0d8745c","bdp_trlrn","Sat Mar 11 2023 02:38:16 GMT-0700 (Mountain Standard Time)","995756","Trustworthy,Untrustworthy","","","","decision","","","589","","<div class='trialDiv'><img src='trustrating_stim/white_mw089.bmp'><br><font class='baseline'><strong>Tyler</strong><p>Choose number of points to send.</font><div class='respPicDiv'><img src='img/responseButtonOffersNo0L.png' class='respPic'></div></div>","4","8","Tyler","1","Shared","0.65,0.35","10","0.65","trustrating_stim/white_mw089.bmp","2","112","22"
"html-keyboard-response","201","686587","0.0-19.0-2.21","633fa968afc8d3d2c0d8745c","bdp_trlrn","Sat Mar 11 2023 02:38:16 GMT-0700 (Mountain Standard Time)","995756","Trustworthy,Untrustworthy","","","","decisionFB","","","null","","<div class='trialDiv'><img src='trustrating_stim/white_mw089.bmp'><br><font class='baseline'><strong>Tyler</strong><p>Choose number of points to send.</font><div class='respPicDiv'><img src='img/responseButtonOffersNo0L4.png' class='respPic'></div></div>","null","8","Tyler","1","Shared","0.65,0.35","10","0.65","trustrating_stim/white_mw089.bmp","2","108","22"
"html-keyboard-response","202","687606","0.0-19.0-3.21","633fa968afc8d3d2c0d8745c","bdp_trlrn","Sat Mar 11 2023 02:38:16 GMT-0700 (Mountain Standard Time)","995756","Trustworthy,Untrustworthy","","","","feedback","","","null","","<div class='trialDiv'><img src='trustrating_stim/white_mw089.bmp'><br><font class='baseline'><strong>Tyler</strong><p>Received: <strong>16</strong></font> &nbsp; &nbsp; &nbsp; &nbsp; &nbsp; &nbsp;<font class='posOutcome'>Shared back: <strong>8</strong></font></font><div class='respPicDiv'><img src='img/responseButtonOffersNo0_wht.png' class='respPic'></div></div>","null","8","Tyler","1","Shared","0.65,0.35","10","0.65","trustrating_stim/white_mw089.bmp","2","116","22"
"html-keyboard-response","203","688513","0.0-19.0-1.22","633fa968afc8d3d2c0d8745c","bdp_trlrn","Sat Mar 11 2023 02:38:16 GMT-0700 (Mountain Standard Time)","995756","Trustworthy,Untrustworthy","","","","decision","","","903","","<div class='trialDiv'><img src='trustrating_stim/white_mw056.bmp'><br><font class='baseline'><strong>Michael</strong><p>Choose number of points to send.</font><div class='respPicDiv'><img src='img/responseButtonOffersNo0L.png' class='respPic'></div></div>","4","8","Michael","6","Kept","0.2,0.65","11","0.2","trustrating_stim/white_mw056.bmp","5","121","23"
"html-keyboard-response","204","688769","0.0-19.0-2.22","633fa968afc8d3d2c0d8745c","bdp_trlrn","Sat Mar 11 2023 02:38:16 GMT-0700 (Mountain Standard Time)","995756","Trustworthy,Untrustworthy","","","","decisionFB","","","null","","<div class='trialDiv'><img src='trustrating_stim/white_mw056.bmp'><br><font class='baseline'><strong>Michael</strong><p>Choose number of points to send.</font><div class='respPicDiv'><img src='img/responseButtonOffersNo0L4.png' class='respPic'></div></div>","null","8","Michael","6","Kept","0.2,0.65","11","0.2","trustrating_stim/white_mw056.bmp","5","117","23"
"html-keyboard-response","205","689788","0.0-19.0-3.22","633fa968afc8d3d2c0d8745c","bdp_trlrn","Sat Mar 11 2023 02:38:16 GMT-0700 (Mountain Standard Time)","995756","Trustworthy,Untrustworthy","","","","feedback","","","null","","<div class='trialDiv'><img src='trustrating_stim/white_mw056.bmp'><br><font class='baseline'><strong>Michael</strong><p>Received: <strong>16</strong></font> &nbsp; &nbsp; &nbsp; &nbsp; &nbsp; &nbsp;<font class='negOutcome'>Shared back: <strong>0</strong></font></font><div class='respPicDiv'><img src='img/responseButtonOffersNo0_wht.png' class='respPic'></div></div>","null","8","Michael","6","Kept","0.2,0.65","11","0.2","trustrating_stim/white_mw056.bmp","5","117","23"
"html-keyboard-response","206","690261","0.0-19.0-1.23","633fa968afc8d3d2c0d8745c","bdp_trlrn","Sat Mar 11 2023 02:38:16 GMT-0700 (Mountain Standard Time)","995756","Trustworthy,Untrustworthy","","","","decision","","","469","","<div class='trialDiv'><img src='trustrating_stim/white_00761_941201_fb_edt.bmp'><br><font class='baseline'><strong>Evan</strong><p>Choose number of points to send.</font><div class='respPicDiv'><img src='img/responseButtonOffersNo0L.png' class='respPic'></div></div>","4","8","Evan","11","Shared","0.65,0.2","14","0.65","trustrating_stim/white_00761_941201_fb_edt.bmp","8","122","24"
"html-keyboard-response","207","690518","0.0-19.0-2.23","633fa968afc8d3d2c0d8745c","bdp_trlrn","Sat Mar 11 2023 02:38:16 GMT-0700 (Mountain Standard Time)","995756","Trustworthy,Untrustworthy","","","","decisionFB","","","null","","<div class='trialDiv'><img src='trustrating_stim/white_00761_941201_fb_edt.bmp'><br><font class='baseline'><strong>Evan</strong><p>Choose number of points to send.</font><div class='respPicDiv'><img src='img/responseButtonOffersNo0L4.png' class='respPic'></div></div>","null","8","Evan","11","Shared","0.65,0.2","14","0.65","trustrating_stim/white_00761_941201_fb_edt.bmp","8","118","24"
"html-keyboard-response","208","691537","0.0-19.0-3.23","633fa968afc8d3d2c0d8745c","bdp_trlrn","Sat Mar 11 2023 02:38:16 GMT-0700 (Mountain Standard Time)","995756","Trustworthy,Untrustworthy","","","","feedback","","","null","","<div class='trialDiv'><img src='trustrating_stim/white_00761_941201_fb_edt.bmp'><br><font class='baseline'><strong>Evan</strong><p>Received: <strong>16</strong></font> &nbsp; &nbsp; &nbsp; &nbsp; &nbsp; &nbsp;<font class='posOutcome'>Shared back: <strong>8</strong></font></font><div class='respPicDiv'><img src='img/responseButtonOffersNo0_wht.png' class='respPic'></div></div>","null","8","Evan","11","Shared","0.65,0.2","14","0.65","trustrating_stim/white_00761_941201_fb_edt.bmp","8","126","24"
"html-keyboard-response","209","692025","0.0-19.0-1.24","633fa968afc8d3d2c0d8745c","bdp_trlrn","Sat Mar 11 2023 02:38:16 GMT-0700 (Mountain Standard Time)","995756","Trustworthy,Untrustworthy","","","","decision","","","483","","<div class='trialDiv'><img src='trustrating_stim/white_mw056.bmp'><br><font class='baseline'><strong>Michael</strong><p>Choose number of points to send.</font><div class='respPicDiv'><img src='img/responseButtonOffersNo0L.png' class='respPic'></div></div>","2","9","Michael","6","Kept","0.2,0.65","11","0.2","trustrating_stim/white_mw056.bmp","5","131","25"
"html-keyboard-response","210","692288","0.0-19.0-2.24","633fa968afc8d3d2c0d8745c","bdp_trlrn","Sat Mar 11 2023 02:38:16 GMT-0700 (Mountain Standard Time)","995756","Trustworthy,Untrustworthy","","","","decisionFB","","","null","","<div class='trialDiv'><img src='trustrating_stim/white_mw056.bmp'><br><font class='baseline'><strong>Michael</strong><p>Choose number of points to send.</font><div class='respPicDiv'><img src='img/responseButtonOffersNo0L2.png' class='respPic'></div></div>","null","9","Michael","6","Kept","0.2,0.65","11","0.2","trustrating_stim/white_mw056.bmp","5","129","25"
"html-keyboard-response","211","693306","0.0-19.0-3.24","633fa968afc8d3d2c0d8745c","bdp_trlrn","Sat Mar 11 2023 02:38:16 GMT-0700 (Mountain Standard Time)","995756","Trustworthy,Untrustworthy","","","","feedback","","","null","","<div class='trialDiv'><img src='trustrating_stim/white_mw056.bmp'><br><font class='baseline'><strong>Michael</strong><p>Received: <strong>8</strong></font> &nbsp; &nbsp; &nbsp; &nbsp; &nbsp; &nbsp;<font class='negOutcome'>Shared back: <strong>0</strong></font></font><div class='respPicDiv'><img src='img/responseButtonOffersNo0_wht.png' class='respPic'></div></div>","null","9","Michael","6","Kept","0.2,0.65","11","0.2","trustrating_stim/white_mw056.bmp","5","129","25"
"html-keyboard-response","212","693726","0.0-19.0-1.25","633fa968afc8d3d2c0d8745c","bdp_trlrn","Sat Mar 11 2023 02:38:16 GMT-0700 (Mountain Standard Time)","995756","Trustworthy,Untrustworthy","","","","decision","","","416","","<div class='trialDiv'><img src='trustrating_stim/white_00761_941201_fb_edt.bmp'><br><font class='baseline'><strong>Evan</strong><p>Choose number of points to send.</font><div class='respPicDiv'><img src='img/responseButtonOffersNo0L.png' class='respPic'></div></div>","3","9","Evan","11","Shared","0.65,0.2","14","0.65","trustrating_stim/white_00761_941201_fb_edt.bmp","8","134","26"
"html-keyboard-response","213","693992","0.0-19.0-2.25","633fa968afc8d3d2c0d8745c","bdp_trlrn","Sat Mar 11 2023 02:38:16 GMT-0700 (Mountain Standard Time)","995756","Trustworthy,Untrustworthy","","","","decisionFB","","","null","","<div class='trialDiv'><img src='trustrating_stim/white_00761_941201_fb_edt.bmp'><br><font class='baseline'><strong>Evan</strong><p>Choose number of points to send.</font><div class='respPicDiv'><img src='img/responseButtonOffersNo0L3.png' class='respPic'></div></div>","null","9","Evan","11","Shared","0.65,0.2","14","0.65","trustrating_stim/white_00761_941201_fb_edt.bmp","8","131","26"
"html-keyboard-response","214","695011","0.0-19.0-3.25","633fa968afc8d3d2c0d8745c","bdp_trlrn","Sat Mar 11 2023 02:38:16 GMT-0700 (Mountain Standard Time)","995756","Trustworthy,Untrustworthy","","","","feedback","","","null","","<div class='trialDiv'><img src='trustrating_stim/white_00761_941201_fb_edt.bmp'><br><font class='baseline'><strong>Evan</strong><p>Received: <strong>12</strong></font> &nbsp; &nbsp; &nbsp; &nbsp; &nbsp; &nbsp;<font class='posOutcome'>Shared back: <strong>6</strong></font></font><div class='respPicDiv'><img src='img/responseButtonOffersNo0_wht.png' class='respPic'></div></div>","null","9","Evan","11","Shared","0.65,0.2","14","0.65","trustrating_stim/white_00761_941201_fb_edt.bmp","8","137","26"
"html-keyboard-response","215","695773","0.0-19.0-1.26","633fa968afc8d3d2c0d8745c","bdp_trlrn","Sat Mar 11 2023 02:38:16 GMT-0700 (Mountain Standard Time)","995756","Trustworthy,Untrustworthy","","","","decision","","","757","","<div class='trialDiv'><img src='trustrating_stim/white_mw089.bmp'><br><font class='baseline'><strong>Tyler</strong><p>Choose number of points to send.</font><div class='respPicDiv'><img src='img/responseButtonOffersNo0L.png' class='respPic'></div></div>","4","9","Tyler","1","Shared","0.65,0.35","10","0.65","trustrating_stim/white_mw089.bmp","2","142","27"
"html-keyboard-response","216","696032","0.0-19.0-2.26","633fa968afc8d3d2c0d8745c","bdp_trlrn","Sat Mar 11 2023 02:38:16 GMT-0700 (Mountain Standard Time)","995756","Trustworthy,Untrustworthy","","","","decisionFB","","","null","","<div class='trialDiv'><img src='trustrating_stim/white_mw089.bmp'><br><font class='baseline'><strong>Tyler</strong><p>Choose number of points to send.</font><div class='respPicDiv'><img src='img/responseButtonOffersNo0L4.png' class='respPic'></div></div>","null","9","Tyler","1","Shared","0.65,0.35","10","0.65","trustrating_stim/white_mw089.bmp","2","138","27"
"html-keyboard-response","217","697052","0.0-19.0-3.26","633fa968afc8d3d2c0d8745c","bdp_trlrn","Sat Mar 11 2023 02:38:16 GMT-0700 (Mountain Standard Time)","995756","Trustworthy,Untrustworthy","","","","feedback","","","null","","<div class='trialDiv'><img src='trustrating_stim/white_mw089.bmp'><br><font class='baseline'><strong>Tyler</strong><p>Received: <strong>16</strong></font> &nbsp; &nbsp; &nbsp; &nbsp; &nbsp; &nbsp;<font class='posOutcome'>Shared back: <strong>8</strong></font></font><div class='respPicDiv'><img src='img/responseButtonOffersNo0_wht.png' class='respPic'></div></div>","null","9","Tyler","1","Shared","0.65,0.35","10","0.65","trustrating_stim/white_mw089.bmp","2","146","27"
"html-keyboard-response","218","697320","0.0-19.0-1.27","633fa968afc8d3d2c0d8745c","bdp_trlrn","Sat Mar 11 2023 02:38:16 GMT-0700 (Mountain Standard Time)","995756","Trustworthy,Untrustworthy","","","","decision","","","263","","<div class='trialDiv'><img src='trustrating_stim/white_00761_941201_fb_edt.bmp'><br><font class='baseline'><strong>Evan</strong><p>Choose number of points to send.</font><div class='respPicDiv'><img src='img/responseButtonOffersNo0L.png' class='respPic'></div></div>","4","10","Evan","11","Shared","0.65,0.2","14","0.65","trustrating_stim/white_00761_941201_fb_edt.bmp","8","151","28"
"html-keyboard-response","219","697579","0.0-19.0-2.27","633fa968afc8d3d2c0d8745c","bdp_trlrn","Sat Mar 11 2023 02:38:16 GMT-0700 (Mountain Standard Time)","995756","Trustworthy,Untrustworthy","","","","decisionFB","","","null","","<div class='trialDiv'><img src='trustrating_stim/white_00761_941201_fb_edt.bmp'><br><font class='baseline'><strong>Evan</strong><p>Choose number of points to send.</font><div class='respPicDiv'><img src='img/responseButtonOffersNo0L4.png' class='respPic'></div></div>","null","10","Evan","11","Shared","0.65,0.2","14","0.65","trustrating_stim/white_00761_941201_fb_edt.bmp","8","147","28"
