"event","trial","time","trialtype","subject_id","task","startTime","totalTime","labels","trial_type","trial_index","time_elapsed","internal_node_id","view_history","rt","success","stimulus","key_press","numBlurs","aground","name","faceID","outcome","agenttype","agentswpt","agentcurrpshare","face","avgRating","point_total","round"
"focus","0","0","focusevent","63f58712a2c1bd62fa7bb352","bdp_trlrn","Tue Mar 14 2023 18:50:01 GMT-0600 (Mountain Daylight Time)","490039","Trustworthy,Untrustworthy","","","","","","","","","","","","","","","","","","","","",""
"","","","","63f58712a2c1bd62fa7bb352","bdp_trlrn","Tue Mar 14 2023 18:50:01 GMT-0600 (Mountain Daylight Time)","490039","Trustworthy,Untrustworthy","pavlovia","0","2","0.0-0.0","","","","","","","","","","","","","","","","",""
"","","","","63f58712a2c1bd62fa7bb352","bdp_trlrn","Tue Mar 14 2023 18:50:01 GMT-0600 (Mountain Daylight Time)","490039","Trustworthy,Untrustworthy","instructions","1","3393","0.0-1.0","[{""page_index"":0,""viewing_time"":3390}]","3390","","","","","","","","","","","","","","",""
"fullscreenexit","2","5984","fullscreenexit","63f58712a2c1bd62fa7bb352","bdp_trlrn","Tue Mar 14 2023 18:50:01 GMT-0600 (Mountain Daylight Time)","490039","Trustworthy,Untrustworthy","","","","","","","","","","","","","","","","","","","","",""
"","","","","63f58712a2c1bd62fa7bb352","bdp_trlrn","Tue Mar 14 2023 18:50:01 GMT-0600 (Mountain Daylight Time)","490039","Trustworthy,Untrustworthy","fullscreen","2","6790","0.0-2.0","","","true","","","","","","","","","","","","","",""
"","","","fullscreenfail","63f58712a2c1bd62fa7bb352","bdp_trlrn","Tue Mar 14 2023 18:50:01 GMT-0600 (Mountain Daylight Time)","490039","Trustworthy,Untrustworthy","image-keyboard-response","3","8721","0.0-3.0-0.0","","1930","","","32","","","","","","","","","","","",""
"","","","","63f58712a2c1bd62fa7bb352","bdp_trlrn","Tue Mar 14 2023 18:50:01 GMT-0600 (Mountain Daylight Time)","490039","Trustworthy,Untrustworthy","instructions","4","22906","0.0-4.0","[{""page_index"":0,""viewing_time"":13290},{""page_index"":1,""viewing_time"":639}]","13929","","","","","","","","","","","","","","",""
"","","","","63f58712a2c1bd62fa7bb352","bdp_trlrn","Tue Mar 14 2023 18:50:01 GMT-0600 (Mountain Daylight Time)","490039","Trustworthy,Untrustworthy","instructions","5","23859","0.0-5.0","[{""page_index"":0,""viewing_time"":952}]","952","","","","","","","","","","","","","","",""
"","","","rating","63f58712a2c1bd62fa7bb352","bdp_trlrn","Tue Mar 14 2023 18:50:01 GMT-0600 (Mountain Daylight Time)","490039","Trustworthy,Untrustworthy","image-keyboard-response","6","28091","0.0-6.0-1.0","","4129","","trustrating_stim/white_mw056.bmp","5","","","","","","","","","","","",""
"","","","ratingFB","63f58712a2c1bd62fa7bb352","bdp_trlrn","Tue Mar 14 2023 18:50:01 GMT-0600 (Mountain Daylight Time)","490039","Trustworthy,Untrustworthy","image-keyboard-response","7","28304","0.0-6.0-2.0","","null","","trustrating_stim/white_mw056.bmp","null","","","","","","","","","","","",""
"","","","rating","63f58712a2c1bd62fa7bb352","bdp_trlrn","Tue Mar 14 2023 18:50:01 GMT-0600 (Mountain Daylight Time)","490039","Trustworthy,Untrustworthy","image-keyboard-response","8","29612","0.0-6.0-1.1","","1206","","trustrating_stim/white_00757_941201_fa_edt.bmp","5","","","","","","","","","","","",""
"","","","ratingFB","63f58712a2c1bd62fa7bb352","bdp_trlrn","Tue Mar 14 2023 18:50:01 GMT-0600 (Mountain Daylight Time)","490039","Trustworthy,Untrustworthy","image-keyboard-response","9","29820","0.0-6.0-2.1","","null","","trustrating_stim/white_00757_941201_fa_edt.bmp","null","","","","","","","","","","","",""
"","","","rating","63f58712a2c1bd62fa7bb352","bdp_trlrn","Tue Mar 14 2023 18:50:01 GMT-0600 (Mountain Daylight Time)","490039","Trustworthy,Untrustworthy","image-keyboard-response","10","30692","0.0-6.0-1.2","","770","","trustrating_stim/white_00807_941205_fb_edt.bmp","6","","","","","","","","","","","",""
"blur","11","30809","blurevent","63f58712a2c1bd62fa7bb352","bdp_trlrn","Tue Mar 14 2023 18:50:01 GMT-0600 (Mountain Daylight Time)","490039","Trustworthy,Untrustworthy","","","","","","","","","","1","","","","","","","","","","",""
"","","","ratingFB","63f58712a2c1bd62fa7bb352","bdp_trlrn","Tue Mar 14 2023 18:50:01 GMT-0600 (Mountain Daylight Time)","490039","Trustworthy,Untrustworthy","image-keyboard-response","11","30903","0.0-6.0-2.2","","null","","trustrating_stim/white_00807_941205_fb_edt.bmp","null","","","","","","","","","","","",""
"focus","12","32931","focusevent","63f58712a2c1bd62fa7bb352","bdp_trlrn","Tue Mar 14 2023 18:50:01 GMT-0600 (Mountain Daylight Time)","490039","Trustworthy,Untrustworthy","","","","","","","","","","","","","","","","","","","","",""
"","","","blurwarn","63f58712a2c1bd62fa7bb352","bdp_trlrn","Tue Mar 14 2023 18:50:01 GMT-0600 (Mountain Daylight Time)","490039","Trustworthy,Untrustworthy","image-keyboard-response","12","41060","0.0-6.0-0.3-0.3","","10040","","","49","1","","","","","","","","","","",""
"","","","rating","63f58712a2c1bd62fa7bb352","bdp_trlrn","Tue Mar 14 2023 18:50:01 GMT-0600 (Mountain Daylight Time)","490039","Trustworthy,Untrustworthy","image-keyboard-response","13","42924","0.0-6.0-1.3","","1606","","trustrating_stim/white_00299_940422_fa_edt.bmp","6","","","","","","","","","","","",""
"","","","ratingFB","63f58712a2c1bd62fa7bb352","bdp_trlrn","Tue Mar 14 2023 18:50:01 GMT-0600 (Mountain Daylight Time)","490039","Trustworthy,Untrustworthy","image-keyboard-response","14","43129","0.0-6.0-2.3","","null","","trustrating_stim/white_00299_940422_fa_edt.bmp","null","","","","","","","","","","","",""
"","","","rating","63f58712a2c1bd62fa7bb352","bdp_trlrn","Tue Mar 14 2023 18:50:01 GMT-0600 (Mountain Daylight Time)","490039","Trustworthy,Untrustworthy","image-keyboard-response","15","45445","0.0-6.0-1.4","","2214","","trustrating_stim/white_mw049.bmp","8","","","","","","","","","","","",""
"","","","ratingFB","63f58712a2c1bd62fa7bb352","bdp_trlrn","Tue Mar 14 2023 18:50:01 GMT-0600 (Mountain Daylight Time)","490039","Trustworthy,Untrustworthy","image-keyboard-response","16","45659","0.0-6.0-2.4","","null","","trustrating_stim/white_mw049.bmp","null","","","","","","","","","","","",""
"","","","rating","63f58712a2c1bd62fa7bb352","bdp_trlrn","Tue Mar 14 2023 18:50:01 GMT-0600 (Mountain Daylight Time)","490039","Trustworthy,Untrustworthy","image-keyboard-response","17","47870","0.0-6.0-1.5","","2104","","trustrating_stim/white_mw084.bmp","8","","","","","","","","","","","",""
"","","","ratingFB","63f58712a2c1bd62fa7bb352","bdp_trlrn","Tue Mar 14 2023 18:50:01 GMT-0600 (Mountain Daylight Time)","490039","Trustworthy,Untrustworthy","image-keyboard-response","18","48086","0.0-6.0-2.5","","null","","trustrating_stim/white_mw084.bmp","null","","","","","","","","","","","",""
"","","","rating","63f58712a2c1bd62fa7bb352","bdp_trlrn","Tue Mar 14 2023 18:50:01 GMT-0600 (Mountain Daylight Time)","490039","Trustworthy,Untrustworthy","image-keyboard-response","19","49566","0.0-6.0-1.6","","1378","","trustrating_stim/white_mw035.bmp","2","","","","","","","","","","","",""
"","","","ratingFB","63f58712a2c1bd62fa7bb352","bdp_trlrn","Tue Mar 14 2023 18:50:01 GMT-0600 (Mountain Daylight Time)","490039","Trustworthy,Untrustworthy","image-keyboard-response","20","49785","0.0-6.0-2.6","","null","","trustrating_stim/white_mw035.bmp","null","","","","","","","","","","","",""
"","","","rating","63f58712a2c1bd62fa7bb352","bdp_trlrn","Tue Mar 14 2023 18:50:01 GMT-0600 (Mountain Daylight Time)","490039","Trustworthy,Untrustworthy","image-keyboard-response","21","51870","0.0-6.0-1.7","","1961","","trustrating_stim/white_00785_941205_fb_edt.bmp","1","","","","","","","","","","","",""
"","","","ratingFB","63f58712a2c1bd62fa7bb352","bdp_trlrn","Tue Mar 14 2023 18:50:01 GMT-0600 (Mountain Daylight Time)","490039","Trustworthy,Untrustworthy","image-keyboard-response","22","52085","0.0-6.0-2.7","","null","","trustrating_stim/white_00785_941205_fb_edt.bmp","null","","","","","","","","","","","",""
"","","","rating","63f58712a2c1bd62fa7bb352","bdp_trlrn","Tue Mar 14 2023 18:50:01 GMT-0600 (Mountain Daylight Time)","490039","Trustworthy,Untrustworthy","image-keyboard-response","23","53350","0.0-6.0-1.8","","1161","","trustrating_stim/white_mw099.bmp","8","","","","","","","","","","","",""
"","","","ratingFB","63f58712a2c1bd62fa7bb352","bdp_trlrn","Tue Mar 14 2023 18:50:01 GMT-0600 (Mountain Daylight Time)","490039","Trustworthy,Untrustworthy","image-keyboard-response","24","53561","0.0-6.0-2.8","","null","","trustrating_stim/white_mw099.bmp","null","","","","","","","","","","","",""
"","","","rating","63f58712a2c1bd62fa7bb352","bdp_trlrn","Tue Mar 14 2023 18:50:01 GMT-0600 (Mountain Daylight Time)","490039","Trustworthy,Untrustworthy","image-keyboard-response","25","54742","0.0-6.0-1.9","","1080","","trustrating_stim/white_00602_940928_fb_edt.bmp","8","","","","","","","","","","","",""
"","","","ratingFB","63f58712a2c1bd62fa7bb352","bdp_trlrn","Tue Mar 14 2023 18:50:01 GMT-0600 (Mountain Daylight Time)","490039","Trustworthy,Untrustworthy","image-keyboard-response","26","54944","0.0-6.0-2.9","","null","","trustrating_stim/white_00602_940928_fb_edt.bmp","null","","","","","","","","","","","",""
"","","","rating","63f58712a2c1bd62fa7bb352","bdp_trlrn","Tue Mar 14 2023 18:50:01 GMT-0600 (Mountain Daylight Time)","490039","Trustworthy,Untrustworthy","image-keyboard-response","27","56151","0.0-6.0-1.10","","1105","","trustrating_stim/white_00109_931230_fa_edt.bmp","2","","","","","","","","","","","",""
"","","","ratingFB","63f58712a2c1bd62fa7bb352","bdp_trlrn","Tue Mar 14 2023 18:50:01 GMT-0600 (Mountain Daylight Time)","490039","Trustworthy,Untrustworthy","image-keyboard-response","28","56360","0.0-6.0-2.10","","null","","trustrating_stim/white_00109_931230_fa_edt.bmp","null","","","","","","","","","","","",""
"","","","rating","63f58712a2c1bd62fa7bb352","bdp_trlrn","Tue Mar 14 2023 18:50:01 GMT-0600 (Mountain Daylight Time)","490039","Trustworthy,Untrustworthy","image-keyboard-response","29","57335","0.0-6.0-1.11","","852","","trustrating_stim/white_00761_941201_fb_edt.bmp","2","","","","","","","","","","","",""
"","","","ratingFB","63f58712a2c1bd62fa7bb352","bdp_trlrn","Tue Mar 14 2023 18:50:01 GMT-0600 (Mountain Daylight Time)","490039","Trustworthy,Untrustworthy","image-keyboard-response","30","57547","0.0-6.0-2.11","","null","","trustrating_stim/white_00761_941201_fb_edt.bmp","null","","","","","","","","","","","",""
"","","","rating","63f58712a2c1bd62fa7bb352","bdp_trlrn","Tue Mar 14 2023 18:50:01 GMT-0600 (Mountain Daylight Time)","490039","Trustworthy,Untrustworthy","image-keyboard-response","31","58407","0.0-6.0-1.12","","759","","trustrating_stim/white_00898_960530_fa_edt.bmp","8","","","","","","","","","","","",""
"","","","ratingFB","63f58712a2c1bd62fa7bb352","bdp_trlrn","Tue Mar 14 2023 18:50:01 GMT-0600 (Mountain Daylight Time)","490039","Trustworthy,Untrustworthy","image-keyboard-response","32","58609","0.0-6.0-2.12","","null","","trustrating_stim/white_00898_960530_fa_edt.bmp","null","","","","","","","","","","","",""
"","","","rating","63f58712a2c1bd62fa7bb352","bdp_trlrn","Tue Mar 14 2023 18:50:01 GMT-0600 (Mountain Daylight Time)","490039","Trustworthy,Untrustworthy","image-keyboard-response","33","60095","0.0-6.0-1.13","","1385","","trustrating_stim/white_00129_931230_fb_edt.bmp","8","","","","","","","","","","","",""
"","","","ratingFB","63f58712a2c1bd62fa7bb352","bdp_trlrn","Tue Mar 14 2023 18:50:01 GMT-0600 (Mountain Daylight Time)","490039","Trustworthy,Untrustworthy","image-keyboard-response","34","60316","0.0-6.0-2.13","","null","","trustrating_stim/white_00129_931230_fb_edt.bmp","null","","","","","","","","","","","",""
"","","","rating","63f58712a2c1bd62fa7bb352","bdp_trlrn","Tue Mar 14 2023 18:50:01 GMT-0600 (Mountain Daylight Time)","490039","Trustworthy,Untrustworthy","image-keyboard-response","35","62479","0.0-6.0-1.14","","2051","","trustrating_stim/white_00120_931230_fa_edt.bmp","7","","","","","","","","","","","",""
"","","","ratingFB","63f58712a2c1bd62fa7bb352","bdp_trlrn","Tue Mar 14 2023 18:50:01 GMT-0600 (Mountain Daylight Time)","490039","Trustworthy,Untrustworthy","image-keyboard-response","36","62685","0.0-6.0-2.14","","null","","trustrating_stim/white_00120_931230_fa_edt.bmp","null","","","","","","","","","","","",""
"","","","rating","63f58712a2c1bd62fa7bb352","bdp_trlrn","Tue Mar 14 2023 18:50:01 GMT-0600 (Mountain Daylight Time)","490039","Trustworthy,Untrustworthy","image-keyboard-response","37","63679","0.0-6.0-1.15","","893","","trustrating_stim/white_mw060.bmp","2","","","","","","","","","","","",""
"","","","ratingFB","63f58712a2c1bd62fa7bb352","bdp_trlrn","Tue Mar 14 2023 18:50:01 GMT-0600 (Mountain Daylight Time)","490039","Trustworthy,Untrustworthy","image-keyboard-response","38","63880","0.0-6.0-2.15","","null","","trustrating_stim/white_mw060.bmp","null","","","","","","","","","","","",""
"","","","rating","63f58712a2c1bd62fa7bb352","bdp_trlrn","Tue Mar 14 2023 18:50:01 GMT-0600 (Mountain Daylight Time)","490039","Trustworthy,Untrustworthy","image-keyboard-response","39","64976","0.0-6.0-1.16","","992","","trustrating_stim/white_00519_940519_fb_edt.bmp","7","","","","","","","","","","","",""
"","","","ratingFB","63f58712a2c1bd62fa7bb352","bdp_trlrn","Tue Mar 14 2023 18:50:01 GMT-0600 (Mountain Daylight Time)","490039","Trustworthy,Untrustworthy","image-keyboard-response","40","65197","0.0-6.0-2.16","","null","","trustrating_stim/white_00519_940519_fb_edt.bmp","null","","","","","","","","","","","",""
"","","","rating","63f58712a2c1bd62fa7bb352","bdp_trlrn","Tue Mar 14 2023 18:50:01 GMT-0600 (Mountain Daylight Time)","490039","Trustworthy,Untrustworthy","image-keyboard-response","41","66136","0.0-6.0-1.17","","828","","trustrating_stim/white_mw046.bmp","3","","","","","","","","","","","",""
"","","","ratingFB","63f58712a2c1bd62fa7bb352","bdp_trlrn","Tue Mar 14 2023 18:50:01 GMT-0600 (Mountain Daylight Time)","490039","Trustworthy,Untrustworthy","image-keyboard-response","42","66350","0.0-6.0-2.17","","null","","trustrating_stim/white_mw046.bmp","null","","","","","","","","","","","",""
"","","","rating","63f58712a2c1bd62fa7bb352","bdp_trlrn","Tue Mar 14 2023 18:50:01 GMT-0600 (Mountain Daylight Time)","490039","Trustworthy,Untrustworthy","image-keyboard-response","43","67760","0.0-6.0-1.18","","1288","","trustrating_stim/white_mw033.bmp","7","","","","","","","","","","","",""
"","","","ratingFB","63f58712a2c1bd62fa7bb352","bdp_trlrn","Tue Mar 14 2023 18:50:01 GMT-0600 (Mountain Daylight Time)","490039","Trustworthy,Untrustworthy","image-keyboard-response","44","67965","0.0-6.0-2.18","","null","","trustrating_stim/white_mw033.bmp","null","","","","","","","","","","","",""
"","","","rating","63f58712a2c1bd62fa7bb352","bdp_trlrn","Tue Mar 14 2023 18:50:01 GMT-0600 (Mountain Daylight Time)","490039","Trustworthy,Untrustworthy","image-keyboard-response","45","69512","0.0-6.0-1.19","","1445","","trustrating_stim/white_mw066.bmp","8","","","","","","","","","","","",""
"","","","ratingFB","63f58712a2c1bd62fa7bb352","bdp_trlrn","Tue Mar 14 2023 18:50:01 GMT-0600 (Mountain Daylight Time)","490039","Trustworthy,Untrustworthy","image-keyboard-response","46","69728","0.0-6.0-2.19","","null","","trustrating_stim/white_mw066.bmp","null","","","","","","","","","","","",""
"","","","rating","63f58712a2c1bd62fa7bb352","bdp_trlrn","Tue Mar 14 2023 18:50:01 GMT-0600 (Mountain Daylight Time)","490039","Trustworthy,Untrustworthy","image-keyboard-response","47","70849","0.0-6.0-1.20","","1000","","trustrating_stim/white_mw063.bmp","2","","","","","","","","","","","",""
"","","","ratingFB","63f58712a2c1bd62fa7bb352","bdp_trlrn","Tue Mar 14 2023 18:50:01 GMT-0600 (Mountain Daylight Time)","490039","Trustworthy,Untrustworthy","image-keyboard-response","48","71051","0.0-6.0-2.20","","null","","trustrating_stim/white_mw063.bmp","null","","","","","","","","","","","",""
"","","","rating","63f58712a2c1bd62fa7bb352","bdp_trlrn","Tue Mar 14 2023 18:50:01 GMT-0600 (Mountain Daylight Time)","490039","Trustworthy,Untrustworthy","image-keyboard-response","49","72400","0.0-6.0-1.21","","1238","","trustrating_stim/white_mw097.bmp","1","","","","","","","","","","","",""
"","","","ratingFB","63f58712a2c1bd62fa7bb352","bdp_trlrn","Tue Mar 14 2023 18:50:01 GMT-0600 (Mountain Daylight Time)","490039","Trustworthy,Untrustworthy","image-keyboard-response","50","72607","0.0-6.0-2.21","","null","","trustrating_stim/white_mw097.bmp","null","","","","","","","","","","","",""
"","","","rating","63f58712a2c1bd62fa7bb352","bdp_trlrn","Tue Mar 14 2023 18:50:01 GMT-0600 (Mountain Daylight Time)","490039","Trustworthy,Untrustworthy","image-keyboard-response","51","73601","0.0-6.0-1.22","","891","","trustrating_stim/white_00577_940928_fa_edt.bmp","2","","","","","","","","","","","",""
"","","","ratingFB","63f58712a2c1bd62fa7bb352","bdp_trlrn","Tue Mar 14 2023 18:50:01 GMT-0600 (Mountain Daylight Time)","490039","Trustworthy,Untrustworthy","image-keyboard-response","52","73815","0.0-6.0-2.22","","null","","trustrating_stim/white_00577_940928_fa_edt.bmp","null","","","","","","","","","","","",""
"","","","rating","63f58712a2c1bd62fa7bb352","bdp_trlrn","Tue Mar 14 2023 18:50:01 GMT-0600 (Mountain Daylight Time)","490039","Trustworthy,Untrustworthy","image-keyboard-response","53","74825","0.0-6.0-1.23","","887","","trustrating_stim/white_mw089.bmp","1","","","","","","","","","","","",""
"","","","ratingFB","63f58712a2c1bd62fa7bb352","bdp_trlrn","Tue Mar 14 2023 18:50:01 GMT-0600 (Mountain Daylight Time)","490039","Trustworthy,Untrustworthy","image-keyboard-response","54","75026","0.0-6.0-2.23","","null","","trustrating_stim/white_mw089.bmp","null","","","","","","","","","","","",""
"","","","rating","63f58712a2c1bd62fa7bb352","bdp_trlrn","Tue Mar 14 2023 18:50:01 GMT-0600 (Mountain Daylight Time)","490039","Trustworthy,Untrustworthy","image-keyboard-response","55","76193","0.0-6.0-1.24","","1064","","trustrating_stim/white_00659_941121_fa_edt.bmp","7","","","","","","","","","","","",""
"","","","ratingFB","63f58712a2c1bd62fa7bb352","bdp_trlrn","Tue Mar 14 2023 18:50:01 GMT-0600 (Mountain Daylight Time)","490039","Trustworthy,Untrustworthy","image-keyboard-response","56","76395","0.0-6.0-2.24","","null","","trustrating_stim/white_00659_941121_fa_edt.bmp","null","","","","","","","","","","","",""
"","","","rating","63f58712a2c1bd62fa7bb352","bdp_trlrn","Tue Mar 14 2023 18:50:01 GMT-0600 (Mountain Daylight Time)","490039","Trustworthy,Untrustworthy","image-keyboard-response","57","77593","0.0-6.0-1.25","","1090","","trustrating_stim/white_00223_940128_fb_edt.bmp","7","","","","","","","","","","","",""
"","","","ratingFB","63f58712a2c1bd62fa7bb352","bdp_trlrn","Tue Mar 14 2023 18:50:01 GMT-0600 (Mountain Daylight Time)","490039","Trustworthy,Untrustworthy","image-keyboard-response","58","77802","0.0-6.0-2.25","","null","","trustrating_stim/white_00223_940128_fb_edt.bmp","null","","","","","","","","","","","",""
"","","","rating","63f58712a2c1bd62fa7bb352","bdp_trlrn","Tue Mar 14 2023 18:50:01 GMT-0600 (Mountain Daylight Time)","490039","Trustworthy,Untrustworthy","image-keyboard-response","59","78745","0.0-6.0-1.26","","823","","trustrating_stim/white_mw053.bmp","7","","","","","","","","","","","",""
"","","","ratingFB","63f58712a2c1bd62fa7bb352","bdp_trlrn","Tue Mar 14 2023 18:50:01 GMT-0600 (Mountain Daylight Time)","490039","Trustworthy,Untrustworthy","image-keyboard-response","60","78959","0.0-6.0-2.26","","null","","trustrating_stim/white_mw053.bmp","null","","","","","","","","","","","",""
"","","","rating","63f58712a2c1bd62fa7bb352","bdp_trlrn","Tue Mar 14 2023 18:50:01 GMT-0600 (Mountain Daylight Time)","490039","Trustworthy,Untrustworthy","image-keyboard-response","61","80002","0.0-6.0-1.27","","941","","trustrating_stim/white_mw071.bmp","8","","","","","","","","","","","",""
"","","","ratingFB","63f58712a2c1bd62fa7bb352","bdp_trlrn","Tue Mar 14 2023 18:50:01 GMT-0600 (Mountain Daylight Time)","490039","Trustworthy,Untrustworthy","image-keyboard-response","62","80202","0.0-6.0-2.27","","null","","trustrating_stim/white_mw071.bmp","null","","","","","","","","","","","",""
"","","","rating","63f58712a2c1bd62fa7bb352","bdp_trlrn","Tue Mar 14 2023 18:50:01 GMT-0600 (Mountain Daylight Time)","490039","Trustworthy,Untrustworthy","image-keyboard-response","63","81225","0.0-6.0-1.28","","906","","trustrating_stim/white_mw048.bmp","1","","","","","","","","","","","",""
"","","","ratingFB","63f58712a2c1bd62fa7bb352","bdp_trlrn","Tue Mar 14 2023 18:50:01 GMT-0600 (Mountain Daylight Time)","490039","Trustworthy,Untrustworthy","image-keyboard-response","64","81435","0.0-6.0-2.28","","null","","trustrating_stim/white_mw048.bmp","null","","","","","","","","","","","",""
"","","","rating","63f58712a2c1bd62fa7bb352","bdp_trlrn","Tue Mar 14 2023 18:50:01 GMT-0600 (Mountain Daylight Time)","490039","Trustworthy,Untrustworthy","image-keyboard-response","65","82850","0.0-6.0-1.29","","1313","","trustrating_stim/white_00340_940422_fa_edt.bmp","1","","","","","","","","","","","",""
"","","","ratingFB","63f58712a2c1bd62fa7bb352","bdp_trlrn","Tue Mar 14 2023 18:50:01 GMT-0600 (Mountain Daylight Time)","490039","Trustworthy,Untrustworthy","image-keyboard-response","66","83066","0.0-6.0-2.29","","null","","trustrating_stim/white_00340_940422_fa_edt.bmp","null","","","","","","","","","","","",""
"","","","rating","63f58712a2c1bd62fa7bb352","bdp_trlrn","Tue Mar 14 2023 18:50:01 GMT-0600 (Mountain Daylight Time)","490039","Trustworthy,Untrustworthy","image-keyboard-response","67","84274","0.0-6.0-1.30","","1106","","trustrating_stim/white_mw084.bmp","7","","","","","","","","","","","",""
"","","","ratingFB","63f58712a2c1bd62fa7bb352","bdp_trlrn","Tue Mar 14 2023 18:50:01 GMT-0600 (Mountain Daylight Time)","490039","Trustworthy,Untrustworthy","image-keyboard-response","68","84490","0.0-6.0-2.30","","null","","trustrating_stim/white_mw084.bmp","null","","","","","","","","","","","",""
"","","","rating","63f58712a2c1bd62fa7bb352","bdp_trlrn","Tue Mar 14 2023 18:50:01 GMT-0600 (Mountain Daylight Time)","490039","Trustworthy,Untrustworthy","image-keyboard-response","69","85298","0.0-6.0-1.31","","706","","trustrating_stim/white_00340_940422_fa_edt.bmp","1","","","","","","","","","","","",""
"","","","ratingFB","63f58712a2c1bd62fa7bb352","bdp_trlrn","Tue Mar 14 2023 18:50:01 GMT-0600 (Mountain Daylight Time)","490039","Trustworthy,Untrustworthy","image-keyboard-response","70","85516","0.0-6.0-2.31","","null","","trustrating_stim/white_00340_940422_fa_edt.bmp","null","","","","","","","","","","","",""
"","","","rating","63f58712a2c1bd62fa7bb352","bdp_trlrn","Tue Mar 14 2023 18:50:01 GMT-0600 (Mountain Daylight Time)","490039","Trustworthy,Untrustworthy","image-keyboard-response","71","86946","0.0-6.0-1.32","","1319","","trustrating_stim/white_00602_940928_fb_edt.bmp","7","","","","","","","","","","","",""
"","","","ratingFB","63f58712a2c1bd62fa7bb352","bdp_trlrn","Tue Mar 14 2023 18:50:01 GMT-0600 (Mountain Daylight Time)","490039","Trustworthy,Untrustworthy","image-keyboard-response","72","87146","0.0-6.0-2.32","","null","","trustrating_stim/white_00602_940928_fb_edt.bmp","null","","","","","","","","","","","",""
"","","","rating","63f58712a2c1bd62fa7bb352","bdp_trlrn","Tue Mar 14 2023 18:50:01 GMT-0600 (Mountain Daylight Time)","490039","Trustworthy,Untrustworthy","image-keyboard-response","73","87962","0.0-6.0-1.33","","694","","trustrating_stim/white_00785_941205_fb_edt.bmp","1","","","","","","","","","","","",""
"","","","ratingFB","63f58712a2c1bd62fa7bb352","bdp_trlrn","Tue Mar 14 2023 18:50:01 GMT-0600 (Mountain Daylight Time)","490039","Trustworthy,Untrustworthy","image-keyboard-response","74","88173","0.0-6.0-2.33","","null","","trustrating_stim/white_00785_941205_fb_edt.bmp","null","","","","","","","","","","","",""
"","","","rating","63f58712a2c1bd62fa7bb352","bdp_trlrn","Tue Mar 14 2023 18:50:01 GMT-0600 (Mountain Daylight Time)","490039","Trustworthy,Untrustworthy","image-keyboard-response","75","89010","0.0-6.0-1.34","","734","","trustrating_stim/white_mw053.bmp","7","","","","","","","","","","","",""
"","","","ratingFB","63f58712a2c1bd62fa7bb352","bdp_trlrn","Tue Mar 14 2023 18:50:01 GMT-0600 (Mountain Daylight Time)","490039","Trustworthy,Untrustworthy","image-keyboard-response","76","89217","0.0-6.0-2.34","","null","","trustrating_stim/white_mw053.bmp","null","","","","","","","","","","","",""
"","","","rating","63f58712a2c1bd62fa7bb352","bdp_trlrn","Tue Mar 14 2023 18:50:01 GMT-0600 (Mountain Daylight Time)","490039","Trustworthy,Untrustworthy","image-keyboard-response","77","90362","0.0-6.0-1.35","","1024","","trustrating_stim/white_mw056.bmp","8","","","","","","","","","","","",""
"","","","ratingFB","63f58712a2c1bd62fa7bb352","bdp_trlrn","Tue Mar 14 2023 18:50:01 GMT-0600 (Mountain Daylight Time)","490039","Trustworthy,Untrustworthy","image-keyboard-response","78","90579","0.0-6.0-2.35","","null","","trustrating_stim/white_mw056.bmp","null","","","","","","","","","","","",""
"","","","rating","63f58712a2c1bd62fa7bb352","bdp_trlrn","Tue Mar 14 2023 18:50:01 GMT-0600 (Mountain Daylight Time)","490039","Trustworthy,Untrustworthy","image-keyboard-response","79","91826","0.0-6.0-1.36","","1144","","trustrating_stim/white_00109_931230_fa_edt.bmp","1","","","","","","","","","","","",""
"","","","ratingFB","63f58712a2c1bd62fa7bb352","bdp_trlrn","Tue Mar 14 2023 18:50:01 GMT-0600 (Mountain Daylight Time)","490039","Trustworthy,Untrustworthy","image-keyboard-response","80","92047","0.0-6.0-2.36","","null","","trustrating_stim/white_00109_931230_fa_edt.bmp","null","","","","","","","","","","","",""
"","","","rating","63f58712a2c1bd62fa7bb352","bdp_trlrn","Tue Mar 14 2023 18:50:01 GMT-0600 (Mountain Daylight Time)","490039","Trustworthy,Untrustworthy","image-keyboard-response","81","93067","0.0-6.0-1.37","","918","","trustrating_stim/white_00223_940128_fb_edt.bmp","7","","","","","","","","","","","",""
"","","","ratingFB","63f58712a2c1bd62fa7bb352","bdp_trlrn","Tue Mar 14 2023 18:50:01 GMT-0600 (Mountain Daylight Time)","490039","Trustworthy,Untrustworthy","image-keyboard-response","82","93273","0.0-6.0-2.37","","null","","trustrating_stim/white_00223_940128_fb_edt.bmp","null","","","","","","","","","","","",""
"","","","rating","63f58712a2c1bd62fa7bb352","bdp_trlrn","Tue Mar 14 2023 18:50:01 GMT-0600 (Mountain Daylight Time)","490039","Trustworthy,Untrustworthy","image-keyboard-response","83","94499","0.0-6.0-1.38","","1126","","trustrating_stim/white_00129_931230_fb_edt.bmp","1","","","","","","","","","","","",""
"","","","ratingFB","63f58712a2c1bd62fa7bb352","bdp_trlrn","Tue Mar 14 2023 18:50:01 GMT-0600 (Mountain Daylight Time)","490039","Trustworthy,Untrustworthy","image-keyboard-response","84","94718","0.0-6.0-2.38","","null","","trustrating_stim/white_00129_931230_fb_edt.bmp","null","","","","","","","","","","","",""
"","","","rating","63f58712a2c1bd62fa7bb352","bdp_trlrn","Tue Mar 14 2023 18:50:01 GMT-0600 (Mountain Daylight Time)","490039","Trustworthy,Untrustworthy","image-keyboard-response","85","96013","0.0-6.0-1.39","","1194","","trustrating_stim/white_00299_940422_fa_edt.bmp","1","","","","","","","","","","","",""
"","","","ratingFB","63f58712a2c1bd62fa7bb352","bdp_trlrn","Tue Mar 14 2023 18:50:01 GMT-0600 (Mountain Daylight Time)","490039","Trustworthy,Untrustworthy","image-keyboard-response","86","96229","0.0-6.0-2.39","","null","","trustrating_stim/white_00299_940422_fa_edt.bmp","null","","","","","","","","","","","",""
"","","","rating","63f58712a2c1bd62fa7bb352","bdp_trlrn","Tue Mar 14 2023 18:50:01 GMT-0600 (Mountain Daylight Time)","490039","Trustworthy,Untrustworthy","image-keyboard-response","87","97132","0.0-6.0-1.40","","801","","trustrating_stim/white_00659_941121_fa_edt.bmp","1","","","","","","","","","","","",""
"","","","ratingFB","63f58712a2c1bd62fa7bb352","bdp_trlrn","Tue Mar 14 2023 18:50:01 GMT-0600 (Mountain Daylight Time)","490039","Trustworthy,Untrustworthy","image-keyboard-response","88","97337","0.0-6.0-2.40","","null","","trustrating_stim/white_00659_941121_fa_edt.bmp","null","","","","","","","","","","","",""
"","","","rating","63f58712a2c1bd62fa7bb352","bdp_trlrn","Tue Mar 14 2023 18:50:01 GMT-0600 (Mountain Daylight Time)","490039","Trustworthy,Untrustworthy","image-keyboard-response","89","98844","0.0-6.0-1.41","","1392","","trustrating_stim/white_mw035.bmp","8","","","","","","","","","","","",""
"","","","ratingFB","63f58712a2c1bd62fa7bb352","bdp_trlrn","Tue Mar 14 2023 18:50:01 GMT-0600 (Mountain Daylight Time)","490039","Trustworthy,Untrustworthy","image-keyboard-response","90","99062","0.0-6.0-2.41","","null","","trustrating_stim/white_mw035.bmp","null","","","","","","","","","","","",""
"","","","rating","63f58712a2c1bd62fa7bb352","bdp_trlrn","Tue Mar 14 2023 18:50:01 GMT-0600 (Mountain Daylight Time)","490039","Trustworthy,Untrustworthy","image-keyboard-response","91","99836","0.0-6.0-1.42","","653","","trustrating_stim/white_00761_941201_fb_edt.bmp","1","","","","","","","","","","","",""
"","","","ratingFB","63f58712a2c1bd62fa7bb352","bdp_trlrn","Tue Mar 14 2023 18:50:01 GMT-0600 (Mountain Daylight Time)","490039","Trustworthy,Untrustworthy","image-keyboard-response","92","100052","0.0-6.0-2.42","","null","","trustrating_stim/white_00761_941201_fb_edt.bmp","null","","","","","","","","","","","",""
"","","","rating","63f58712a2c1bd62fa7bb352","bdp_trlrn","Tue Mar 14 2023 18:50:01 GMT-0600 (Mountain Daylight Time)","490039","Trustworthy,Untrustworthy","image-keyboard-response","93","101180","0.0-6.0-1.43","","1025","","trustrating_stim/white_00757_941201_fa_edt.bmp","7","","","","","","","","","","","",""
"","","","ratingFB","63f58712a2c1bd62fa7bb352","bdp_trlrn","Tue Mar 14 2023 18:50:01 GMT-0600 (Mountain Daylight Time)","490039","Trustworthy,Untrustworthy","image-keyboard-response","94","101380","0.0-6.0-2.43","","null","","trustrating_stim/white_00757_941201_fa_edt.bmp","null","","","","","","","","","","","",""
"","","","rating","63f58712a2c1bd62fa7bb352","bdp_trlrn","Tue Mar 14 2023 18:50:01 GMT-0600 (Mountain Daylight Time)","490039","Trustworthy,Untrustworthy","image-keyboard-response","95","102932","0.0-6.0-1.44","","1450","","trustrating_stim/white_mw046.bmp","1","","","","","","","","","","","",""
"","","","ratingFB","63f58712a2c1bd62fa7bb352","bdp_trlrn","Tue Mar 14 2023 18:50:01 GMT-0600 (Mountain Daylight Time)","490039","Trustworthy,Untrustworthy","image-keyboard-response","96","103145","0.0-6.0-2.44","","null","","trustrating_stim/white_mw046.bmp","null","","","","","","","","","","","",""
"","","","rating","63f58712a2c1bd62fa7bb352","bdp_trlrn","Tue Mar 14 2023 18:50:01 GMT-0600 (Mountain Daylight Time)","490039","Trustworthy,Untrustworthy","image-keyboard-response","97","104108","0.0-6.0-1.45","","844","","trustrating_stim/white_00577_940928_fa_edt.bmp","1","","","","","","","","","","","",""
"","","","ratingFB","63f58712a2c1bd62fa7bb352","bdp_trlrn","Tue Mar 14 2023 18:50:01 GMT-0600 (Mountain Daylight Time)","490039","Trustworthy,Untrustworthy","image-keyboard-response","98","104317","0.0-6.0-2.45","","null","","trustrating_stim/white_00577_940928_fa_edt.bmp","null","","","","","","","","","","","",""
"","","","rating","63f58712a2c1bd62fa7bb352","bdp_trlrn","Tue Mar 14 2023 18:50:01 GMT-0600 (Mountain Daylight Time)","490039","Trustworthy,Untrustworthy","image-keyboard-response","99","105068","0.0-6.0-1.46","","650","","trustrating_stim/white_mw060.bmp","1","","","","","","","","","","","",""
"","","","ratingFB","63f58712a2c1bd62fa7bb352","bdp_trlrn","Tue Mar 14 2023 18:50:01 GMT-0600 (Mountain Daylight Time)","490039","Trustworthy,Untrustworthy","image-keyboard-response","100","105288","0.0-6.0-2.46","","null","","trustrating_stim/white_mw060.bmp","null","","","","","","","","","","","",""
"","","","rating","63f58712a2c1bd62fa7bb352","bdp_trlrn","Tue Mar 14 2023 18:50:01 GMT-0600 (Mountain Daylight Time)","490039","Trustworthy,Untrustworthy","image-keyboard-response","101","105997","0.0-6.0-1.47","","607","","trustrating_stim/white_mw089.bmp","1","","","","","","","","","","","",""
"","","","ratingFB","63f58712a2c1bd62fa7bb352","bdp_trlrn","Tue Mar 14 2023 18:50:01 GMT-0600 (Mountain Daylight Time)","490039","Trustworthy,Untrustworthy","image-keyboard-response","102","106206","0.0-6.0-2.47","","null","","trustrating_stim/white_mw089.bmp","null","","","","","","","","","","","",""
"","","","rating","63f58712a2c1bd62fa7bb352","bdp_trlrn","Tue Mar 14 2023 18:50:01 GMT-0600 (Mountain Daylight Time)","490039","Trustworthy,Untrustworthy","image-keyboard-response","103","107396","0.0-6.0-1.48","","1070","","trustrating_stim/white_00120_931230_fa_edt.bmp","8","","","","","","","","","","","",""
"","","","ratingFB","63f58712a2c1bd62fa7bb352","bdp_trlrn","Tue Mar 14 2023 18:50:01 GMT-0600 (Mountain Daylight Time)","490039","Trustworthy,Untrustworthy","image-keyboard-response","104","107610","0.0-6.0-2.48","","null","","trustrating_stim/white_00120_931230_fa_edt.bmp","null","","","","","","","","","","","",""
"","","","rating","63f58712a2c1bd62fa7bb352","bdp_trlrn","Tue Mar 14 2023 18:50:01 GMT-0600 (Mountain Daylight Time)","490039","Trustworthy,Untrustworthy","image-keyboard-response","105","108924","0.0-6.0-1.49","","1213","","trustrating_stim/white_00519_940519_fb_edt.bmp","8","","","","","","","","","","","",""
"","","","ratingFB","63f58712a2c1bd62fa7bb352","bdp_trlrn","Tue Mar 14 2023 18:50:01 GMT-0600 (Mountain Daylight Time)","490039","Trustworthy,Untrustworthy","image-keyboard-response","106","109137","0.0-6.0-2.49","","null","","trustrating_stim/white_00519_940519_fb_edt.bmp","null","","","","","","","","","","","",""
"","","","rating","63f58712a2c1bd62fa7bb352","bdp_trlrn","Tue Mar 14 2023 18:50:01 GMT-0600 (Mountain Daylight Time)","490039","Trustworthy,Untrustworthy","image-keyboard-response","107","110325","0.0-6.0-1.50","","1076","","trustrating_stim/white_mw049.bmp","8","","","","","","","","","","","",""
"","","","ratingFB","63f58712a2c1bd62fa7bb352","bdp_trlrn","Tue Mar 14 2023 18:50:01 GMT-0600 (Mountain Daylight Time)","490039","Trustworthy,Untrustworthy","image-keyboard-response","108","110535","0.0-6.0-2.50","","null","","trustrating_stim/white_mw049.bmp","null","","","","","","","","","","","",""
"","","","rating","63f58712a2c1bd62fa7bb352","bdp_trlrn","Tue Mar 14 2023 18:50:01 GMT-0600 (Mountain Daylight Time)","490039","Trustworthy,Untrustworthy","image-keyboard-response","109","111604","0.0-6.0-1.51","","953","","trustrating_stim/white_mw099.bmp","1","","","","","","","","","","","",""
"","","","ratingFB","63f58712a2c1bd62fa7bb352","bdp_trlrn","Tue Mar 14 2023 18:50:01 GMT-0600 (Mountain Daylight Time)","490039","Trustworthy,Untrustworthy","image-keyboard-response","110","111820","0.0-6.0-2.51","","null","","trustrating_stim/white_mw099.bmp","null","","","","","","","","","","","",""
"","","","rating","63f58712a2c1bd62fa7bb352","bdp_trlrn","Tue Mar 14 2023 18:50:01 GMT-0600 (Mountain Daylight Time)","490039","Trustworthy,Untrustworthy","image-keyboard-response","111","113229","0.0-6.0-1.52","","1293","","trustrating_stim/white_mw066.bmp","8","","","","","","","","","","","",""
"","","","ratingFB","63f58712a2c1bd62fa7bb352","bdp_trlrn","Tue Mar 14 2023 18:50:01 GMT-0600 (Mountain Daylight Time)","490039","Trustworthy,Untrustworthy","image-keyboard-response","112","113441","0.0-6.0-2.52","","null","","trustrating_stim/white_mw066.bmp","null","","","","","","","","","","","",""
"","","","rating","63f58712a2c1bd62fa7bb352","bdp_trlrn","Tue Mar 14 2023 18:50:01 GMT-0600 (Mountain Daylight Time)","490039","Trustworthy,Untrustworthy","image-keyboard-response","113","114221","0.0-6.0-1.53","","678","","trustrating_stim/white_mw033.bmp","1","","","","","","","","","","","",""
"","","","ratingFB","63f58712a2c1bd62fa7bb352","bdp_trlrn","Tue Mar 14 2023 18:50:01 GMT-0600 (Mountain Daylight Time)","490039","Trustworthy,Untrustworthy","image-keyboard-response","114","114437","0.0-6.0-2.53","","null","","trustrating_stim/white_mw033.bmp","null","","","","","","","","","","","",""
"","","","rating","63f58712a2c1bd62fa7bb352","bdp_trlrn","Tue Mar 14 2023 18:50:01 GMT-0600 (Mountain Daylight Time)","490039","Trustworthy,Untrustworthy","image-keyboard-response","115","115189","0.0-6.0-1.54","","632","","trustrating_stim/white_mw048.bmp","8","","","","","","","","","","","",""
"","","","ratingFB","63f58712a2c1bd62fa7bb352","bdp_trlrn","Tue Mar 14 2023 18:50:01 GMT-0600 (Mountain Daylight Time)","490039","Trustworthy,Untrustworthy","image-keyboard-response","116","115390","0.0-6.0-2.54","","null","","trustrating_stim/white_mw048.bmp","null","","","","","","","","","","","",""
"","","","rating","63f58712a2c1bd62fa7bb352","bdp_trlrn","Tue Mar 14 2023 18:50:01 GMT-0600 (Mountain Daylight Time)","490039","Trustworthy,Untrustworthy","image-keyboard-response","117","116325","0.0-6.0-1.55","","814","","trustrating_stim/white_00898_960530_fa_edt.bmp","8","","","","","","","","","","","",""
"","","","ratingFB","63f58712a2c1bd62fa7bb352","bdp_trlrn","Tue Mar 14 2023 18:50:01 GMT-0600 (Mountain Daylight Time)","490039","Trustworthy,Untrustworthy","image-keyboard-response","118","116545","0.0-6.0-2.55","","null","","trustrating_stim/white_00898_960530_fa_edt.bmp","null","","","","","","","","","","","",""
"","","","rating","63f58712a2c1bd62fa7bb352","bdp_trlrn","Tue Mar 14 2023 18:50:01 GMT-0600 (Mountain Daylight Time)","490039","Trustworthy,Untrustworthy","image-keyboard-response","119","117357","0.0-6.0-1.56","","710","","trustrating_stim/white_mw063.bmp","1","","","","","","","","","","","",""
"","","","ratingFB","63f58712a2c1bd62fa7bb352","bdp_trlrn","Tue Mar 14 2023 18:50:01 GMT-0600 (Mountain Daylight Time)","490039","Trustworthy,Untrustworthy","image-keyboard-response","120","117559","0.0-6.0-2.56","","null","","trustrating_stim/white_mw063.bmp","null","","","","","","","","","","","",""
"","","","rating","63f58712a2c1bd62fa7bb352","bdp_trlrn","Tue Mar 14 2023 18:50:01 GMT-0600 (Mountain Daylight Time)","490039","Trustworthy,Untrustworthy","image-keyboard-response","121","118214","0.0-6.0-1.57","","553","","trustrating_stim/white_00807_941205_fb_edt.bmp","1","","","","","","","","","","","",""
"","","","ratingFB","63f58712a2c1bd62fa7bb352","bdp_trlrn","Tue Mar 14 2023 18:50:01 GMT-0600 (Mountain Daylight Time)","490039","Trustworthy,Untrustworthy","image-keyboard-response","122","118427","0.0-6.0-2.57","","null","","trustrating_stim/white_00807_941205_fb_edt.bmp","null","","","","","","","","","","","",""
"","","","rating","63f58712a2c1bd62fa7bb352","bdp_trlrn","Tue Mar 14 2023 18:50:01 GMT-0600 (Mountain Daylight Time)","490039","Trustworthy,Untrustworthy","image-keyboard-response","123","119310","0.0-6.0-1.58","","769","","trustrating_stim/white_mw071.bmp","8","","","","","","","","","","","",""
"","","","ratingFB","63f58712a2c1bd62fa7bb352","bdp_trlrn","Tue Mar 14 2023 18:50:01 GMT-0600 (Mountain Daylight Time)","490039","Trustworthy,Untrustworthy","image-keyboard-response","124","119518","0.0-6.0-2.58","","null","","trustrating_stim/white_mw071.bmp","null","","","","","","","","","","","",""
"","","","rating","63f58712a2c1bd62fa7bb352","bdp_trlrn","Tue Mar 14 2023 18:50:01 GMT-0600 (Mountain Daylight Time)","490039","Trustworthy,Untrustworthy","image-keyboard-response","125","120286","0.0-6.0-1.59","","666","","trustrating_stim/white_mw097.bmp","1","","","","","","","","","","","",""
"","","","ratingFB","63f58712a2c1bd62fa7bb352","bdp_trlrn","Tue Mar 14 2023 18:50:01 GMT-0600 (Mountain Daylight Time)","490039","Trustworthy,Untrustworthy","image-keyboard-response","126","120491","0.0-6.0-2.59","","null","","trustrating_stim/white_mw097.bmp","null","","","","","","","","","","","",""
"","","","","63f58712a2c1bd62fa7bb352","bdp_trlrn","Tue Mar 14 2023 18:50:01 GMT-0600 (Mountain Daylight Time)","490039","Trustworthy,Untrustworthy","instructions","127","121502","0.0-7.0","[{""page_index"":0,""viewing_time"":890}]","890","","","","","","","","","","","","","","",""
"","","","","63f58712a2c1bd62fa7bb352","bdp_trlrn","Tue Mar 14 2023 18:50:01 GMT-0600 (Mountain Daylight Time)","490039","Trustworthy,Untrustworthy","instructions","128","128015","0.0-8.0","[{""page_index"":0,""viewing_time"":880},{""page_index"":1,""viewing_time"":680},{""page_index"":2,""viewing_time"":752},{""page_index"":3,""viewing_time"":704},{""page_index"":4,""viewing_time"":680},{""page_index"":5,""viewing_time"":569},{""page_index"":6,""viewing_time"":1104},{""page_index"":7,""viewing_time"":1032}]","6401","","","","","","","","","","","","","","",""
"","","","","63f58712a2c1bd62fa7bb352","bdp_trlrn","Tue Mar 14 2023 18:50:01 GMT-0600 (Mountain Daylight Time)","490039","Trustworthy,Untrustworthy","html-keyboard-response","129","134728","0.0-9.0","","6713","","<div class='header' style='text-align:left; position: absolute; top: 5%; left: 5%;'><small>Task 2 of 5</small></div><div class='instruxDiv'><p><strong>1) What is the minimum number of points you can choose to send to your partner?</strong></p><p>a) 0</p><p>b) 1</p><p>c) 5</p>","B","","","","","","","","","","","",""
"","","","","63f58712a2c1bd62fa7bb352","bdp_trlrn","Tue Mar 14 2023 18:50:01 GMT-0600 (Mountain Daylight Time)","490039","Trustworthy,Untrustworthy","html-keyboard-response","130","135640","0.0-10.0","","809","","<div class='header' style='text-align:left; position: absolute; top: 5%; left: 5%;'><small>Task 2 of 5</small></div><div class='instruxDiv'><p><strong>1) What is the minimum number of points you can choose to send to your partner?</strong></p><p>a) 0</p><p style='color:#00FF00'>b) 1</p><p>c) 5</p><h3 style='color:#00FF00'>Correct!</h3><h3 class='center-content'>The correct response is b).</h3><h3 class='center-content'>The minimum number of points you can choose to send to your partner is 1 point.</h3><p><em>Press SPACEBAR to continue</em></p></div>"," ","","","","","","","","","","","",""
"","","","","63f58712a2c1bd62fa7bb352","bdp_trlrn","Tue Mar 14 2023 18:50:01 GMT-0600 (Mountain Daylight Time)","490039","Trustworthy,Untrustworthy","html-keyboard-response","131","138608","0.0-11.0","","2849","","<div class='header' style='text-align:left; position: absolute; top: 5%; left: 5%;'><small>Task 2 of 5</small></div><div class='instruxDiv'><p><strong>2) What is the maximum number of points you can choose to send to your partner?</strong></p><p>a) 8</p><p>b) 5</p><p>c) 3</p>","B","","","","","","","","","","","",""
"","","","","63f58712a2c1bd62fa7bb352","bdp_trlrn","Tue Mar 14 2023 18:50:01 GMT-0600 (Mountain Daylight Time)","490039","Trustworthy,Untrustworthy","html-keyboard-response","132","139144","0.0-12.0","","433","","<div class='header' style='text-align:left; position: absolute; top: 5%; left: 5%;'><small>Task 2 of 5</small></div><div class='instruxDiv'><p><strong>2) What is the maximum number of points you can choose to send to your partner?</strong></p><p>a) 8</p><p style='color:#00FF00'>b) 5</p><p>c) 3</p><h3 style='color:#00FF00'>Correct!</h3><h3 class='center-content'>The correct response is b).</h3><h3 class='center-content'>The maximum number of points you can choose to send to your partner is 5 points.</h3><p><em>Press SPACEBAR to continue</em></p></div>"," ","","","","","","","","","","","",""
"","","","","63f58712a2c1bd62fa7bb352","bdp_trlrn","Tue Mar 14 2023 18:50:01 GMT-0600 (Mountain Daylight Time)","490039","Trustworthy,Untrustworthy","html-keyboard-response","133","142345","0.0-13.0","","3089","","<div class='header' style='text-align:left; position: absolute; top: 5%; left: 5%;'><small>Task 2 of 5</small></div><div class='instruxDiv'><p><strong>3) What happens to the amount of points you send to your partner?</strong></p><p>a) Nothing</p><p>b) It doubles</p><p>c) It quadruples</p>","C","","","","","","","","","","","",""
"","","","","63f58712a2c1bd62fa7bb352","bdp_trlrn","Tue Mar 14 2023 18:50:01 GMT-0600 (Mountain Daylight Time)","490039","Trustworthy,Untrustworthy","html-keyboard-response","134","142769","0.0-14.0","","320","","<div class='header' style='text-align:left; position: absolute; top: 5%; left: 5%;'><small>Task 2 of 5</small></div><div class='instruxDiv'><p><strong>3) What happens to the amount of points you send to your partner?</strong></p><p>a) Nothing</p><p>b) It doubles</p><p style='color:#00FF00'>c) It quadruples</p><h3 style='color:#00FF00'>Correct!</h3><h3 class='center-content'>The correct response is c).</h3><h3 class='center-content'>The amount of points you send to your partner quadruples.</h3><p><em>Press SPACEBAR to continue</em></p></div>"," ","","","","","","","","","","","",""
"","","","","63f58712a2c1bd62fa7bb352","bdp_trlrn","Tue Mar 14 2023 18:50:01 GMT-0600 (Mountain Daylight Time)","490039","Trustworthy,Untrustworthy","html-keyboard-response","135","148394","0.0-15.0","","5509","","<div class='header' style='text-align:left; position: absolute; top: 5%; left: 5%;'><small>Task 2 of 5</small></div><div class='instruxDiv'><p><strong>4) If you decided to share 4 out of 5 points with your partner, and they decided to share half of the amount they received with you, how many points would you receive back from them on this round?</strong></p><p>a) 16</p><p>b) 0</p><p>c) 8</p>","C","","","","","","","","","","","",""
"","","","","63f58712a2c1bd62fa7bb352","bdp_trlrn","Tue Mar 14 2023 18:50:01 GMT-0600 (Mountain Daylight Time)","490039","Trustworthy,Untrustworthy","html-keyboard-response","136","149057","0.0-16.0","","560","","<div class='header' style='text-align:left; position: absolute; top: 5%; left: 5%;'><small>Task 2 of 5</small></div><div class='instruxDiv'><p><strong>4) If you decided to share 4 out of 5 points with your partner, and they decided to share half of the amount they received with you, how many points would you receive back from them on this round?</strong></p><p>a) 16</p><p>b) 0</p><p style='color:#00FF00'>c) 8</p><h3 style='color:#00FF00'>Correct!</h3><h3 class='center-content'>The correct response is c).</h3><h3 class='center-content'>If you shared 4 out of 5 points with your partner and they decided to share half of the amount they received with you, you would receive 8 points back (i.e. (4 x 4)/2 = 8).</h3><p><em>Press SPACEBAR to continue</em></p></div>"," ","","","","","","","","","","","",""
"","","","","63f58712a2c1bd62fa7bb352","bdp_trlrn","Tue Mar 14 2023 18:50:01 GMT-0600 (Mountain Daylight Time)","490039","Trustworthy,Untrustworthy","html-keyboard-response","137","154170","0.0-17.0","","null","","<div class='header' style='text-align:left; position: absolute; top: 5%; left: 5%;'><small>Task 2 of 5</small></div><div class='instruxDiv'><p>Thank you for completing the quiz<p>These are the actual partners you will be interacting with in the next block:<p><div class='tc' align='center'><img class='introPic' src='trustrating_stim/white_00785_941205_fb_edt.bmp'><br><strong>Joseph</strong></div><div class='bl' align='center'><img class='introPic' src='trustrating_stim/white_mw099.bmp'><br><strong>Michael</strong></div><div class='br' align='center'><img class='introPic' src='trustrating_stim/white_mw049.bmp'><br><strong>Alex</strong></div></div><p>Across <strong>66 rounds</strong> you will interact with each partner <strong>22 times</strong> (in random order).<p style='align:center; color:white'><font <em>Press SPACEBAR to continue</em></p>","null","","","","","","","","","","","",""
"","","","","63f58712a2c1bd62fa7bb352","bdp_trlrn","Tue Mar 14 2023 18:50:01 GMT-0600 (Mountain Daylight Time)","490039","Trustworthy,Untrustworthy","instructions","138","165028","0.0-18.0","[{""page_index"":0,""viewing_time"":4432},{""page_index"":1,""viewing_time"":6424}]","10856","","","","","","","","","","","","","","",""
"","","","decision","63f58712a2c1bd62fa7bb352","bdp_trlrn","Tue Mar 14 2023 18:50:01 GMT-0600 (Mountain Daylight Time)","490039","Trustworthy,Untrustworthy","html-keyboard-response","139","167044","0.0-19.0-1.0","","1914","","<div class='trialDiv'><img src='trustrating_stim/white_00785_941205_fb_edt.bmp'><br><font class='baseline'><strong>Joseph</strong><p>Choose number of points to send.</font><div class='respPicDiv'><img src='img/responseButtonOffersNo0L.png' class='respPic'></div></div>","1","","1","Joseph","2","Shared","0.8,0.35","12","0.8","trustrating_stim/white_00785_941205_fb_edt.bmp","1","5","1"
"","","","decisionFB","63f58712a2c1bd62fa7bb352","bdp_trlrn","Tue Mar 14 2023 18:50:01 GMT-0600 (Mountain Daylight Time)","490039","Trustworthy,Untrustworthy","html-keyboard-response","140","167304","0.0-19.0-2.0","","null","","<div class='trialDiv'><img src='trustrating_stim/white_00785_941205_fb_edt.bmp'><br><font class='baseline'><strong>Joseph</strong><p>Choose number of points to send.</font><div class='respPicDiv'><img src='img/responseButtonOffersNo0L1.png' class='respPic'></div></div>","null","","1","Joseph","2","Shared","0.8,0.35","12","0.8","trustrating_stim/white_00785_941205_fb_edt.bmp","1","4","1"
"","","","feedback","63f58712a2c1bd62fa7bb352","bdp_trlrn","Tue Mar 14 2023 18:50:01 GMT-0600 (Mountain Daylight Time)","490039","Trustworthy,Untrustworthy","html-keyboard-response","141","168306","0.0-19.0-3.0","","null","","<div class='trialDiv'><img src='trustrating_stim/white_00785_941205_fb_edt.bmp'><br><font class='baseline'><strong>Joseph</strong><p>Received: <strong>4</strong></font> &nbsp; &nbsp; &nbsp; &nbsp; &nbsp; &nbsp;<font class='posOutcome'>Shared back: <strong>2</strong></font></font><div class='respPicDiv'><img src='img/responseButtonOffersNo0_wht.png' class='respPic'></div></div>","null","","1","Joseph","2","Shared","0.8,0.35","12","0.8","trustrating_stim/white_00785_941205_fb_edt.bmp","1","6","1"
"","","","decision","63f58712a2c1bd62fa7bb352","bdp_trlrn","Tue Mar 14 2023 18:50:01 GMT-0600 (Mountain Daylight Time)","490039","Trustworthy,Untrustworthy","html-keyboard-response","142","169804","0.0-19.0-1.1","","1497","","<div class='trialDiv'><img src='trustrating_stim/white_mw099.bmp'><br><font class='baseline'><strong>Michael</strong><p>Choose number of points to send.</font><div class='respPicDiv'><img src='img/responseButtonOffersNo0L.png' class='respPic'></div></div>","1","","1","Michael","5","Kept","0.2,0.65","9","0.2","trustrating_stim/white_mw099.bmp","4.5","11","2"
"","","","decisionFB","63f58712a2c1bd62fa7bb352","bdp_trlrn","Tue Mar 14 2023 18:50:01 GMT-0600 (Mountain Daylight Time)","490039","Trustworthy,Untrustworthy","html-keyboard-response","143","170059","0.0-19.0-2.1","","null","","<div class='trialDiv'><img src='trustrating_stim/white_mw099.bmp'><br><font class='baseline'><strong>Michael</strong><p>Choose number of points to send.</font><div class='respPicDiv'><img src='img/responseButtonOffersNo0L1.png' class='respPic'></div></div>","null","","1","Michael","5","Kept","0.2,0.65","9","0.2","trustrating_stim/white_mw099.bmp","4.5","10","2"
"","","","feedback","63f58712a2c1bd62fa7bb352","bdp_trlrn","Tue Mar 14 2023 18:50:01 GMT-0600 (Mountain Daylight Time)","490039","Trustworthy,Untrustworthy","html-keyboard-response","144","171068","0.0-19.0-3.1","","null","","<div class='trialDiv'><img src='trustrating_stim/white_mw099.bmp'><br><font class='baseline'><strong>Michael</strong><p>Received: <strong>4</strong></font> &nbsp; &nbsp; &nbsp; &nbsp; &nbsp; &nbsp;<font class='negOutcome'>Shared back: <strong>0</strong></font></font><div class='respPicDiv'><img src='img/responseButtonOffersNo0_wht.png' class='respPic'></div></div>","null","","1","Michael","5","Kept","0.2,0.65","9","0.2","trustrating_stim/white_mw099.bmp","4.5","10","2"
"","","","decision","63f58712a2c1bd62fa7bb352","bdp_trlrn","Tue Mar 14 2023 18:50:01 GMT-0600 (Mountain Daylight Time)","490039","Trustworthy,Untrustworthy","html-keyboard-response","145","172309","0.0-19.0-1.2","","1239","","<div class='trialDiv'><img src='trustrating_stim/white_mw049.bmp'><br><font class='baseline'><strong>Alex</strong><p>Choose number of points to send.</font><div class='respPicDiv'><img src='img/responseButtonOffersNo0L.png' class='respPic'></div></div>","2","","1","Alex","9","Shared","0.65,0.35","10","0.65","trustrating_stim/white_mw049.bmp","8","15","3"
"","","","decisionFB","63f58712a2c1bd62fa7bb352","bdp_trlrn","Tue Mar 14 2023 18:50:01 GMT-0600 (Mountain Daylight Time)","490039","Trustworthy,Untrustworthy","html-keyboard-response","146","172561","0.0-19.0-2.2","","null","","<div class='trialDiv'><img src='trustrating_stim/white_mw049.bmp'><br><font class='baseline'><strong>Alex</strong><p>Choose number of points to send.</font><div class='respPicDiv'><img src='img/responseButtonOffersNo0L2.png' class='respPic'></div></div>","null","","1","Alex","9","Shared","0.65,0.35","10","0.65","trustrating_stim/white_mw049.bmp","8","13","3"
"","","","feedback","63f58712a2c1bd62fa7bb352","bdp_trlrn","Tue Mar 14 2023 18:50:01 GMT-0600 (Mountain Daylight Time)","490039","Trustworthy,Untrustworthy","html-keyboard-response","147","173579","0.0-19.0-3.2","","null","","<div class='trialDiv'><img src='trustrating_stim/white_mw049.bmp'><br><font class='baseline'><strong>Alex</strong><p>Received: <strong>8</strong></font> &nbsp; &nbsp; &nbsp; &nbsp; &nbsp; &nbsp;<font class='posOutcome'>Shared back: <strong>4</strong></font></font><div class='respPicDiv'><img src='img/responseButtonOffersNo0_wht.png' class='respPic'></div></div>","null","","1","Alex","9","Shared","0.65,0.35","10","0.65","trustrating_stim/white_mw049.bmp","8","17","3"
"","","","decision","63f58712a2c1bd62fa7bb352","bdp_trlrn","Tue Mar 14 2023 18:50:01 GMT-0600 (Mountain Daylight Time)","490039","Trustworthy,Untrustworthy","html-keyboard-response","148","175261","0.0-19.0-1.3","","1681","","<div class='trialDiv'><img src='trustrating_stim/white_00785_941205_fb_edt.bmp'><br><font class='baseline'><strong>Joseph</strong><p>Choose number of points to send.</font><div class='respPicDiv'><img src='img/responseButtonOffersNo0L.png' class='respPic'></div></div>","2","","2","Joseph","2","Kept","0.8,0.35","12","0.8","trustrating_stim/white_00785_941205_fb_edt.bmp","1","22","4"
"","","","decisionFB","63f58712a2c1bd62fa7bb352","bdp_trlrn","Tue Mar 14 2023 18:50:01 GMT-0600 (Mountain Daylight Time)","490039","Trustworthy,Untrustworthy","html-keyboard-response","149","175521","0.0-19.0-2.3","","null","","<div class='trialDiv'><img src='trustrating_stim/white_00785_941205_fb_edt.bmp'><br><font class='baseline'><strong>Joseph</strong><p>Choose number of points to send.</font><div class='respPicDiv'><img src='img/responseButtonOffersNo0L2.png' class='respPic'></div></div>","null","","2","Joseph","2","Kept","0.8,0.35","12","0.8","trustrating_stim/white_00785_941205_fb_edt.bmp","1","20","4"
"","","","feedback","63f58712a2c1bd62fa7bb352","bdp_trlrn","Tue Mar 14 2023 18:50:01 GMT-0600 (Mountain Daylight Time)","490039","Trustworthy,Untrustworthy","html-keyboard-response","150","176535","0.0-19.0-3.3","","null","","<div class='trialDiv'><img src='trustrating_stim/white_00785_941205_fb_edt.bmp'><br><font class='baseline'><strong>Joseph</strong><p>Received: <strong>8</strong></font> &nbsp; &nbsp; &nbsp; &nbsp; &nbsp; &nbsp;<font class='negOutcome'>Shared back: <strong>0</strong></font></font><div class='respPicDiv'><img src='img/responseButtonOffersNo0_wht.png' class='respPic'></div></div>","null","","2","Joseph","2","Kept","0.8,0.35","12","0.8","trustrating_stim/white_00785_941205_fb_edt.bmp","1","20","4"
"","","","decision","63f58712a2c1bd62fa7bb352","bdp_trlrn","Tue Mar 14 2023 18:50:01 GMT-0600 (Mountain Daylight Time)","490039","Trustworthy,Untrustworthy","html-keyboard-response","151","177508","0.0-19.0-1.4","","973","","<div class='trialDiv'><img src='trustrating_stim/white_mw049.bmp'><br><font class='baseline'><strong>Alex</strong><p>Choose number of points to send.</font><div class='respPicDiv'><img src='img/responseButtonOffersNo0L.png' class='respPic'></div></div>","2","","2","Alex","9","Kept","0.65,0.35","10","0.65","trustrating_stim/white_mw049.bmp","8","25","5"
"","","","decisionFB","63f58712a2c1bd62fa7bb352","bdp_trlrn","Tue Mar 14 2023 18:50:01 GMT-0600 (Mountain Daylight Time)","490039","Trustworthy,Untrustworthy","html-keyboard-response","152","177774","0.0-19.0-2.4","","null","","<div class='trialDiv'><img src='trustrating_stim/white_mw049.bmp'><br><font class='baseline'><strong>Alex</strong><p>Choose number of points to send.</font><div class='respPicDiv'><img src='img/responseButtonOffersNo0L2.png' class='respPic'></div></div>","null","","2","Alex","9","Kept","0.65,0.35","10","0.65","trustrating_stim/white_mw049.bmp","8","23","5"
"","","","feedback","63f58712a2c1bd62fa7bb352","bdp_trlrn","Tue Mar 14 2023 18:50:01 GMT-0600 (Mountain Daylight Time)","490039","Trustworthy,Untrustworthy","html-keyboard-response","153","178787","0.0-19.0-3.4","","null","","<div class='trialDiv'><img src='trustrating_stim/white_mw049.bmp'><br><font class='baseline'><strong>Alex</strong><p>Received: <strong>8</strong></font> &nbsp; &nbsp; &nbsp; &nbsp; &nbsp; &nbsp;<font class='negOutcome'>Shared back: <strong>0</strong></font></font><div class='respPicDiv'><img src='img/responseButtonOffersNo0_wht.png' class='respPic'></div></div>","null","","2","Alex","9","Kept","0.65,0.35","10","0.65","trustrating_stim/white_mw049.bmp","8","23","5"
"","","","decision","63f58712a2c1bd62fa7bb352","bdp_trlrn","Tue Mar 14 2023 18:50:01 GMT-0600 (Mountain Daylight Time)","490039","Trustworthy,Untrustworthy","html-keyboard-response","154","179133","0.0-19.0-1.5","","346","","<div class='trialDiv'><img src='trustrating_stim/white_mw099.bmp'><br><font class='baseline'><strong>Michael</strong><p>Choose number of points to send.</font><div class='respPicDiv'><img src='img/responseButtonOffersNo0L.png' class='respPic'></div></div>","2","","2","Michael","5","Kept","0.2,0.65","9","0.2","trustrating_stim/white_mw099.bmp","4.5","28","6"
"","","","decisionFB","63f58712a2c1bd62fa7bb352","bdp_trlrn","Tue Mar 14 2023 18:50:01 GMT-0600 (Mountain Daylight Time)","490039","Trustworthy,Untrustworthy","html-keyboard-response","155","179394","0.0-19.0-2.5","","null","","<div class='trialDiv'><img src='trustrating_stim/white_mw099.bmp'><br><font class='baseline'><strong>Michael</strong><p>Choose number of points to send.</font><div class='respPicDiv'><img src='img/responseButtonOffersNo0L2.png' class='respPic'></div></div>","null","","2","Michael","5","Kept","0.2,0.65","9","0.2","trustrating_stim/white_mw099.bmp","4.5","26","6"
"","","","feedback","63f58712a2c1bd62fa7bb352","bdp_trlrn","Tue Mar 14 2023 18:50:01 GMT-0600 (Mountain Daylight Time)","490039","Trustworthy,Untrustworthy","html-keyboard-response","156","180403","0.0-19.0-3.5","","null","","<div class='trialDiv'><img src='trustrating_stim/white_mw099.bmp'><br><font class='baseline'><strong>Michael</strong><p>Received: <strong>8</strong></font> &nbsp; &nbsp; &nbsp; &nbsp; &nbsp; &nbsp;<font class='negOutcome'>Shared back: <strong>0</strong></font></font><div class='respPicDiv'><img src='img/responseButtonOffersNo0_wht.png' class='respPic'></div></div>","null","","2","Michael","5","Kept","0.2,0.65","9","0.2","trustrating_stim/white_mw099.bmp","4.5","26","6"
"","","","decision","63f58712a2c1bd62fa7bb352","bdp_trlrn","Tue Mar 14 2023 18:50:01 GMT-0600 (Mountain Daylight Time)","490039","Trustworthy,Untrustworthy","html-keyboard-response","157","181797","0.0-19.0-1.6","","1394","","<div class='trialDiv'><img src='trustrating_stim/white_00785_941205_fb_edt.bmp'><br><font class='baseline'><strong>Joseph</strong><p>Choose number of points to send.</font><div class='respPicDiv'><img src='img/responseButtonOffersNo0L.png' class='respPic'></div></div>","3","","3","Joseph","2","Shared","0.8,0.35","12","0.8","trustrating_stim/white_00785_941205_fb_edt.bmp","1","31","7"
"","","","decisionFB","63f58712a2c1bd62fa7bb352","bdp_trlrn","Tue Mar 14 2023 18:50:01 GMT-0600 (Mountain Daylight Time)","490039","Trustworthy,Untrustworthy","html-keyboard-response","158","182063","0.0-19.0-2.6","","null","","<div class='trialDiv'><img src='trustrating_stim/white_00785_941205_fb_edt.bmp'><br><font class='baseline'><strong>Joseph</strong><p>Choose number of points to send.</font><div class='respPicDiv'><img src='img/responseButtonOffersNo0L3.png' class='respPic'></div></div>","null","","3","Joseph","2","Shared","0.8,0.35","12","0.8","trustrating_stim/white_00785_941205_fb_edt.bmp","1","28","7"
"","","","feedback","63f58712a2c1bd62fa7bb352","bdp_trlrn","Tue Mar 14 2023 18:50:01 GMT-0600 (Mountain Daylight Time)","490039","Trustworthy,Untrustworthy","html-keyboard-response","159","183066","0.0-19.0-3.6","","null","","<div class='trialDiv'><img src='trustrating_stim/white_00785_941205_fb_edt.bmp'><br><font class='baseline'><strong>Joseph</strong><p>Received: <strong>12</strong></font> &nbsp; &nbsp; &nbsp; &nbsp; &nbsp; &nbsp;<font class='posOutcome'>Shared back: <strong>6</strong></font></font><div class='respPicDiv'><img src='img/responseButtonOffersNo0_wht.png' class='respPic'></div></div>","null","","3","Joseph","2","Shared","0.8,0.35","12","0.8","trustrating_stim/white_00785_941205_fb_edt.bmp","1","34","7"
"","","","decision","63f58712a2c1bd62fa7bb352","bdp_trlrn","Tue Mar 14 2023 18:50:01 GMT-0600 (Mountain Daylight Time)","490039","Trustworthy,Untrustworthy","html-keyboard-response","160","184085","0.0-19.0-1.7","","1019","","<div class='trialDiv'><img src='trustrating_stim/white_mw049.bmp'><br><font class='baseline'><strong>Alex</strong><p>Choose number of points to send.</font><div class='respPicDiv'><img src='img/responseButtonOffersNo0L.png' class='respPic'></div></div>","3","","3","Alex","9","Shared","0.65,0.35","10","0.65","trustrating_stim/white_mw049.bmp","8","39","8"
"","","","decisionFB","63f58712a2c1bd62fa7bb352","bdp_trlrn","Tue Mar 14 2023 18:50:01 GMT-0600 (Mountain Daylight Time)","490039","Trustworthy,Untrustworthy","html-keyboard-response","161","184340","0.0-19.0-2.7","","null","","<div class='trialDiv'><img src='trustrating_stim/white_mw049.bmp'><br><font class='baseline'><strong>Alex</strong><p>Choose number of points to send.</font><div class='respPicDiv'><img src='img/responseButtonOffersNo0L3.png' class='respPic'></div></div>","null","","3","Alex","9","Shared","0.65,0.35","10","0.65","trustrating_stim/white_mw049.bmp","8","36","8"
"","","","feedback","63f58712a2c1bd62fa7bb352","bdp_trlrn","Tue Mar 14 2023 18:50:01 GMT-0600 (Mountain Daylight Time)","490039","Trustworthy,Untrustworthy","html-keyboard-response","162","185344","0.0-19.0-3.7","","null","","<div class='trialDiv'><img src='trustrating_stim/white_mw049.bmp'><br><font class='baseline'><strong>Alex</strong><p>Received: <strong>12</strong></font> &nbsp; &nbsp; &nbsp; &nbsp; &nbsp; &nbsp;<font class='posOutcome'>Shared back: <strong>6</strong></font></font><div class='respPicDiv'><img src='img/responseButtonOffersNo0_wht.png' class='respPic'></div></div>","null","","3","Alex","9","Shared","0.65,0.35","10","0.65","trustrating_stim/white_mw049.bmp","8","42","8"
"","","","decision","63f58712a2c1bd62fa7bb352","bdp_trlrn","Tue Mar 14 2023 18:50:01 GMT-0600 (Mountain Daylight Time)","490039","Trustworthy,Untrustworthy","html-keyboard-response","163","185885","0.0-19.0-1.8","","540","","<div class='trialDiv'><img src='trustrating_stim/white_mw099.bmp'><br><font class='baseline'><strong>Michael</strong><p>Choose number of points to send.</font><div class='respPicDiv'><img src='img/responseButtonOffersNo0L.png' class='respPic'></div></div>","3","","3","Michael","5","Kept","0.2,0.65","9","0.2","trustrating_stim/white_mw099.bmp","4.5","47","9"
"","","","decisionFB","63f58712a2c1bd62fa7bb352","bdp_trlrn","Tue Mar 14 2023 18:50:01 GMT-0600 (Mountain Daylight Time)","490039","Trustworthy,Untrustworthy","html-keyboard-response","164","186156","0.0-19.0-2.8","","null","","<div class='trialDiv'><img src='trustrating_stim/white_mw099.bmp'><br><font class='baseline'><strong>Michael</strong><p>Choose number of points to send.</font><div class='respPicDiv'><img src='img/responseButtonOffersNo0L3.png' class='respPic'></div></div>","null","","3","Michael","5","Kept","0.2,0.65","9","0.2","trustrating_stim/white_mw099.bmp","4.5","44","9"
"","","","feedback","63f58712a2c1bd62fa7bb352","bdp_trlrn","Tue Mar 14 2023 18:50:01 GMT-0600 (Mountain Daylight Time)","490039","Trustworthy,Untrustworthy","html-keyboard-response","165","187159","0.0-19.0-3.8","","null","","<div class='trialDiv'><img src='trustrating_stim/white_mw099.bmp'><br><font class='baseline'><strong>Michael</strong><p>Received: <strong>12</strong></font> &nbsp; &nbsp; &nbsp; &nbsp; &nbsp; &nbsp;<font class='negOutcome'>Shared back: <strong>0</strong></font></font><div class='respPicDiv'><img src='img/responseButtonOffersNo0_wht.png' class='respPic'></div></div>","null","","3","Michael","5","Kept","0.2,0.65","9","0.2","trustrating_stim/white_mw099.bmp","4.5","44","9"
"","","","decision","63f58712a2c1bd62fa7bb352","bdp_trlrn","Tue Mar 14 2023 18:50:01 GMT-0600 (Mountain Daylight Time)","490039","Trustworthy,Untrustworthy","html-keyboard-response","166","187694","0.0-19.0-1.9","","534","","<div class='trialDiv'><img src='trustrating_stim/white_00785_941205_fb_edt.bmp'><br><font class='baseline'><strong>Joseph</strong><p>Choose number of points to send.</font><div class='respPicDiv'><img src='img/responseButtonOffersNo0L.png' class='respPic'></div></div>","3","","4","Joseph","2","Shared","0.8,0.35","12","0.8","trustrating_stim/white_00785_941205_fb_edt.bmp","1","49","10"
"","","","decisionFB","63f58712a2c1bd62fa7bb352","bdp_trlrn","Tue Mar 14 2023 18:50:01 GMT-0600 (Mountain Daylight Time)","490039","Trustworthy,Untrustworthy","html-keyboard-response","167","187949","0.0-19.0-2.9","","null","","<div class='trialDiv'><img src='trustrating_stim/white_00785_941205_fb_edt.bmp'><br><font class='baseline'><strong>Joseph</strong><p>Choose number of points to send.</font><div class='respPicDiv'><img src='img/responseButtonOffersNo0L3.png' class='respPic'></div></div>","null","","4","Joseph","2","Shared","0.8,0.35","12","0.8","trustrating_stim/white_00785_941205_fb_edt.bmp","1","46","10"
"","","","feedback","63f58712a2c1bd62fa7bb352","bdp_trlrn","Tue Mar 14 2023 18:50:01 GMT-0600 (Mountain Daylight Time)","490039","Trustworthy,Untrustworthy","html-keyboard-response","168","188959","0.0-19.0-3.9","","null","","<div class='trialDiv'><img src='trustrating_stim/white_00785_941205_fb_edt.bmp'><br><font class='baseline'><strong>Joseph</strong><p>Received: <strong>12</strong></font> &nbsp; &nbsp; &nbsp; &nbsp; &nbsp; &nbsp;<font class='posOutcome'>Shared back: <strong>6</strong></font></font><div class='respPicDiv'><img src='img/responseButtonOffersNo0_wht.png' class='respPic'></div></div>","null","","4","Joseph","2","Shared","0.8,0.35","12","0.8","trustrating_stim/white_00785_941205_fb_edt.bmp","1","52","10"
"","","","decision","63f58712a2c1bd62fa7bb352","bdp_trlrn","Tue Mar 14 2023 18:50:01 GMT-0600 (Mountain Daylight Time)","490039","Trustworthy,Untrustworthy","html-keyboard-response","169","189358","0.0-19.0-1.10","","399","","<div class='trialDiv'><img src='trustrating_stim/white_mw099.bmp'><br><font class='baseline'><strong>Michael</strong><p>Choose number of points to send.</font><div class='respPicDiv'><img src='img/responseButtonOffersNo0L.png' class='respPic'></div></div>","3","","4","Michael","5","Kept","0.2,0.65","9","0.2","trustrating_stim/white_mw099.bmp","4.5","57","11"
"","","","decisionFB","63f58712a2c1bd62fa7bb352","bdp_trlrn","Tue Mar 14 2023 18:50:01 GMT-0600 (Mountain Daylight Time)","490039","Trustworthy,Untrustworthy","html-keyboard-response","170","189609","0.0-19.0-2.10","","null","","<div class='trialDiv'><img src='trustrating_stim/white_mw099.bmp'><br><font class='baseline'><strong>Michael</strong><p>Choose number of points to send.</font><div class='respPicDiv'><img src='img/responseButtonOffersNo0L3.png' class='respPic'></div></div>","null","","4","Michael","5","Kept","0.2,0.65","9","0.2","trustrating_stim/white_mw099.bmp","4.5","54","11"
"","","","feedback","63f58712a2c1bd62fa7bb352","bdp_trlrn","Tue Mar 14 2023 18:50:01 GMT-0600 (Mountain Daylight Time)","490039","Trustworthy,Untrustworthy","html-keyboard-response","171","190614","0.0-19.0-3.10","","null","","<div class='trialDiv'><img src='trustrating_stim/white_mw099.bmp'><br><font class='baseline'><strong>Michael</strong><p>Received: <strong>12</strong></font> &nbsp; &nbsp; &nbsp; &nbsp; &nbsp; &nbsp;<font class='negOutcome'>Shared back: <strong>0</strong></font></font><div class='respPicDiv'><img src='img/responseButtonOffersNo0_wht.png' class='respPic'></div></div>","null","","4","Michael","5","Kept","0.2,0.65","9","0.2","trustrating_stim/white_mw099.bmp","4.5","54","11"
"","","","decision","63f58712a2c1bd62fa7bb352","bdp_trlrn","Tue Mar 14 2023 18:50:01 GMT-0600 (Mountain Daylight Time)","490039","Trustworthy,Untrustworthy","html-keyboard-response","172","190998","0.0-19.0-1.11","","384","","<div class='trialDiv'><img src='trustrating_stim/white_mw049.bmp'><br><font class='baseline'><strong>Alex</strong><p>Choose number of points to send.</font><div class='respPicDiv'><img src='img/responseButtonOffersNo0L.png' class='respPic'></div></div>","3","","4","Alex","9","Shared","0.65,0.35","10","0.65","trustrating_stim/white_mw049.bmp","8","59","12"
"","","","decisionFB","63f58712a2c1bd62fa7bb352","bdp_trlrn","Tue Mar 14 2023 18:50:01 GMT-0600 (Mountain Daylight Time)","490039","Trustworthy,Untrustworthy","html-keyboard-response","173","191262","0.0-19.0-2.11","","null","","<div class='trialDiv'><img src='trustrating_stim/white_mw049.bmp'><br><font class='baseline'><strong>Alex</strong><p>Choose number of points to send.</font><div class='respPicDiv'><img src='img/responseButtonOffersNo0L3.png' class='respPic'></div></div>","null","","4","Alex","9","Shared","0.65,0.35","10","0.65","trustrating_stim/white_mw049.bmp","8","56","12"
"","","","feedback","63f58712a2c1bd62fa7bb352","bdp_trlrn","Tue Mar 14 2023 18:50:01 GMT-0600 (Mountain Daylight Time)","490039","Trustworthy,Untrustworthy","html-keyboard-response","174","192281","0.0-19.0-3.11","","null","","<div class='trialDiv'><img src='trustrating_stim/white_mw049.bmp'><br><font class='baseline'><strong>Alex</strong><p>Received: <strong>12</strong></font> &nbsp; &nbsp; &nbsp; &nbsp; &nbsp; &nbsp;<font class='posOutcome'>Shared back: <strong>6</strong></font></font><div class='respPicDiv'><img src='img/responseButtonOffersNo0_wht.png' class='respPic'></div></div>","null","","4","Alex","9","Shared","0.65,0.35","10","0.65","trustrating_stim/white_mw049.bmp","8","62","12"
"","","","decision","63f58712a2c1bd62fa7bb352","bdp_trlrn","Tue Mar 14 2023 18:50:01 GMT-0600 (Mountain Daylight Time)","490039","Trustworthy,Untrustworthy","html-keyboard-response","175","193215","0.0-19.0-1.12","","934","","<div class='trialDiv'><img src='trustrating_stim/white_mw099.bmp'><br><font class='baseline'><strong>Michael</strong><p>Choose number of points to send.</font><div class='respPicDiv'><img src='img/responseButtonOffersNo0L.png' class='respPic'></div></div>","4","","5","Michael","5","Kept","0.2,0.65","9","0.2","trustrating_stim/white_mw099.bmp","4.5","67","13"
"","","","decisionFB","63f58712a2c1bd62fa7bb352","bdp_trlrn","Tue Mar 14 2023 18:50:01 GMT-0600 (Mountain Daylight Time)","490039","Trustworthy,Untrustworthy","html-keyboard-response","176","193471","0.0-19.0-2.12","","null","","<div class='trialDiv'><img src='trustrating_stim/white_mw099.bmp'><br><font class='baseline'><strong>Michael</strong><p>Choose number of points to send.</font><div class='respPicDiv'><img src='img/responseButtonOffersNo0L4.png' class='respPic'></div></div>","null","","5","Michael","5","Kept","0.2,0.65","9","0.2","trustrating_stim/white_mw099.bmp","4.5","63","13"
"","","","feedback","63f58712a2c1bd62fa7bb352","bdp_trlrn","Tue Mar 14 2023 18:50:01 GMT-0600 (Mountain Daylight Time)","490039","Trustworthy,Untrustworthy","html-keyboard-response","177","194482","0.0-19.0-3.12","","null","","<div class='trialDiv'><img src='trustrating_stim/white_mw099.bmp'><br><font class='baseline'><strong>Michael</strong><p>Received: <strong>16</strong></font> &nbsp; &nbsp; &nbsp; &nbsp; &nbsp; &nbsp;<font class='negOutcome'>Shared back: <strong>0</strong></font></font><div class='respPicDiv'><img src='img/responseButtonOffersNo0_wht.png' class='respPic'></div></div>","null","","5","Michael","5","Kept","0.2,0.65","9","0.2","trustrating_stim/white_mw099.bmp","4.5","63","13"
"","","","decision","63f58712a2c1bd62fa7bb352","bdp_trlrn","Tue Mar 14 2023 18:50:01 GMT-0600 (Mountain Daylight Time)","490039","Trustworthy,Untrustworthy","html-keyboard-response","178","195062","0.0-19.0-1.13","","579","","<div class='trialDiv'><img src='trustrating_stim/white_mw049.bmp'><br><font class='baseline'><strong>Alex</strong><p>Choose number of points to send.</font><div class='respPicDiv'><img src='img/responseButtonOffersNo0L.png' class='respPic'></div></div>","3","","5","Alex","9","Shared","0.65,0.35","10","0.65","trustrating_stim/white_mw049.bmp","8","68","14"
"","","","decisionFB","63f58712a2c1bd62fa7bb352","bdp_trlrn","Tue Mar 14 2023 18:50:01 GMT-0600 (Mountain Daylight Time)","490039","Trustworthy,Untrustworthy","html-keyboard-response","179","195327","0.0-19.0-2.13","","null","","<div class='trialDiv'><img src='trustrating_stim/white_mw049.bmp'><br><font class='baseline'><strong>Alex</strong><p>Choose number of points to send.</font><div class='respPicDiv'><img src='img/responseButtonOffersNo0L3.png' class='respPic'></div></div>","null","","5","Alex","9","Shared","0.65,0.35","10","0.65","trustrating_stim/white_mw049.bmp","8","65","14"
"","","","feedback","63f58712a2c1bd62fa7bb352","bdp_trlrn","Tue Mar 14 2023 18:50:01 GMT-0600 (Mountain Daylight Time)","490039","Trustworthy,Untrustworthy","html-keyboard-response","180","196332","0.0-19.0-3.13","","null","","<div class='trialDiv'><img src='trustrating_stim/white_mw049.bmp'><br><font class='baseline'><strong>Alex</strong><p>Received: <strong>12</strong></font> &nbsp; &nbsp; &nbsp; &nbsp; &nbsp; &nbsp;<font class='posOutcome'>Shared back: <strong>6</strong></font></font><div class='respPicDiv'><img src='img/responseButtonOffersNo0_wht.png' class='respPic'></div></div>","null","","5","Alex","9","Shared","0.65,0.35","10","0.65","trustrating_stim/white_mw049.bmp","8","71","14"
"","","","decision","63f58712a2c1bd62fa7bb352","bdp_trlrn","Tue Mar 14 2023 18:50:01 GMT-0600 (Mountain Daylight Time)","490039","Trustworthy,Untrustworthy","html-keyboard-response","181","196751","0.0-19.0-1.14","","418","","<div class='trialDiv'><img src='trustrating_stim/white_00785_941205_fb_edt.bmp'><br><font class='baseline'><strong>Joseph</strong><p>Choose number of points to send.</font><div class='respPicDiv'><img src='img/responseButtonOffersNo0L.png' class='respPic'></div></div>","3","","5","Joseph","2","Kept","0.8,0.35","12","0.8","trustrating_stim/white_00785_941205_fb_edt.bmp","1","76","15"
"","","","decisionFB","63f58712a2c1bd62fa7bb352","bdp_trlrn","Tue Mar 14 2023 18:50:01 GMT-0600 (Mountain Daylight Time)","490039","Trustworthy,Untrustworthy","html-keyboard-response","182","197010","0.0-19.0-2.14","","null","","<div class='trialDiv'><img src='trustrating_stim/white_00785_941205_fb_edt.bmp'><br><font class='baseline'><strong>Joseph</strong><p>Choose number of points to send.</font><div class='respPicDiv'><img src='img/responseButtonOffersNo0L3.png' class='respPic'></div></div>","null","","5","Joseph","2","Kept","0.8,0.35","12","0.8","trustrating_stim/white_00785_941205_fb_edt.bmp","1","73","15"
"","","","feedback","63f58712a2c1bd62fa7bb352","bdp_trlrn","Tue Mar 14 2023 18:50:01 GMT-0600 (Mountain Daylight Time)","490039","Trustworthy,Untrustworthy","html-keyboard-response","183","198010","0.0-19.0-3.14","","null","","<div class='trialDiv'><img src='trustrating_stim/white_00785_941205_fb_edt.bmp'><br><font class='baseline'><strong>Joseph</strong><p>Received: <strong>12</strong></font> &nbsp; &nbsp; &nbsp; &nbsp; &nbsp; &nbsp;<font class='negOutcome'>Shared back: <strong>0</strong></font></font><div class='respPicDiv'><img src='img/responseButtonOffersNo0_wht.png' class='respPic'></div></div>","null","","5","Joseph","2","Kept","0.8,0.35","12","0.8","trustrating_stim/white_00785_941205_fb_edt.bmp","1","73","15"
"","","","decision","63f58712a2c1bd62fa7bb352","bdp_trlrn","Tue Mar 14 2023 18:50:01 GMT-0600 (Mountain Daylight Time)","490039","Trustworthy,Untrustworthy","html-keyboard-response","184","200263","0.0-19.0-1.15","","2252","","<div class='trialDiv'><img src='trustrating_stim/white_mw049.bmp'><br><font class='baseline'><strong>Alex</strong><p>Choose number of points to send.</font><div class='respPicDiv'><img src='img/responseButtonOffersNo0L.png' class='respPic'></div></div>","3","","6","Alex","9","Kept","0.65,0.35","10","0.65","trustrating_stim/white_mw049.bmp","8","78","16"
"","","","decisionFB","63f58712a2c1bd62fa7bb352","bdp_trlrn","Tue Mar 14 2023 18:50:01 GMT-0600 (Mountain Daylight Time)","490039","Trustworthy,Untrustworthy","html-keyboard-response","185","200530","0.0-19.0-2.15","","null","","<div class='trialDiv'><img src='trustrating_stim/white_mw049.bmp'><br><font class='baseline'><strong>Alex</strong><p>Choose number of points to send.</font><div class='respPicDiv'><img src='img/responseButtonOffersNo0L3.png' class='respPic'></div></div>","null","","6","Alex","9","Kept","0.65,0.35","10","0.65","trustrating_stim/white_mw049.bmp","8","75","16"
"","","","feedback","63f58712a2c1bd62fa7bb352","bdp_trlrn","Tue Mar 14 2023 18:50:01 GMT-0600 (Mountain Daylight Time)","490039","Trustworthy,Untrustworthy","html-keyboard-response","186","201532","0.0-19.0-3.15","","null","","<div class='trialDiv'><img src='trustrating_stim/white_mw049.bmp'><br><font class='baseline'><strong>Alex</strong><p>Received: <strong>12</strong></font> &nbsp; &nbsp; &nbsp; &nbsp; &nbsp; &nbsp;<font class='negOutcome'>Shared back: <strong>0</strong></font></font><div class='respPicDiv'><img src='img/responseButtonOffersNo0_wht.png' class='respPic'></div></div>","null","","6","Alex","9","Kept","0.65,0.35","10","0.65","trustrating_stim/white_mw049.bmp","8","75","16"
"","","","decision","63f58712a2c1bd62fa7bb352","bdp_trlrn","Tue Mar 14 2023 18:50:01 GMT-0600 (Mountain Daylight Time)","490039","Trustworthy,Untrustworthy","html-keyboard-response","187","203536","0.0-19.0-1.16","","2003","","<div class='trialDiv'><img src='trustrating_stim/white_mw099.bmp'><br><font class='baseline'><strong>Michael</strong><p>Choose number of points to send.</font><div class='respPicDiv'><img src='img/responseButtonOffersNo0L.png' class='respPic'></div></div>","5","","6","Michael","5","Kept","0.2,0.65","9","0.2","trustrating_stim/white_mw099.bmp","4.5","80","17"
"","","","decisionFB","63f58712a2c1bd62fa7bb352","bdp_trlrn","Tue Mar 14 2023 18:50:01 GMT-0600 (Mountain Daylight Time)","490039","Trustworthy,Untrustworthy","html-keyboard-response","188","203802","0.0-19.0-2.16","","null","","<div class='trialDiv'><img src='trustrating_stim/white_mw099.bmp'><br><font class='baseline'><strong>Michael</strong><p>Choose number of points to send.</font><div class='respPicDiv'><img src='img/responseButtonOffersNo0L5.png' class='respPic'></div></div>","null","","6","Michael","5","Kept","0.2,0.65","9","0.2","trustrating_stim/white_mw099.bmp","4.5","75","17"
"","","","feedback","63f58712a2c1bd62fa7bb352","bdp_trlrn","Tue Mar 14 2023 18:50:01 GMT-0600 (Mountain Daylight Time)","490039","Trustworthy,Untrustworthy","html-keyboard-response","189","204819","0.0-19.0-3.16","","null","","<div class='trialDiv'><img src='trustrating_stim/white_mw099.bmp'><br><font class='baseline'><strong>Michael</strong><p>Received: <strong>20</strong></font> &nbsp; &nbsp; &nbsp; &nbsp; &nbsp; &nbsp;<font class='negOutcome'>Shared back: <strong>0</strong></font></font><div class='respPicDiv'><img src='img/responseButtonOffersNo0_wht.png' class='respPic'></div></div>","null","","6","Michael","5","Kept","0.2,0.65","9","0.2","trustrating_stim/white_mw099.bmp","4.5","75","17"
"","","","decision","63f58712a2c1bd62fa7bb352","bdp_trlrn","Tue Mar 14 2023 18:50:01 GMT-0600 (Mountain Daylight Time)","490039","Trustworthy,Untrustworthy","html-keyboard-response","190","205768","0.0-19.0-1.17","","948","","<div class='trialDiv'><img src='trustrating_stim/white_00785_941205_fb_edt.bmp'><br><font class='baseline'><strong>Joseph</strong><p>Choose number of points to send.</font><div class='respPicDiv'><img src='img/responseButtonOffersNo0L.png' class='respPic'></div></div>","5","","6","Joseph","2","Kept","0.8,0.35","12","0.8","trustrating_stim/white_00785_941205_fb_edt.bmp","1","80","18"
"","","","decisionFB","63f58712a2c1bd62fa7bb352","bdp_trlrn","Tue Mar 14 2023 18:50:01 GMT-0600 (Mountain Daylight Time)","490039","Trustworthy,Untrustworthy","html-keyboard-response","191","206036","0.0-19.0-2.17","","null","","<div class='trialDiv'><img src='trustrating_stim/white_00785_941205_fb_edt.bmp'><br><font class='baseline'><strong>Joseph</strong><p>Choose number of points to send.</font><div class='respPicDiv'><img src='img/responseButtonOffersNo0L5.png' class='respPic'></div></div>","null","","6","Joseph","2","Kept","0.8,0.35","12","0.8","trustrating_stim/white_00785_941205_fb_edt.bmp","1","75","18"
"","","","feedback","63f58712a2c1bd62fa7bb352","bdp_trlrn","Tue Mar 14 2023 18:50:01 GMT-0600 (Mountain Daylight Time)","490039","Trustworthy,Untrustworthy","html-keyboard-response","192","207048","0.0-19.0-3.17","","null","","<div class='trialDiv'><img src='trustrating_stim/white_00785_941205_fb_edt.bmp'><br><font class='baseline'><strong>Joseph</strong><p>Received: <strong>20</strong></font> &nbsp; &nbsp; &nbsp; &nbsp; &nbsp; &nbsp;<font class='negOutcome'>Shared back: <strong>0</strong></font></font><div class='respPicDiv'><img src='img/responseButtonOffersNo0_wht.png' class='respPic'></div></div>","null","","6","Joseph","2","Kept","0.8,0.35","12","0.8","trustrating_stim/white_00785_941205_fb_edt.bmp","1","75","18"
"","","","decision","63f58712a2c1bd62fa7bb352","bdp_trlrn","Tue Mar 14 2023 18:50:01 GMT-0600 (Mountain Daylight Time)","490039","Trustworthy,Untrustworthy","html-keyboard-response","193","207889","0.0-19.0-1.18","","840","","<div class='trialDiv'><img src='trustrating_stim/white_mw049.bmp'><br><font class='baseline'><strong>Alex</strong><p>Choose number of points to send.</font><div class='respPicDiv'><img src='img/responseButtonOffersNo0L.png' class='respPic'></div></div>","5","","7","Alex","9","Shared","0.65,0.35","10","0.65","trustrating_stim/white_mw049.bmp","8","80","19"
"","","","decisionFB","63f58712a2c1bd62fa7bb352","bdp_trlrn","Tue Mar 14 2023 18:50:01 GMT-0600 (Mountain Daylight Time)","490039","Trustworthy,Untrustworthy","html-keyboard-response","194","208157","0.0-19.0-2.18","","null","","<div class='trialDiv'><img src='trustrating_stim/white_mw049.bmp'><br><font class='baseline'><strong>Alex</strong><p>Choose number of points to send.</font><div class='respPicDiv'><img src='img/responseButtonOffersNo0L5.png' class='respPic'></div></div>","null","","7","Alex","9","Shared","0.65,0.35","10","0.65","trustrating_stim/white_mw049.bmp","8","75","19"
"","","","feedback","63f58712a2c1bd62fa7bb352","bdp_trlrn","Tue Mar 14 2023 18:50:01 GMT-0600 (Mountain Daylight Time)","490039","Trustworthy,Untrustworthy","html-keyboard-response","195","209159","0.0-19.0-3.18","","null","","<div class='trialDiv'><img src='trustrating_stim/white_mw049.bmp'><br><font class='baseline'><strong>Alex</strong><p>Received: <strong>20</strong></font> &nbsp; &nbsp; &nbsp; &nbsp; &nbsp; &nbsp;<font class='posOutcome'>Shared back: <strong>10</strong></font></font><div class='respPicDiv'><img src='img/responseButtonOffersNo0_wht.png' class='respPic'></div></div>","null","","7","Alex","9","Shared","0.65,0.35","10","0.65","trustrating_stim/white_mw049.bmp","8","85","19"
"","","","decision","63f58712a2c1bd62fa7bb352","bdp_trlrn","Tue Mar 14 2023 18:50:01 GMT-0600 (Mountain Daylight Time)","490039","Trustworthy,Untrustworthy","html-keyboard-response","196","209937","0.0-19.0-1.19","","776","","<div class='trialDiv'><img src='trustrating_stim/white_00785_941205_fb_edt.bmp'><br><font class='baseline'><strong>Joseph</strong><p>Choose number of points to send.</font><div class='respPicDiv'><img src='img/responseButtonOffersNo0L.png' class='respPic'></div></div>","2","","7","Joseph","2","Kept","0.8,0.35","12","0.8","trustrating_stim/white_00785_941205_fb_edt.bmp","1","90","20"
"","","","decisionFB","63f58712a2c1bd62fa7bb352","bdp_trlrn","Tue Mar 14 2023 18:50:01 GMT-0600 (Mountain Daylight Time)","490039","Trustworthy,Untrustworthy","html-keyboard-response","197","210202","0.0-19.0-2.19","","null","","<div class='trialDiv'><img src='trustrating_stim/white_00785_941205_fb_edt.bmp'><br><font class='baseline'><strong>Joseph</strong><p>Choose number of points to send.</font><div class='respPicDiv'><img src='img/responseButtonOffersNo0L2.png' class='respPic'></div></div>","null","","7","Joseph","2","Kept","0.8,0.35","12","0.8","trustrating_stim/white_00785_941205_fb_edt.bmp","1","88","20"
"","","","feedback","63f58712a2c1bd62fa7bb352","bdp_trlrn","Tue Mar 14 2023 18:50:01 GMT-0600 (Mountain Daylight Time)","490039","Trustworthy,Untrustworthy","html-keyboard-response","198","211220","0.0-19.0-3.19","","null","","<div class='trialDiv'><img src='trustrating_stim/white_00785_941205_fb_edt.bmp'><br><font class='baseline'><strong>Joseph</strong><p>Received: <strong>8</strong></font> &nbsp; &nbsp; &nbsp; &nbsp; &nbsp; &nbsp;<font class='negOutcome'>Shared back: <strong>0</strong></font></font><div class='respPicDiv'><img src='img/responseButtonOffersNo0_wht.png' class='respPic'></div></div>","null","","7","Joseph","2","Kept","0.8,0.35","12","0.8","trustrating_stim/white_00785_941205_fb_edt.bmp","1","88","20"
"","","","decision","63f58712a2c1bd62fa7bb352","bdp_trlrn","Tue Mar 14 2023 18:50:01 GMT-0600 (Mountain Daylight Time)","490039","Trustworthy,Untrustworthy","html-keyboard-response","199","211969","0.0-19.0-1.20","","747","","<div class='trialDiv'><img src='trustrating_stim/white_mw099.bmp'><br><font class='baseline'><strong>Michael</strong><p>Choose number of points to send.</font><div class='respPicDiv'><img src='img/responseButtonOffersNo0L.png' class='respPic'></div></div>","5","","7","Michael","5","Kept","0.2,0.65","9","0.2","trustrating_stim/white_mw099.bmp","4.5","93","21"
"","","","decisionFB","63f58712a2c1bd62fa7bb352","bdp_trlrn","Tue Mar 14 2023 18:50:01 GMT-0600 (Mountain Daylight Time)","490039","Trustworthy,Untrustworthy","html-keyboard-response","200","212238","0.0-19.0-2.20","","null","","<div class='trialDiv'><img src='trustrating_stim/white_mw099.bmp'><br><font class='baseline'><strong>Michael</strong><p>Choose number of points to send.</font><div class='respPicDiv'><img src='img/responseButtonOffersNo0L5.png' class='respPic'></div></div>","null","","7","Michael","5","Kept","0.2,0.65","9","0.2","trustrating_stim/white_mw099.bmp","4.5","88","21"
"","","","feedback","63f58712a2c1bd62fa7bb352","bdp_trlrn","Tue Mar 14 2023 18:50:01 GMT-0600 (Mountain Daylight Time)","490039","Trustworthy,Untrustworthy","html-keyboard-response","201","213241","0.0-19.0-3.20","","null","","<div class='trialDiv'><img src='trustrating_stim/white_mw099.bmp'><br><font class='baseline'><strong>Michael</strong><p>Received: <strong>20</strong></font> &nbsp; &nbsp; &nbsp; &nbsp; &nbsp; &nbsp;<font class='negOutcome'>Shared back: <strong>0</strong></font></font><div class='respPicDiv'><img src='img/responseButtonOffersNo0_wht.png' class='respPic'></div></div>","null","","7","Michael","5","Kept","0.2,0.65","9","0.2","trustrating_stim/white_mw099.bmp","4.5","88","21"
"","","","decision","63f58712a2c1bd62fa7bb352","bdp_trlrn","Tue Mar 14 2023 18:50:01 GMT-0600 (Mountain Daylight Time)","490039","Trustworthy,Untrustworthy","html-keyboard-response","202","213537","0.0-19.0-1.21","","295","","<div class='trialDiv'><img src='trustrating_stim/white_00785_941205_fb_edt.bmp'><br><font class='baseline'><strong>Joseph</strong><p>Choose number of points to send.</font><div class='respPicDiv'><img src='img/responseButtonOffersNo0L.png' class='respPic'></div></div>","5","","8","Joseph","2","Shared","0.8,0.35","12","0.8","trustrating_stim/white_00785_941205_fb_edt.bmp","1","93","22"
"","","","decisionFB","63f58712a2c1bd62fa7bb352","bdp_trlrn","Tue Mar 14 2023 18:50:01 GMT-0600 (Mountain Daylight Time)","490039","Trustworthy,Untrustworthy","html-keyboard-response","203","213803","0.0-19.0-2.21","","null","","<div class='trialDiv'><img src='trustrating_stim/white_00785_941205_fb_edt.bmp'><br><font class='baseline'><strong>Joseph</strong><p>Choose number of points to send.</font><div class='respPicDiv'><img src='img/responseButtonOffersNo0L5.png' class='respPic'></div></div>","null","","8","Joseph","2","Shared","0.8,0.35","12","0.8","trustrating_stim/white_00785_941205_fb_edt.bmp","1","88","22"
"","","","feedback","63f58712a2c1bd62fa7bb352","bdp_trlrn","Tue Mar 14 2023 18:50:01 GMT-0600 (Mountain Daylight Time)","490039","Trustworthy,Untrustworthy","html-keyboard-response","204","214819","0.0-19.0-3.21","","null","","<div class='trialDiv'><img src='trustrating_stim/white_00785_941205_fb_edt.bmp'><br><font class='baseline'><strong>Joseph</strong><p>Received: <strong>20</strong></font> &nbsp; &nbsp; &nbsp; &nbsp; &nbsp; &nbsp;<font class='posOutcome'>Shared back: <strong>10</strong></font></font><div class='respPicDiv'><img src='img/responseButtonOffersNo0_wht.png' class='respPic'></div></div>","null","","8","Joseph","2","Shared","0.8,0.35","12","0.8","trustrating_stim/white_00785_941205_fb_edt.bmp","1","98","22"
"","","","decision","63f58712a2c1bd62fa7bb352","bdp_trlrn","Tue Mar 14 2023 18:50:01 GMT-0600 (Mountain Daylight Time)","490039","Trustworthy,Untrustworthy","html-keyboard-response","205","215257","0.0-19.0-1.22","","437","","<div class='trialDiv'><img src='trustrating_stim/white_mw099.bmp'><br><font class='baseline'><strong>Michael</strong><p>Choose number of points to send.</font><div class='respPicDiv'><img src='img/responseButtonOffersNo0L.png' class='respPic'></div></div>","5","","8","Michael","5","Kept","0.2,0.65","9","0.2","trustrating_stim/white_mw099.bmp","4.5","103","23"
"","","","decisionFB","63f58712a2c1bd62fa7bb352","bdp_trlrn","Tue Mar 14 2023 18:50:01 GMT-0600 (Mountain Daylight Time)","490039","Trustworthy,Untrustworthy","html-keyboard-response","206","215512","0.0-19.0-2.22","","null","","<div class='trialDiv'><img src='trustrating_stim/white_mw099.bmp'><br><font class='baseline'><strong>Michael</strong><p>Choose number of points to send.</font><div class='respPicDiv'><img src='img/responseButtonOffersNo0L5.png' class='respPic'></div></div>","null","","8","Michael","5","Kept","0.2,0.65","9","0.2","trustrating_stim/white_mw099.bmp","4.5","98","23"
"","","","feedback","63f58712a2c1bd62fa7bb352","bdp_trlrn","Tue Mar 14 2023 18:50:01 GMT-0600 (Mountain Daylight Time)","490039","Trustworthy,Untrustworthy","html-keyboard-response","207","216519","0.0-19.0-3.22","","null","","<div class='trialDiv'><img src='trustrating_stim/white_mw099.bmp'><br><font class='baseline'><strong>Michael</strong><p>Received: <strong>20</strong></font> &nbsp; &nbsp; &nbsp; &nbsp; &nbsp; &nbsp;<font class='negOutcome'>Shared back: <strong>0</strong></font></font><div class='respPicDiv'><img src='img/responseButtonOffersNo0_wht.png' class='respPic'></div></div>","null","","8","Michael","5","Kept","0.2,0.65","9","0.2","trustrating_stim/white_mw099.bmp","4.5","98","23"
"","","","decision","63f58712a2c1bd62fa7bb352","bdp_trlrn","Tue Mar 14 2023 18:50:01 GMT-0600 (Mountain Daylight Time)","490039","Trustworthy,Untrustworthy","html-keyboard-response","208","217049","0.0-19.0-1.23","","530","","<div class='trialDiv'><img src='trustrating_stim/white_mw049.bmp'><br><font class='baseline'><strong>Alex</strong><p>Choose number of points to send.</font><div class='respPicDiv'><img src='img/responseButtonOffersNo0L.png' class='respPic'></div></div>","5","","8","Alex","9","Shared","0.65,0.35","10","0.65","trustrating_stim/white_mw049.bmp","8","103","24"
"","","","decisionFB","63f58712a2c1bd62fa7bb352","bdp_trlrn","Tue Mar 14 2023 18:50:01 GMT-0600 (Mountain Daylight Time)","490039","Trustworthy,Untrustworthy","html-keyboard-response","209","217314","0.0-19.0-2.23","","null","","<div class='trialDiv'><img src='trustrating_stim/white_mw049.bmp'><br><font class='baseline'><strong>Alex</strong><p>Choose number of points to send.</font><div class='respPicDiv'><img src='img/responseButtonOffersNo0L5.png' class='respPic'></div></div>","null","","8","Alex","9","Shared","0.65,0.35","10","0.65","trustrating_stim/white_mw049.bmp","8","98","24"
"","","","feedback","63f58712a2c1bd62fa7bb352","bdp_trlrn","Tue Mar 14 2023 18:50:01 GMT-0600 (Mountain Daylight Time)","490039","Trustworthy,Untrustworthy","html-keyboard-response","210","218323","0.0-19.0-3.23","","null","","<div class='trialDiv'><img src='trustrating_stim/white_mw049.bmp'><br><font class='baseline'><strong>Alex</strong><p>Received: <strong>20</strong></font> &nbsp; &nbsp; &nbsp; &nbsp; &nbsp; &nbsp;<font class='posOutcome'>Shared back: <strong>10</strong></font></font><div class='respPicDiv'><img src='img/responseButtonOffersNo0_wht.png' class='respPic'></div></div>","null","","8","Alex","9","Shared","0.65,0.35","10","0.65","trustrating_stim/white_mw049.bmp","8","108","24"
"","","","decision","63f58712a2c1bd62fa7bb352","bdp_trlrn","Tue Mar 14 2023 18:50:01 GMT-0600 (Mountain Daylight Time)","490039","Trustworthy,Untrustworthy","html-keyboard-response","211","219386","0.0-19.0-1.24","","1063","","<div class='trialDiv'><img src='trustrating_stim/white_mw099.bmp'><br><font class='baseline'><strong>Michael</strong><p>Choose number of points to send.</font><div class='respPicDiv'><img src='img/responseButtonOffersNo0L.png' class='respPic'></div></div>","2","","9","Michael","5","Shared","0.2,0.65","9","0.2","trustrating_stim/white_mw099.bmp","4.5","113","25"
"","","","decisionFB","63f58712a2c1bd62fa7bb352","bdp_trlrn","Tue Mar 14 2023 18:50:01 GMT-0600 (Mountain Daylight Time)","490039","Trustworthy,Untrustworthy","html-keyboard-response","212","219648","0.0-19.0-2.24","","null","","<div class='trialDiv'><img src='trustrating_stim/white_mw099.bmp'><br><font class='baseline'><strong>Michael</strong><p>Choose number of points to send.</font><div class='respPicDiv'><img src='img/responseButtonOffersNo0L2.png' class='respPic'></div></div>","null","","9","Michael","5","Shared","0.2,0.65","9","0.2","trustrating_stim/white_mw099.bmp","4.5","111","25"
"","","","feedback","63f58712a2c1bd62fa7bb352","bdp_trlrn","Tue Mar 14 2023 18:50:01 GMT-0600 (Mountain Daylight Time)","490039","Trustworthy,Untrustworthy","html-keyboard-response","213","220651","0.0-19.0-3.24","","null","","<div class='trialDiv'><img src='trustrating_stim/white_mw099.bmp'><br><font class='baseline'><strong>Michael</strong><p>Received: <strong>8</strong></font> &nbsp; &nbsp; &nbsp; &nbsp; &nbsp; &nbsp;<font class='posOutcome'>Shared back: <strong>4</strong></font></font><div class='respPicDiv'><img src='img/responseButtonOffersNo0_wht.png' class='respPic'></div></div>","null","","9","Michael","5","Shared","0.2,0.65","9","0.2","trustrating_stim/white_mw099.bmp","4.5","115","25"
"","","","decision","63f58712a2c1bd62fa7bb352","bdp_trlrn","Tue Mar 14 2023 18:50:01 GMT-0600 (Mountain Daylight Time)","490039","Trustworthy,Untrustworthy","html-keyboard-response","214","221826","0.0-19.0-1.25","","1174","","<div class='trialDiv'><img src='trustrating_stim/white_00785_941205_fb_edt.bmp'><br><font class='baseline'><strong>Joseph</strong><p>Choose number of points to send.</font><div class='respPicDiv'><img src='img/responseButtonOffersNo0L.png' class='respPic'></div></div>","5","","9","Joseph","2","Shared","0.8,0.35","12","0.8","trustrating_stim/white_00785_941205_fb_edt.bmp","1","120","26"
"","","","decisionFB","63f58712a2c1bd62fa7bb352","bdp_trlrn","Tue Mar 14 2023 18:50:01 GMT-0600 (Mountain Daylight Time)","490039","Trustworthy,Untrustworthy","html-keyboard-response","215","222078","0.0-19.0-2.25","","null","","<div class='trialDiv'><img src='trustrating_stim/white_00785_941205_fb_edt.bmp'><br><font class='baseline'><strong>Joseph</strong><p>Choose number of points to send.</font><div class='respPicDiv'><img src='img/responseButtonOffersNo0L5.png' class='respPic'></div></div>","null","","9","Joseph","2","Shared","0.8,0.35","12","0.8","trustrating_stim/white_00785_941205_fb_edt.bmp","1","115","26"
"","","","feedback","63f58712a2c1bd62fa7bb352","bdp_trlrn","Tue Mar 14 2023 18:50:01 GMT-0600 (Mountain Daylight Time)","490039","Trustworthy,Untrustworthy","html-keyboard-response","216","223078","0.0-19.0-3.25","","null","","<div class='trialDiv'><img src='trustrating_stim/white_00785_941205_fb_edt.bmp'><br><font class='baseline'><strong>Joseph</strong><p>Received: <strong>20</strong></font> &nbsp; &nbsp; &nbsp; &nbsp; &nbsp; &nbsp;<font class='posOutcome'>Shared back: <strong>10</strong></font></font><div class='respPicDiv'><img src='img/responseButtonOffersNo0_wht.png' class='respPic'></div></div>","null","","9","Joseph","2","Shared","0.8,0.35","12","0.8","trustrating_stim/white_00785_941205_fb_edt.bmp","1","125","26"
"","","","decision","63f58712a2c1bd62fa7bb352","bdp_trlrn","Tue Mar 14 2023 18:50:01 GMT-0600 (Mountain Daylight Time)","490039","Trustworthy,Untrustworthy","html-keyboard-response","217","223681","0.0-19.0-1.26","","603","","<div class='trialDiv'><img src='trustrating_stim/white_mw049.bmp'><br><font class='baseline'><strong>Alex</strong><p>Choose number of points to send.</font><div class='respPicDiv'><img src='img/responseButtonOffersNo0L.png' class='respPic'></div></div>","5","","9","Alex","9","Shared","0.65,0.35","10","0.65","trustrating_stim/white_mw049.bmp","8","130","27"
"","","","decisionFB","63f58712a2c1bd62fa7bb352","bdp_trlrn","Tue Mar 14 2023 18:50:01 GMT-0600 (Mountain Daylight Time)","490039","Trustworthy,Untrustworthy","html-keyboard-response","218","223944","0.0-19.0-2.26","","null","","<div class='trialDiv'><img src='trustrating_stim/white_mw049.bmp'><br><font class='baseline'><strong>Alex</strong><p>Choose number of points to send.</font><div class='respPicDiv'><img src='img/responseButtonOffersNo0L5.png' class='respPic'></div></div>","null","","9","Alex","9","Shared","0.65,0.35","10","0.65","trustrating_stim/white_mw049.bmp","8","125","27"
"","","","feedback","63f58712a2c1bd62fa7bb352","bdp_trlrn","Tue Mar 14 2023 18:50:01 GMT-0600 (Mountain Daylight Time)","490039","Trustworthy,Untrustworthy","html-keyboard-response","219","224946","0.0-19.0-3.26","","null","","<div class='trialDiv'><img src='trustrating_stim/white_mw049.bmp'><br><font class='baseline'><strong>Alex</strong><p>Received: <strong>20</strong></font> &nbsp; &nbsp; &nbsp; &nbsp; &nbsp; &nbsp;<font class='posOutcome'>Shared back: <strong>10</strong></font></font><div class='respPicDiv'><img src='img/responseButtonOffersNo0_wht.png' class='respPic'></div></div>","null","","9","Alex","9","Shared","0.65,0.35","10","0.65","trustrating_stim/white_mw049.bmp","8","135","27"
